A1,,,,,,,,,,,
time,accx,accy,accz,gyrox,gyroy,gyroz,w1,w2,w3,w4,
2025-03-09 22:53:26.533,9.7500,0.7500,-0.2900,0.2500,3.3750,-0.3750,0.4313,-0.5800,0.3727,0.5819,
2025-03-09 22:53:26.546,9.8000,0.7100,-0.2800,0.4375,3.5625,-1.1875,0.4313,-0.5798,0.3729,0.5821,
2025-03-09 22:53:26.586,9.8200,0.7400,-0.2400,0.8750,3.6875,-0.9375,0.4312,-0.5796,0.3729,0.5823,
2025-03-09 22:53:26.586,9.7600,0.7100,-0.2300,1.1875,3.6875,-0.8750,0.4312,-0.5793,0.3731,0.5825,
2025-03-09 22:53:26.586,9.7800,0.6600,-0.2300,1.1250,3.5000,0.0000,0.4311,-0.5790,0.3732,0.5827,
2025-03-09 22:53:26.586,9.6400,0.7100,-0.1900,0.4375,3.2500,0.0625,0.4310,-0.5788,0.3734,0.5829,
2025-03-09 22:53:26.595,9.6700,0.7200,-0.2400,-0.2500,2.7500,-0.7500,0.4309,-0.5786,0.3735,0.5831,
2025-03-09 22:53:26.606,9.6000,0.7300,-0.1900,-1.0625,1.8125,-0.5000,0.4309,-0.5784,0.3737,0.5833,
2025-03-09 22:53:26.612,9.7200,0.6700,-0.2700,-0.6250,0.6875,0.4375,0.4307,-0.5783,0.3737,0.5834,
2025-03-09 22:53:26.623,9.8000,0.6500,-0.3000,0.1250,0.1250,0.6250,0.4307,-0.5782,0.3737,0.5836,
2025-03-09 22:53:26.635,9.8600,0.6800,-0.3300,0.3750,0.6250,-0.1250,0.4306,-0.5783,0.3737,0.5835,
2025-03-09 22:53:26.642,9.8500,0.6800,-0.3300,0.3125,1.4375,-0.6875,0.4306,-0.5782,0.3737,0.5836,
2025-03-09 22:53:26.656,9.7400,0.7800,-0.1600,0.0625,1.6875,-1.3125,0.4306,-0.5781,0.3738,0.5837,
2025-03-09 22:53:26.665,9.7200,0.8000,-0.2000,0.8125,1.1250,-0.8750,0.4306,-0.5780,0.3738,0.5838,
2025-03-09 22:53:26.677,9.7700,0.8000,-0.2400,1.6250,0.5000,-0.1875,0.4306,-0.5778,0.3738,0.5839,
2025-03-09 22:53:26.682,9.8900,0.8300,-0.2700,1.3750,-0.2500,0.3750,0.4307,-0.5778,0.3739,0.5839,
2025-03-09 22:53:26.695,9.9600,0.8500,-0.2700,1.0625,0.1250,0.3125,0.4308,-0.5777,0.3740,0.5838,
2025-03-09 22:53:26.704,9.9800,0.8400,-0.2700,1.2500,1.5000,-0.5000,0.4309,-0.5776,0.3740,0.5839,
2025-03-09 22:53:26.716,9.9200,0.7500,-0.3200,1.0625,2.3125,-1.1250,0.4308,-0.5775,0.3741,0.5839,
2025-03-09 22:53:26.725,9.8200,0.7000,-0.3100,0.9375,2.6250,-1.6250,0.4309,-0.5773,0.3741,0.5840,
2025-03-09 22:53:26.734,9.7000,0.7100,-0.2600,0.3750,2.5000,-1.3750,0.4309,-0.5770,0.3742,0.5842,
2025-03-09 22:53:26.745,9.7400,0.6800,-0.2900,0.1250,2.1250,0.1875,0.4309,-0.5769,0.3743,0.5844,
2025-03-09 22:53:26.756,9.8000,0.7200,-0.2600,0.0000,1.8750,0.4375,0.4309,-0.5767,0.3743,0.5845,
2025-03-09 22:53:26.763,9.7100,0.7800,-0.2000,-0.6875,2.5000,-0.5000,0.4308,-0.5766,0.3744,0.5846,
2025-03-09 22:53:26.786,9.6400,0.8000,-0.1800,-0.8750,2.5000,-1.6875,0.4306,-0.5763,0.3745,0.5849,
2025-03-09 22:53:26.803,9.7400,0.7500,-0.2100,-0.1250,1.0000,-1.4375,0.4306,-0.5760,0.3744,0.5854,
2025-03-09 22:53:26.822,9.9300,0.7600,-0.2400,1.2500,1.0000,-0.4375,0.4307,-0.5757,0.3744,0.5856,
2025-03-09 22:53:26.832,9.9200,0.7800,-0.2600,0.9375,1.6250,0.0000,0.4307,-0.5756,0.3745,0.5856,
2025-03-09 22:53:26.917,9.8000,0.7500,-0.2700,0.5625,2.4375,0.1250,0.4306,-0.5754,0.3747,0.5858,
2025-03-09 22:53:26.917,9.6700,0.7500,-0.2100,1.1250,2.9375,-0.3750,0.4305,-0.5751,0.3750,0.5860,
2025-03-09 22:53:26.917,9.6500,0.7500,-0.1400,1.0000,2.6875,-0.9375,0.4305,-0.5749,0.3751,0.5861,
2025-03-09 22:53:26.917,9.7500,0.7800,-0.1200,0.0000,1.6875,-0.4375,0.4305,-0.5745,0.3753,0.5863,
2025-03-09 22:53:26.922,9.7600,0.7800,-0.1200,0.0000,1.7500,-0.0625,0.4304,-0.5743,0.3754,0.5866,
2025-03-09 22:53:26.936,9.6800,0.8500,-0.0600,-0.6250,1.7500,0.5625,0.4303,-0.5742,0.3755,0.5867,
2025-03-09 22:53:26.954,9.7300,0.7800,-0.1300,0.0000,1.8750,0.7500,0.4301,-0.5739,0.3756,0.5870,
2025-03-09 22:53:26.973,9.6800,0.7400,-0.1200,0.0000,2.0000,0.0625,0.4299,-0.5737,0.3758,0.5872,
2025-03-09 22:53:26.983,9.7100,0.6800,-0.1500,0.8125,2.0000,0.2500,0.4298,-0.5736,0.3759,0.5873,
2025-03-09 22:53:27.015,9.6600,0.7800,-0.1300,1.0000,1.5000,-0.3750,0.4297,-0.5733,0.3761,0.5875,
2025-03-09 22:53:27.035,9.7200,0.7800,-0.1100,0.0625,0.6250,0.5625,0.4297,-0.5731,0.3762,0.5876,
2025-03-09 22:53:27.036,9.7800,0.8400,-0.0600,0.5625,0.3750,1.0625,0.4297,-0.5731,0.3763,0.5877,
2025-03-09 22:53:27.062,9.9200,0.7600,-0.1600,-0.5625,1.0625,0.0000,0.4297,-0.5730,0.3764,0.5877,
2025-03-09 22:53:27.072,9.9700,0.7900,-0.1200,-0.5625,1.3750,0.0000,0.4296,-0.5728,0.3765,0.5878,
2025-03-09 22:53:27.085,9.8900,0.7600,-0.1200,-0.6875,2.9375,-0.4375,0.4296,-0.5727,0.3765,0.5879,
2025-03-09 22:53:27.105,9.6300,0.7100,-0.0900,0.0625,3.3125,-1.8750,0.4294,-0.5724,0.3767,0.5883,
2025-03-09 22:53:27.122,9.7300,0.6800,-0.1200,1.0000,2.1875,-2.0625,0.4294,-0.5719,0.3768,0.5887,
2025-03-09 22:53:27.139,9.9500,0.7700,-0.0900,0.4375,0.6875,-1.5000,0.4295,-0.5717,0.3767,0.5889,
2025-03-09 22:53:27.189,10.1100,1.0900,0.0100,0.7500,2.0000,0.5000,0.4295,-0.5715,0.3767,0.5891,
2025-03-09 22:53:27.192,10.0500,0.9100,-0.1200,-0.4375,3.8125,-0.1875,0.4294,-0.5712,0.3770,0.5893,
2025-03-09 22:53:27.192,9.5100,0.7800,0.0000,-7.2500,5.9375,-3.8125,0.4291,-0.5709,0.3768,0.5899,
2025-03-09 22:53:27.204,9.5900,0.7600,0.0000,-5.0000,1.1250,1.1250,0.4283,-0.5707,0.3762,0.5910,
2025-03-09 22:53:27.222,9.7500,0.7800,0.0100,-3.0625,0.2500,2.4375,0.4277,-0.5711,0.3760,0.5913,
2025-03-09 22:53:27.235,9.6600,0.7500,0.0200,-0.8125,0.3750,0.2500,0.4275,-0.5712,0.3761,0.5912,
2025-03-09 22:53:27.254,9.5100,0.6700,0.0100,-0.7500,-0.8125,0.9375,0.4274,-0.5712,0.3760,0.5914,
2025-03-09 22:53:27.274,9.6500,0.8000,0.0000,-0.1250,-1.1875,1.8750,0.4272,-0.5713,0.3761,0.5912,
2025-03-09 22:53:27.286,9.7100,0.7600,-0.0500,0.3750,-1.5625,1.8125,0.4272,-0.5715,0.3762,0.5911,
2025-03-09 22:53:27.304,9.6800,0.7700,-0.1000,-0.1250,-1.9375,0.5625,0.4272,-0.5717,0.3762,0.5909,
2025-03-09 22:53:27.322,9.7000,0.7500,-0.0800,-1.3125,-2.5000,-1.3125,0.4274,-0.5718,0.3758,0.5909,
2025-03-09 22:53:27.338,9.8600,0.7400,-0.1300,-0.2500,-3.5000,2.0000,0.4274,-0.5720,0.3756,0.5908,
2025-03-09 22:53:27.356,9.8800,0.8000,-0.1200,-0.3750,-1.5625,1.7500,0.4274,-0.5725,0.3756,0.5903,
2025-03-09 22:53:27.371,9.7000,0.7300,-0.0700,-1.4375,-0.3750,0.0625,0.4272,-0.5727,0.3756,0.5902,
2025-03-09 22:53:27.388,9.6300,0.6600,-0.0700,-2.3750,-0.3125,-1.4375,0.4272,-0.5728,0.3754,0.5903,
2025-03-09 22:53:27.424,9.7400,0.6700,-0.1200,-2.1875,-1.2500,-1.2500,0.4272,-0.5729,0.3749,0.5905,
2025-03-09 22:53:27.427,9.8500,0.7500,-0.0900,-1.7500,-1.3125,-0.5000,0.4271,-0.5731,0.3746,0.5905,
2025-03-09 22:53:27.434,9.9300,0.7700,-0.1400,-0.9375,-0.6250,-0.5625,0.4271,-0.5732,0.3746,0.5905,
2025-03-09 22:53:27.459,9.8200,0.7800,-0.1200,-1.8125,1.6875,-3.0625,0.4271,-0.5730,0.3743,0.5909,
2025-03-09 22:53:27.487,9.8400,0.8300,-0.0300,-4.2500,1.1875,-4.7500,0.4271,-0.5728,0.3736,0.5916,
2025-03-09 22:53:27.495,9.8600,0.8800,-0.1200,-5.0000,1.0000,-4.7500,0.4271,-0.5727,0.3731,0.5920,
2025-03-09 22:53:27.510,9.6300,0.8800,0.0000,-4.1875,2.0000,-5.0000,0.4269,-0.5725,0.3723,0.5928,
2025-03-09 22:53:27.520,9.6200,0.8200,0.0000,-3.5000,0.4375,-4.6250,0.4270,-0.5723,0.3715,0.5934,
2025-03-09 22:53:27.535,9.6400,0.8300,0.0600,-2.8125,-0.5625,-4.5625,0.4271,-0.5722,0.3712,0.5937,
2025-03-09 22:53:27.557,9.8700,0.9400,-0.0300,-0.5000,-0.6875,-2.7500,0.4274,-0.5721,0.3707,0.5938,
2025-03-09 22:53:27.573,9.7700,0.8800,-0.0700,-1.5625,0.1875,-4.0625,0.4276,-0.5719,0.3702,0.5941,
2025-03-09 22:53:27.582,9.6400,0.8300,-0.0800,-2.3750,0.3750,-4.3125,0.4277,-0.5718,0.3699,0.5944,
2025-03-09 22:53:27.602,9.7700,0.8700,-0.1200,-2.3125,-2.1250,-1.8125,0.4279,-0.5719,0.3693,0.5945,
2025-03-09 22:53:27.615,9.9400,0.8700,-0.1600,-1.8750,-2.5625,-1.0000,0.4279,-0.5720,0.3691,0.5946,
2025-03-09 22:53:27.633,9.9800,0.9700,-0.1200,-1.1875,-1.1875,-0.1250,0.4279,-0.5723,0.3688,0.5944,
2025-03-09 22:53:27.656,9.7100,0.9300,-0.0400,-2.0625,0.1250,-1.1875,0.4278,-0.5723,0.3686,0.5946,
2025-03-09 22:53:27.671,9.7500,0.8900,-0.1100,-2.9375,-2.0000,0.4375,0.4275,-0.5727,0.3682,0.5947,
2025-03-09 22:53:27.686,9.9200,0.9000,-0.1000,-2.9375,-2.8750,0.1875,0.4275,-0.5729,0.3679,0.5947,
2025-03-09 22:53:27.692,9.9200,0.9000,-0.1300,-2.6250,-2.6250,0.5000,0.4274,-0.5731,0.3677,0.5947,
2025-03-09 22:53:27.702,9.8500,0.9100,-0.1300,-2.5625,-1.2500,-0.1250,0.4274,-0.5733,0.3675,0.5947,
2025-03-09 22:53:27.716,9.7700,0.8600,-0.1400,-2.4375,-0.4375,-1.1250,0.4273,-0.5733,0.3674,0.5948,
2025-03-09 22:53:27.720,9.7100,0.8400,-0.0500,-3.1250,-0.1875,-1.0625,0.4272,-0.5733,0.3672,0.5950,
2025-03-09 22:53:27.731,9.7100,0.8700,-0.0900,-2.8125,-0.5625,-0.7500,0.4271,-0.5734,0.3670,0.5951,
2025-03-09 22:53:27.745,9.7600,0.8300,-0.1200,-2.4375,-1.1875,-0.4375,0.4270,-0.5736,0.3668,0.5951,
2025-03-09 22:53:27.786,9.7500,0.8700,-0.0900,-3.0000,-1.0000,0.1250,0.4269,-0.5737,0.3666,0.5951,
2025-03-09 22:53:27.789,9.7100,0.8800,-0.1000,-2.6250,-1.0625,0.1250,0.4268,-0.5739,0.3665,0.5952,
2025-03-09 22:53:27.789,9.7600,0.9100,-0.1000,-1.4375,-1.4375,1.0625,0.4267,-0.5740,0.3664,0.5951,
2025-03-09 22:53:27.789,9.8100,0.9300,-0.1200,-1.1250,-1.8750,1.5625,0.4266,-0.5742,0.3663,0.5950,
2025-03-09 22:53:27.792,9.8900,0.9200,-0.1400,-1.0000,-2.1875,0.8750,0.4266,-0.5743,0.3663,0.5950,
2025-03-09 22:53:27.802,9.9200,0.8900,-0.1900,-0.6250,-1.6250,-0.3750,0.4266,-0.5745,0.3662,0.5949,
2025-03-09 22:53:27.812,9.9000,0.8900,-0.2100,-0.6875,-0.8750,-1.4375,0.4267,-0.5745,0.3660,0.5949,
2025-03-09 22:53:27.820,9.7500,0.9100,-0.1700,-1.9375,0.0000,-3.0625,0.4267,-0.5744,0.3658,0.5951,
2025-03-09 22:53:27.835,9.6100,0.8200,-0.0600,-2.1875,1.0000,-4.2500,0.4268,-0.5743,0.3655,0.5953,
2025-03-09 22:53:27.843,9.6400,0.8400,-0.1000,-3.4375,1.2500,-4.1250,0.4268,-0.5742,0.3652,0.5957,
2025-03-09 22:53:27.851,9.7900,0.8100,-0.2000,-3.0625,0.3125,-2.0625,0.4267,-0.5742,0.3649,0.5958,
2025-03-09 22:53:27.864,9.8500,0.9200,-0.1700,-4.1875,-0.6250,-0.6875,0.4266,-0.5743,0.3647,0.5960,
2025-03-09 22:53:27.872,9.8200,0.9400,-0.1100,-5.6250,-0.2500,-0.9375,0.4263,-0.5745,0.3643,0.5962,
2025-03-09 22:53:27.881,9.8100,0.9500,-0.0600,-6.8125,0.1875,-1.1875,0.4260,-0.5747,0.3640,0.5965,
2025-03-09 22:53:27.895,9.8300,0.9200,-0.1000,-6.1875,0.0625,-1.8125,0.4258,-0.5748,0.3635,0.5968,
2025-03-09 22:53:27.903,9.7600,0.8900,-0.0800,-4.6875,0.1875,-1.9375,0.4257,-0.5748,0.3632,0.5970,
2025-03-09 22:53:27.915,9.7600,0.8800,-0.0800,-2.9375,0.4375,-1.3125,0.4256,-0.5749,0.3630,0.5972,
2025-03-09 22:53:27.924,9.6600,0.8900,-0.0300,-1.0625,0.7500,-0.6250,0.4255,-0.5749,0.3630,0.5972,
2025-03-09 22:53:27.932,9.7400,0.9900,-0.0500,0.4375,0.5625,0.8750,0.4255,-0.5749,0.3630,0.5972,
2025-03-09 22:53:27.942,9.7100,0.9900,-0.0200,1.5625,-0.0625,1.9375,0.4255,-0.5749,0.3630,0.5972,
2025-03-09 22:53:27.954,9.6300,1.0300,0.0000,0.1875,-0.2500,1.5625,0.4255,-0.5749,0.3632,0.5971,
2025-03-09 22:53:27.962,9.6200,0.9800,0.0100,-1.2500,-0.3750,0.3125,0.4254,-0.5750,0.3633,0.5971,
2025-03-09 22:53:27.971,9.8100,0.9200,-0.0400,-1.6250,-0.9375,-0.6250,0.4253,-0.5750,0.3632,0.5971,
2025-03-09 22:53:27.986,9.8800,0.8600,-0.0800,-2.0000,-1.2500,-0.5625,0.4253,-0.5751,0.3630,0.5972,
2025-03-09 22:53:27.993,9.9000,0.8700,-0.0700,-1.8125,-1.2500,0.3750,0.4252,-0.5752,0.3629,0.5972,
2025-03-09 22:53:28.005,9.8200,0.9400,-0.0600,-1.4375,-0.5000,-0.1875,0.4252,-0.5753,0.3628,0.5972,
2025-03-09 22:53:28.016,9.7500,0.9700,-0.0100,-1.5000,0.1875,-0.1875,0.4251,-0.5754,0.3627,0.5972,
2025-03-09 22:53:28.021,9.6900,1.0100,-0.0400,-1.6250,0.0625,0.1875,0.4250,-0.5754,0.3626,0.5973,
2025-03-09 22:53:28.032,9.6700,0.9900,-0.0200,-1.4375,-0.6875,0.2500,0.4250,-0.5755,0.3625,0.5973,
2025-03-09 22:53:28.044,9.7400,0.9500,-0.1100,-1.3125,-1.3750,0.4375,0.4249,-0.5756,0.3624,0.5973,
2025-03-09 22:53:28.070,9.7000,0.9400,-0.0900,-1.4375,-2.1875,0.5000,0.4249,-0.5757,0.3623,0.5973,
2025-03-09 22:53:28.091,9.7300,0.9200,-0.1400,-2.3125,-2.5000,0.6875,0.4249,-0.5758,0.3622,0.5973,
2025-03-09 22:53:28.091,9.8000,0.7800,-0.2200,-1.6250,-2.3125,0.5000,0.4248,-0.5760,0.3620,0.5972,
2025-03-09 22:53:28.091,9.7300,0.7600,-0.1800,-1.1250,-1.4375,-0.1250,0.4248,-0.5762,0.3619,0.5971,
2025-03-09 22:53:28.092,9.6900,0.7300,-0.2300,-0.9375,-0.7500,-0.3750,0.4248,-0.5763,0.3617,0.5971,
2025-03-09 22:53:28.105,9.7400,0.7900,-0.2500,-0.6250,-0.3125,-0.6250,0.4247,-0.5764,0.3617,0.5971,
2025-03-09 22:53:28.112,9.6900,0.8900,-0.1300,-1.3750,0.0625,-1.2500,0.4247,-0.5764,0.3616,0.5972,
2025-03-09 22:53:28.125,9.7500,0.9200,-0.1200,-1.5000,0.2500,-2.1875,0.4247,-0.5764,0.3615,0.5972,
2025-03-09 22:53:28.137,9.7700,0.9500,-0.1400,-0.8125,-0.4375,-2.1250,0.4248,-0.5764,0.3613,0.5974,
2025-03-09 22:53:28.144,9.8800,1.0200,-0.1400,-0.8125,-0.4375,-2.1250,0.4249,-0.5763,0.3611,0.5975,
2025-03-09 22:53:28.151,9.9400,0.9700,-0.2000,-0.3125,-0.2500,-1.3750,0.4249,-0.5762,0.3610,0.5975,
2025-03-09 22:53:28.166,9.7700,0.9900,-0.0800,-0.5625,0.1875,-0.9375,0.4250,-0.5762,0.3609,0.5976,
2025-03-09 22:53:28.173,9.7500,0.9900,-0.0800,-0.8125,-0.6875,0.1875,0.4250,-0.5762,0.3609,0.5976,
2025-03-09 22:53:28.181,9.7900,0.9200,-0.0600,-0.6875,-1.5625,0.4375,0.4250,-0.5762,0.3608,0.5976,
2025-03-09 22:53:28.196,9.8800,0.9800,-0.0700,-0.6250,-1.8125,0.5625,0.4250,-0.5763,0.3607,0.5976,
2025-03-09 22:53:28.202,9.9600,1.0300,-0.1100,-0.1875,-0.6250,-0.0625,0.4250,-0.5764,0.3606,0.5975,
2025-03-09 22:53:28.213,9.9200,0.9500,-0.1600,-0.8125,0.3125,0.1250,0.4250,-0.5765,0.3606,0.5975,
2025-03-09 22:53:28.222,9.8100,0.9100,-0.1300,-0.5625,0.1875,1.2500,0.4250,-0.5765,0.3605,0.5975,
2025-03-09 22:53:28.232,9.7600,0.8700,-0.1800,0.2500,-0.1250,1.5625,0.4249,-0.5765,0.3607,0.5975,
2025-03-09 22:53:28.243,9.7300,0.8700,-0.1500,0.2500,-0.5625,1.6250,0.4249,-0.5766,0.3607,0.5974,
2025-03-09 22:53:28.256,9.7800,0.9000,-0.1200,0.3125,-1.1875,2.3125,0.4248,-0.5767,0.3608,0.5974,
2025-03-09 22:53:28.264,9.7900,0.9100,-0.1400,0.5000,-1.5000,2.2500,0.4247,-0.5768,0.3609,0.5973,
2025-03-09 22:53:28.272,9.8500,0.9100,-0.1400,0.1250,-1.4375,1.1875,0.4246,-0.5770,0.3609,0.5971,
2025-03-09 22:53:28.304,9.8300,0.9900,-0.0400,-0.3750,-0.6875,0.3750,0.4246,-0.5771,0.3610,0.5970,
2025-03-09 22:53:28.313,9.7900,1.0100,-0.0300,-0.5000,0.2500,-0.1875,0.4247,-0.5771,0.3609,0.5970,
2025-03-09 22:53:28.313,9.7500,0.9400,-0.0900,-0.5000,0.4375,-0.4375,0.4247,-0.5771,0.3609,0.5970,
2025-03-09 22:53:28.317,9.6300,0.9400,-0.0600,-0.7500,0.3125,0.0000,0.4247,-0.5771,0.3609,0.5970,
2025-03-09 22:53:28.324,9.5700,0.8800,-0.1200,-0.5625,-0.6250,0.3125,0.4246,-0.5771,0.3609,0.5970,
2025-03-09 22:53:28.333,9.5600,0.8500,-0.1500,-1.0000,-1.5000,0.3125,0.4246,-0.5771,0.3608,0.5970,
2025-03-09 22:53:28.348,9.5600,0.8400,-0.1900,-1.7500,-2.3125,0.0625,0.4246,-0.5773,0.3607,0.5969,
2025-03-09 22:53:28.386,9.5800,0.8400,-0.2000,-2.1250,-2.5625,-0.2500,0.4246,-0.5774,0.3606,0.5969,
2025-03-09 22:53:28.389,9.7300,0.8400,-0.2300,-1.6250,-2.6250,-0.6250,0.4246,-0.5777,0.3604,0.5968,
2025-03-09 22:53:28.390,9.8500,0.7800,-0.3000,-0.0625,-2.3125,0.1250,0.4246,-0.5778,0.3602,0.5967,
2025-03-09 22:53:28.390,9.9100,0.7600,-0.3500,0.8125,-1.3125,1.6250,0.4247,-0.5779,0.3601,0.5967,
2025-03-09 22:53:28.392,9.7800,0.9600,-0.2200,1.2500,-0.2500,1.5625,0.4247,-0.5780,0.3602,0.5965,
2025-03-09 22:53:28.402,9.6700,1.0100,-0.1700,1.0000,0.1875,1.1250,0.4247,-0.5780,0.3603,0.5964,
2025-03-09 22:53:28.414,9.6500,1.0200,-0.1400,1.0625,-0.4375,0.9375,0.4247,-0.5780,0.3604,0.5964,
2025-03-09 22:53:28.423,9.6900,0.9800,-0.0900,0.5625,-1.3750,0.5000,0.4247,-0.5781,0.3605,0.5962,
2025-03-09 22:53:28.446,9.9300,0.9600,-0.1700,1.0000,-1.4375,0.8750,0.4248,-0.5782,0.3605,0.5961,
2025-03-09 22:53:28.452,9.9300,0.9200,-0.2200,0.8125,-0.5625,0.7500,0.4248,-0.5783,0.3605,0.5959,
2025-03-09 22:53:28.474,9.5900,0.9100,-0.1200,0.3125,-0.1250,-0.1250,0.4249,-0.5783,0.3606,0.5959,
2025-03-09 22:53:28.496,9.6100,0.8800,-0.1500,-0.6250,-2.0000,-0.3750,0.4249,-0.5783,0.3605,0.5958,
2025-03-09 22:53:28.517,9.8000,0.9100,-0.1700,-0.6250,-3.4375,0.4375,0.4250,-0.5786,0.3603,0.5956,
2025-03-09 22:53:28.532,9.8800,0.8500,-0.2600,-0.5625,-2.3750,1.3750,0.4250,-0.5790,0.3600,0.5953,
2025-03-09 22:53:28.547,9.7500,0.8200,-0.1900,-0.3125,-1.6250,1.0625,0.4251,-0.5792,0.3601,0.5952,
2025-03-09 22:53:28.563,9.5600,0.8900,-0.1100,1.1250,-2.1250,1.5000,0.4250,-0.5794,0.3600,0.5950,
2025-03-09 22:53:28.584,9.7800,0.9000,-0.2100,0.1875,-3.6875,0.7500,0.4252,-0.5798,0.3601,0.5945,
2025-03-09 22:53:28.596,9.8600,0.9000,-0.2100,0.3750,-3.2500,0.3750,0.4252,-0.5800,0.3600,0.5943,
2025-03-09 22:53:28.620,9.8500,0.8800,-0.2100,-0.1250,-2.1875,-0.3125,0.4254,-0.5803,0.3598,0.5940,
2025-03-09 22:53:28.632,9.8600,0.9000,-0.2300,0.1875,-1.8125,0.5625,0.4255,-0.5805,0.3597,0.5938,
2025-03-09 22:53:28.645,9.8600,1.0100,-0.2000,-0.4375,-1.3750,1.0625,0.4256,-0.5806,0.3596,0.5937,
2025-03-09 22:53:28.685,9.7500,0.9400,-0.1700,-1.3125,-1.6250,0.9375,0.4255,-0.5808,0.3596,0.5936,
2025-03-09 22:53:28.688,9.7800,0.9300,-0.1800,-0.1250,-2.7500,1.0000,0.4254,-0.5812,0.3594,0.5934,
2025-03-09 22:53:28.693,9.9300,0.8600,-0.3200,0.6250,-2.4375,1.1875,0.4254,-0.5814,0.3594,0.5932,
2025-03-09 22:53:28.713,9.7100,0.8200,-0.2600,-0.7500,-0.3750,0.6875,0.4255,-0.5816,0.3594,0.5929,
2025-03-09 22:53:28.737,9.5900,0.8300,-0.1900,-1.6250,-0.5625,0.1875,0.4253,-0.5817,0.3594,0.5929,
2025-03-09 22:53:28.753,9.8100,0.9000,-0.2300,-0.8750,-2.3125,0.6875,0.4252,-0.5818,0.3591,0.5930,
2025-03-09 22:53:28.773,9.8500,0.8900,-0.2700,-0.3750,-1.8125,1.5625,0.4252,-0.5822,0.3590,0.5928,
2025-03-09 22:53:28.796,9.8100,0.8600,-0.2600,0.8750,-0.5000,0.7500,0.4252,-0.5825,0.3590,0.5925,
2025-03-09 22:53:28.813,9.6900,0.8400,-0.2300,-1.3750,-0.5625,-1.0000,0.4252,-0.5825,0.3591,0.5925,
2025-03-09 22:53:28.833,9.6400,0.9200,-0.1600,-2.0625,-0.6250,-1.1875,0.4251,-0.5825,0.3588,0.5927,
2025-03-09 22:53:28.843,9.7600,0.8300,-0.2500,-1.2500,-1.7500,0.9375,0.4251,-0.5826,0.3586,0.5927,
2025-03-09 22:53:28.864,9.7400,0.7800,-0.3300,0.4375,-1.0625,1.8750,0.4250,-0.5829,0.3586,0.5925,
2025-03-09 22:53:28.886,9.6400,0.7800,-0.3100,0.3750,-0.6250,1.4375,0.4249,-0.5831,0.3587,0.5923,
2025-03-09 22:53:28.894,9.7100,0.7900,-0.3200,-1.3125,-0.9375,-0.8125,0.4249,-0.5831,0.3587,0.5922,
2025-03-09 22:53:28.913,9.7500,0.7800,-0.3400,-0.0625,-1.1250,-0.1875,0.4250,-0.5832,0.3585,0.5922,
2025-03-09 22:53:28.936,9.7000,1.0200,-0.1300,0.4375,-1.0000,-0.7500,0.4251,-0.5834,0.3583,0.5921,
2025-03-09 22:53:28.946,9.6700,1.0100,-0.1200,0.2500,-1.6875,-0.8125,0.4251,-0.5833,0.3583,0.5922,
2025-03-09 22:53:28.989,9.7500,0.8500,-0.3100,-0.1875,-2.7500,-0.3750,0.4253,-0.5833,0.3581,0.5922,
2025-03-09 22:53:28.992,9.9100,0.8800,-0.3400,0.1875,-2.5000,-0.6250,0.4255,-0.5835,0.3579,0.5920,
2025-03-09 22:53:28.993,9.9400,0.8700,-0.3600,0.1250,-0.6250,-0.5000,0.4255,-0.5836,0.3578,0.5919,
2025-03-09 22:53:29.015,9.7800,0.8800,-0.3100,-0.1250,0.0625,-0.6250,0.4256,-0.5836,0.3577,0.5919,
2025-03-09 22:53:29.035,9.7700,0.8600,-0.2800,0.0625,-1.1875,-0.8125,0.4257,-0.5835,0.3576,0.5920,
2025-03-09 22:53:29.043,9.8600,0.8000,-0.3300,-0.5625,-2.1875,0.1250,0.4258,-0.5836,0.3576,0.5919,
2025-03-09 22:53:29.113,9.9000,0.9700,-0.2500,-0.2500,-1.8125,2.7500,0.4256,-0.5839,0.3576,0.5916,
2025-03-09 22:53:29.117,9.6600,0.9100,-0.2100,0.6875,-0.2500,0.8750,0.4255,-0.5840,0.3578,0.5915,
2025-03-09 22:53:29.117,9.6500,0.8600,-0.2400,0.8750,-0.3125,0.0625,0.4255,-0.5839,0.3578,0.5915,
2025-03-09 22:53:29.117,9.8800,0.8100,-0.3500,1.5625,-1.8125,0.8750,0.4257,-0.5840,0.3579,0.5913,
2025-03-09 22:53:29.125,9.9200,0.8500,-0.3700,1.1875,-1.5000,2.4375,0.4257,-0.5841,0.3580,0.5911,
2025-03-09 22:53:29.143,9.6500,0.8800,-0.2300,-1.0625,0.5625,-0.5625,0.4255,-0.5841,0.3581,0.5912,
2025-03-09 22:53:29.163,9.6300,0.8000,-0.2400,0.1875,-1.2500,0.2500,0.4256,-0.5841,0.3580,0.5912,
2025-03-09 22:53:29.184,9.6600,0.7800,-0.3300,0.8125,-2.0000,-0.1250,0.4257,-0.5842,0.3580,0.5910,
2025-03-09 22:53:29.193,9.8700,0.8000,-0.4400,0.3125,-1.8750,1.1875,0.4257,-0.5844,0.3580,0.5909,
2025-03-09 22:53:29.215,9.8000,0.8900,-0.3600,-2.0625,-1.6875,1.3750,0.4255,-0.5847,0.3579,0.5908,
2025-03-09 22:53:29.222,9.6800,0.9100,-0.2800,-1.6875,-1.4375,1.2500,0.4254,-0.5848,0.3578,0.5908,
2025-03-09 22:53:29.242,9.8300,0.8500,-0.3100,-2.3750,-1.3125,1.6875,0.4251,-0.5851,0.3576,0.5908,
2025-03-09 22:53:29.287,9.8500,0.8300,-0.3300,-1.6875,-0.3750,1.3125,0.4248,-0.5854,0.3575,0.5908,
2025-03-09 22:53:29.290,9.8300,0.9000,-0.3700,-1.8125,1.9375,2.2500,0.4244,-0.5854,0.3576,0.5910,
2025-03-09 22:53:29.296,9.7500,0.8200,-0.2800,-0.8125,0.4375,2.3125,0.4242,-0.5855,0.3577,0.5910,
2025-03-09 22:53:29.306,9.7100,0.7600,-0.3600,-0.7500,0.8125,1.4375,0.4241,-0.5856,0.3577,0.5910,
2025-03-09 22:53:29.313,9.6300,0.7400,-0.3200,-1.0625,0.7500,1.7500,0.4239,-0.5856,0.3578,0.5910,
2025-03-09 22:53:29.325,9.6700,0.7300,-0.3300,-0.6250,-0.1250,1.8750,0.4237,-0.5857,0.3579,0.5911,
2025-03-09 22:53:29.337,9.7400,0.7300,-0.3400,-1.0625,-0.5625,1.0000,0.4236,-0.5857,0.3579,0.5911,
2025-03-09 22:53:29.342,9.8000,0.8000,-0.3400,-1.3750,-0.5000,1.2500,0.4235,-0.5858,0.3579,0.5911,
2025-03-09 22:53:29.351,9.7800,0.8000,-0.3300,-0.6875,-0.0625,1.2500,0.4234,-0.5859,0.3579,0.5911,
2025-03-09 22:53:29.365,9.6500,0.8000,-0.3000,0.3750,-0.0625,1.1250,0.4233,-0.5859,0.3580,0.5910,
2025-03-09 22:53:29.372,9.6600,0.8900,-0.2600,1.3125,-0.8125,2.4375,0.4233,-0.5860,0.3581,0.5909,
2025-03-09 22:53:29.381,9.6700,0.8800,-0.2300,1.8125,-1.8750,2.3750,0.4233,-0.5860,0.3583,0.5907,
2025-03-09 22:53:29.398,9.7600,0.8900,-0.2900,2.1875,-2.1250,1.3750,0.4234,-0.5861,0.3584,0.5906,
2025-03-09 22:53:29.402,9.8300,0.8400,-0.3700,1.5000,-1.6875,-0.7500,0.4236,-0.5861,0.3584,0.5905,
2025-03-09 22:53:29.410,9.8400,0.8300,-0.3600,0.2500,-1.0000,-1.8750,0.4237,-0.5860,0.3583,0.5905,
2025-03-09 22:53:29.425,9.8500,0.8100,-0.3700,-0.0625,-0.5000,-1.8750,0.4238,-0.5860,0.3582,0.5906,
2025-03-09 22:53:29.430,9.9400,0.8400,-0.3700,0.0625,-0.6875,-0.3750,0.4238,-0.5860,0.3581,0.5906,
2025-03-09 22:53:29.442,9.8600,0.8400,-0.3300,-0.1250,0.0000,0.5625,0.4238,-0.5860,0.3581,0.5906,
2025-03-09 22:53:29.454,9.6900,0.8700,-0.1600,-1.0000,0.9375,0.1250,0.4237,-0.5859,0.3581,0.5907,
2025-03-09 22:53:29.461,9.6800,0.8200,-0.2400,-0.5000,0.7500,0.0000,0.4237,-0.5858,0.3582,0.5908,
2025-03-09 22:53:29.474,9.7200,0.8300,-0.2800,-0.1875,0.5000,0.6250,0.4236,-0.5858,0.3582,0.5908,
2025-03-09 22:53:29.484,9.8300,0.8200,-0.3200,0.4375,-0.6250,0.3125,0.4236,-0.5858,0.3582,0.5908,
2025-03-09 22:53:29.492,9.9000,0.8100,-0.3300,0.2500,-1.0000,-0.5625,0.4236,-0.5859,0.3582,0.5907,
2025-03-09 22:53:29.496,9.8100,0.7600,-0.3500,-0.5000,0.1250,-1.1875,0.4237,-0.5858,0.3581,0.5908,
2025-03-09 22:53:29.516,9.7100,0.8500,-0.2700,-0.8750,1.5000,-0.8750,0.4236,-0.5857,0.3581,0.5910,
2025-03-09 22:53:29.521,9.6600,0.9100,-0.1800,-0.6875,1.6250,0.0000,0.4235,-0.5856,0.3582,0.5911,
2025-03-09 22:53:29.534,9.6200,0.8500,-0.1700,-0.1875,1.5625,0.4375,0.4235,-0.5854,0.3582,0.5913,
2025-03-09 22:53:29.543,9.6700,0.8100,-0.2200,-0.1250,1.1875,0.1250,0.4234,-0.5853,0.3583,0.5914,
2025-03-09 22:53:29.597,9.7400,0.8200,-0.2200,-0.1250,0.6875,-1.0000,0.4234,-0.5852,0.3583,0.5915,
2025-03-09 22:53:29.600,9.7900,0.8200,-0.2900,0.2500,0.6250,-2.1875,0.4235,-0.5851,0.3582,0.5917,
2025-03-09 22:53:29.600,9.7500,0.8500,-0.2500,0.8750,1.3750,-2.5000,0.4236,-0.5849,0.3582,0.5918,
2025-03-09 22:53:29.600,9.7500,0.8900,-0.1800,0.3125,2.0625,-2.2500,0.4236,-0.5846,0.3582,0.5920,
2025-03-09 22:53:29.600,9.8600,0.8500,-0.2300,0.5000,2.3125,-0.9375,0.4236,-0.5844,0.3582,0.5922,
2025-03-09 22:53:29.613,9.9000,0.9000,-0.2000,-0.4375,2.3750,-0.1875,0.4235,-0.5842,0.3583,0.5924,
2025-03-09 22:53:29.614,9.8700,0.8400,-0.1900,-1.5000,3.3750,-0.5625,0.4235,-0.5842,0.3583,0.5924,
2025-03-09 22:53:29.636,9.6700,0.8200,-0.0600,-3.0625,4.1250,-0.9375,0.4233,-0.5841,0.3584,0.5926,
2025-03-09 22:53:29.640,9.6600,0.8700,-0.0400,-4.3750,4.1875,1.1875,0.4230,-0.5839,0.3583,0.5931,
2025-03-09 22:53:29.644,9.3200,1.1600,-0.0300,-8.3125,6.6875,4.9375,0.4225,-0.5837,0.3584,0.5935,
2025-03-09 22:53:29.652,9.7400,0.9400,-0.3500,-18.1875,22.4375,8.2500,0.4217,-0.5839,0.3585,0.5940,
2025-03-09 22:53:29.666,9.8300,0.9400,0.0600,-15.6250,11.0625,9.8125,0.4197,-0.5836,0.3588,0.5955,
2025-03-09 22:53:29.672,9.5300,0.7300,-0.1000,-14.1250,6.8125,6.6875,0.4181,-0.5838,0.3589,0.5963,
2025-03-09 22:53:29.682,9.8600,0.2400,-0.5600,-11.8750,6.5000,7.5625,0.4168,-0.5841,0.3588,0.5970,
2025-03-09 22:53:29.698,9.9800,0.4100,-0.3900,-9.3750,6.0625,8.4375,0.4157,-0.5844,0.3588,0.5975,
2025-03-09 22:53:29.702,9.8300,0.6000,-0.3000,-8.5625,7.6875,7.2500,0.4146,-0.5846,0.3590,0.5978,
2025-03-09 22:53:29.711,9.3600,0.5700,-0.3200,-8.8125,8.1250,5.8125,0.4136,-0.5848,0.3592,0.5983,
2025-03-09 22:53:29.726,9.5200,0.6400,-0.1300,-7.1250,7.5625,3.8125,0.4126,-0.5848,0.3593,0.5989,
2025-03-09 22:53:29.732,9.7300,0.6900,-0.1300,-4.9375,3.8125,4.4375,0.4118,-0.5848,0.3594,0.5994,
2025-03-09 22:53:29.747,9.5900,0.8900,0.0500,-4.4375,2.1875,5.4375,0.4112,-0.5849,0.3596,0.5996,
2025-03-09 22:53:29.754,9.5700,0.6600,-0.0700,-4.0625,2.8750,2.8125,0.4106,-0.5851,0.3597,0.5997,
2025-03-09 22:53:29.756,9.8100,0.6000,-0.1900,-1.9375,2.3125,1.9375,0.4102,-0.5851,0.3597,0.5999,
2025-03-09 22:53:29.771,10.0800,0.8800,-0.1200,-2.6875,1.4375,5.2500,0.4099,-0.5852,0.3599,0.6000,
2025-03-09 22:53:29.785,10.2800,0.9900,-0.1200,-3.2500,2.5000,6.5000,0.4095,-0.5853,0.3600,0.6001,
2025-03-09 22:53:29.795,10.2900,0.6900,-0.3000,-2.5000,6.0625,3.2500,0.4089,-0.5855,0.3603,0.6001,
2025-03-09 22:53:29.801,10.1900,0.4300,-0.5400,-3.1250,11.2500,1.0000,0.4085,-0.5854,0.3605,0.6004,
2025-03-09 22:53:29.817,10.1600,0.3100,-0.5900,-3.5625,16.1875,-0.4375,0.4079,-0.5850,0.3608,0.6010,
2025-03-09 22:53:29.822,9.5100,0.5700,-0.1600,-6.2500,17.8125,-0.6250,0.4072,-0.5843,0.3612,0.6020,
2025-03-09 22:53:29.833,9.6500,0.6700,-0.0400,-6.6875,17.6250,-0.0625,0.4064,-0.5835,0.3615,0.6031,
2025-03-09 22:53:29.846,9.7100,0.6200,-0.0700,-5.2500,14.4375,3.1250,0.4055,-0.5828,0.3617,0.6042,
2025-03-09 22:53:29.893,9.8600,0.5700,-0.0700,-3.9375,11.0000,7.8750,0.4046,-0.5824,0.3621,0.6050,
2025-03-09 22:53:29.893,10.1000,0.7100,-0.0600,-1.6250,10.3750,8.9375,0.4037,-0.5822,0.3627,0.6054,
2025-03-09 22:53:29.893,10.0300,0.9600,0.2700,0.3750,11.1875,8.7500,0.4028,-0.5820,0.3635,0.6057,
2025-03-09 22:53:29.893,10.0000,1.1300,0.4500,-0.8750,13.5625,7.5000,0.4021,-0.5817,0.3643,0.6060,
2025-03-09 22:53:29.893,9.5300,1.0100,0.4300,-1.4375,19.0000,3.1250,0.4013,-0.5813,0.3651,0.6065,
2025-03-09 22:53:29.906,9.4000,0.9400,0.5900,-3.0000,21.5625,-0.5000,0.4004,-0.5805,0.3658,0.6073,
2025-03-09 22:53:29.912,9.3500,0.7400,0.4400,-3.7500,21.0625,0.5625,0.3996,-0.5795,0.3664,0.6085,
2025-03-09 22:53:29.922,9.5800,0.5100,0.1500,-0.6250,19.4375,1.5000,0.3987,-0.5785,0.3669,0.6097,
2025-03-09 22:53:29.935,9.7000,0.1800,0.1000,1.9375,17.3125,0.0625,0.3981,-0.5776,0.3676,0.6106,
2025-03-09 22:53:29.941,10.0500,0.1400,-0.1800,5.0000,15.7500,2.1250,0.3976,-0.5766,0.3683,0.6114,
2025-03-09 22:53:29.952,9.8500,0.2800,0.0100,6.8750,16.2500,7.1250,0.3973,-0.5757,0.3692,0.6119,
2025-03-09 22:53:29.972,9.6400,1.1100,1.7300,9.0000,14.0000,11.4375,0.3961,-0.5742,0.3718,0.6125,
2025-03-09 22:53:29.985,9.4200,0.8700,0.2600,4.6875,26.6250,11.3125,0.3956,-0.5736,0.3732,0.6125,
2025-03-09 22:53:29.995,9.8300,0.5900,0.7700,0.1250,44.6250,9.0000,0.3945,-0.5724,0.3749,0.6133,
2025-03-09 22:53:30.001,9.9600,0.6500,0.7700,-6.4375,43.3125,8.5625,0.3926,-0.5704,0.3769,0.6152,
2025-03-09 22:53:30.012,10.1200,0.7400,0.8600,-10.0625,53.9375,12.0000,0.3905,-0.5687,0.3785,0.6172,
2025-03-09 22:53:30.026,9.8400,0.5300,0.8200,-12.6875,58.3750,11.7500,0.3876,-0.5666,0.3804,0.6197,
2025-03-09 22:53:30.032,9.7500,0.2700,1.0300,-13.3750,64.6250,6.3125,0.3845,-0.5643,0.3823,0.6226,
2025-03-09 22:53:30.043,9.7300,0.2200,1.1500,-4.1250,74.6875,5.3750,0.3814,-0.5615,0.3841,0.6259,
2025-03-09 22:53:30.055,9.8000,0.3000,1.0000,3.0000,80.1250,7.5625,0.3785,-0.5579,0.3866,0.6293,
2025-03-09 22:53:30.062,9.7400,0.1200,1.2100,6.8750,81.6875,10.0625,0.3757,-0.5537,0.3897,0.6327,
2025-03-09 22:53:30.072,9.6400,0.3500,1.5600,10.7500,86.0000,17.0625,0.3729,-0.5494,0.3931,0.6360,
2025-03-09 22:53:30.085,9.9600,0.5700,1.4600,12.6875,85.0625,19.6875,0.3698,-0.5450,0.3972,0.6391,
2025-03-09 22:53:30.092,10.2000,0.5500,1.4200,12.9375,72.1250,18.4375,0.3668,-0.5406,0.4015,0.6419,
2025-03-09 22:53:30.104,10.0000,0.4000,2.0700,13.3125,63.4375,16.4375,0.3641,-0.5368,0.4054,0.6441,
2025-03-09 22:53:30.115,9.9100,0.5200,2.1400,14.6875,68.8125,17.2500,0.3619,-0.5334,0.4088,0.6461,
2025-03-09 22:53:30.122,9.9500,0.5000,2.0800,14.1875,76.5625,15.6875,0.3596,-0.5297,0.4125,0.6481,
2025-03-09 22:53:30.132,10.1700,0.3200,1.8600,10.3750,77.3125,10.6875,0.3570,-0.5254,0.4163,0.6505,
2025-03-09 22:53:30.191,9.4700,0.1700,2.5400,8.0000,82.7500,11.9375,0.3515,-0.5170,0.4227,0.6561,
2025-03-09 22:53:30.191,9.8400,-0.0300,2.2800,10.8750,84.5000,15.5000,0.3485,-0.5125,0.4261,0.6591,
2025-03-09 22:53:30.191,9.5800,0.0800,2.3800,9.4375,80.8750,15.9375,0.3453,-0.5078,0.4299,0.6618,
2025-03-09 22:53:30.191,9.2800,0.1600,2.6200,15.5000,89.0625,12.6250,0.3423,-0.5034,0.4336,0.6644,
2025-03-09 22:53:30.206,9.0600,0.5000,3.4200,18.4375,87.5625,11.8125,0.3365,-0.4931,0.4414,0.6699,
2025-03-09 22:53:30.224,9.4100,-0.0900,3.5400,21.1250,96.4375,15.0000,0.3309,-0.4822,0.4494,0.6752,
2025-03-09 22:53:30.242,8.9000,0.0000,3.5100,18.0625,95.1250,26.5000,0.3243,-0.4704,0.4587,0.6805,
2025-03-09 22:53:30.258,8.7100,0.7000,3.8400,24.1875,104.0000,10.7500,0.3207,-0.4650,0.4635,0.6827,
2025-03-09 22:53:30.273,8.6500,0.2400,4.3100,22.1875,84.7500,-12.3125,0.3155,-0.4513,0.4711,0.6891,
2025-03-09 22:53:30.295,9.0200,-0.1200,4.2300,20.1250,95.9375,2.9375,0.3118,-0.4388,0.4763,0.6953,
2025-03-09 22:53:30.303,8.8800,0.4300,4.7400,18.5625,91.8125,9.0000,0.3090,-0.4324,0.4797,0.6982,
2025-03-09 22:53:30.326,8.3300,0.1600,4.8300,23.7500,107.6250,-10.8125,0.3033,-0.4194,0.4867,0.7038,
2025-03-09 22:53:30.345,8.0300,0.1300,4.9200,13.4375,102.9375,-1.9375,0.2977,-0.4043,0.4924,0.7110,
2025-03-09 22:53:30.358,7.8700,1.0500,5.5100,10.4375,100.6875,2.3750,0.2942,-0.3975,0.4953,0.7142,
2025-03-09 22:53:30.373,8.2400,0.7500,5.6700,7.0625,92.5625,-14.8125,0.2870,-0.3840,0.5008,0.7207,
2025-03-09 22:53:30.393,7.9700,0.3800,5.6100,4.2500,91.6875,-22.1250,0.2811,-0.3718,0.5034,0.7275,
2025-03-09 22:53:30.403,8.0500,0.3800,6.0500,7.8125,104.7500,-29.3125,0.2782,-0.3654,0.5044,0.7312,
2025-03-09 22:53:30.424,6.9300,0.6500,6.2300,8.6875,109.1250,-18.5625,0.2717,-0.3496,0.5064,0.7399,
2025-03-09 22:53:30.448,7.2300,0.6900,6.3000,1.0625,97.5000,-16.1250,0.2645,-0.3353,0.5096,0.7470,
2025-03-09 22:53:30.488,6.5500,0.3500,6.9200,0.0625,107.1250,-21.2500,0.2608,-0.3287,0.5107,0.7504,
2025-03-09 22:53:30.488,7.4000,0.5800,6.3900,-1.8750,114.2500,-13.8125,0.2517,-0.3130,0.5133,0.7584,
2025-03-09 22:53:30.492,6.4500,0.6000,6.7700,-8.2500,86.2500,-7.0625,0.2429,-0.3001,0.5159,0.7647,
2025-03-09 22:53:30.504,6.4400,0.2000,7.0200,-1.7500,102.9375,-6.4375,0.2390,-0.2951,0.5173,0.7670,
2025-03-09 22:53:30.524,6.5700,0.2400,7.1200,-4.5625,105.1875,-1.6875,0.2295,-0.2812,0.5206,0.7728,
2025-03-09 22:53:30.542,5.4200,0.6500,7.2500,-8.1250,105.4375,1.0000,0.2194,-0.2680,0.5242,0.7780,
2025-03-09 22:53:30.554,5.9500,0.6200,7.4100,-6.7500,99.1875,-4.8125,0.2143,-0.2612,0.5260,0.7805,
2025-03-09 22:53:30.575,6.5700,0.7800,8.4600,-2.5625,96.6875,2.3125,0.2050,-0.2488,0.5287,0.7852,
2025-03-09 22:53:30.599,6.0200,0.2300,8.1100,1.5000,109.0000,2.2500,0.1956,-0.2353,0.5324,0.7892,
2025-03-09 22:53:30.605,5.2600,0.4200,8.0200,-1.9375,113.2500,8.0000,0.1906,-0.2277,0.5346,0.7913,
2025-03-09 22:53:30.625,4.0200,0.9700,8.2000,-11.3125,104.5000,22.8125,0.1793,-0.2137,0.5395,0.7944,
2025-03-09 22:53:30.644,4.7800,0.7100,8.5000,-10.0625,101.3750,21.3125,0.1677,-0.2015,0.5451,0.7963,
2025-03-09 22:53:30.654,4.6300,0.3900,8.7400,-1.3125,100.5625,17.8750,0.1624,-0.1956,0.5476,0.7972,
2025-03-09 22:53:30.675,4.0800,0.1900,8.4600,7.3750,115.1875,25.8125,0.1522,-0.1816,0.5530,0.7988,
2025-03-09 22:53:30.691,4.6800,0.3000,8.9300,8.7500,110.6875,29.9375,0.1418,-0.1663,0.5598,0.7993,
2025-03-09 22:53:30.704,4.2600,0.4500,9.0400,-0.5625,97.2500,13.3750,0.1368,-0.1593,0.5623,0.7998,
2025-03-09 22:53:30.724,3.4300,-0.2100,8.7700,-0.1875,98.6250,17.4375,0.1271,-0.1464,0.5666,0.8009,
2025-03-09 22:53:30.744,3.2800,-0.0500,8.9900,-6.8125,94.8125,25.4375,0.1165,-0.1343,0.5717,0.8010,
2025-03-09 22:53:30.784,3.2500,0.3800,9.3700,-9.2500,95.8750,24.2500,0.1110,-0.1285,0.5742,0.8010,
2025-03-09 22:53:30.787,2.8400,0.5500,9.5200,-11.9375,106.3125,9.2500,0.0989,-0.1157,0.5775,0.8021,
2025-03-09 22:53:30.793,2.5100,0.3300,9.5200,-4.4375,104.6875,-0.9375,0.0876,-0.1020,0.5792,0.8040,
2025-03-09 22:53:30.805,2.5000,0.0900,9.5700,-1.1875,100.7500,-6.6875,0.0826,-0.0952,0.5795,0.8052,
2025-03-09 22:53:30.824,1.6700,-0.3900,9.2900,5.6875,94.8750,-20.0625,0.0739,-0.0816,0.5784,0.8083,
2025-03-09 22:53:30.856,1.1200,0.1600,9.1500,-0.5625,104.7500,-4.5625,0.0643,-0.0671,0.5782,0.8105,
2025-03-09 22:53:30.856,0.5800,0.1300,9.5700,-8.6875,100.8750,3.0625,0.0588,-0.0607,0.5790,0.8110,
2025-03-09 22:53:30.877,0.9700,0.4000,9.4500,-13.3750,120.7500,7.2500,0.0450,-0.0457,0.5811,0.8113,
2025-03-09 22:53:30.901,-0.0400,-0.0300,9.2700,-4.6875,105.8125,1.5625,0.0336,-0.0321,0.5819,0.8120,
2025-03-09 22:53:30.904,-0.0200,0.4000,9.3300,-6.0625,118.3750,7.3125,0.0273,-0.0243,0.5826,0.8119,
2025-03-09 22:53:30.927,0.3400,0.3600,9.9400,-17.1875,108.6250,19.5000,0.0141,-0.0106,0.5856,0.8104,
2025-03-09 22:53:30.944,-0.4700,0.1300,9.6400,3.6875,111.3750,0.2500,0.0028,0.0045,0.5864,0.8100,
2025-03-09 22:53:30.961,-0.7100,0.0900,9.5300,5.7500,108.4375,-2.2500,-0.0022,0.0121,0.5862,0.8101,
2025-03-09 22:53:30.974,-0.9800,0.3700,9.5100,-3.9375,119.6250,0.5000,-0.0139,0.0279,0.5860,0.8097,
2025-03-09 22:53:30.991,-1.3800,-0.1400,9.3400,-7.0625,103.0000,-3.3125,-0.0255,0.0420,0.5853,0.8093,
2025-03-09 22:53:31.006,-1.1900,-0.6900,9.3900,-7.0625,97.5000,-4.1250,-0.0308,0.0483,0.5848,0.8091,
2025-03-09 22:53:31.024,-1.9200,-0.6500,9.2000,-1.2500,93.3125,-3.6875,-0.0403,0.0609,0.5836,0.8088,
2025-03-09 22:53:31.034,-1.3500,-0.3200,9.5800,-10.8750,92.1250,10.5000,-0.0455,0.0667,0.5841,0.8077,
2025-03-09 22:53:31.046,-1.3900,0.3000,10.1400,-16.0000,93.4375,13.8125,-0.0511,0.0723,0.5847,0.8064,
2025-03-09 22:53:31.095,-1.6700,0.2100,10.0400,-11.0625,93.4375,9.3750,-0.0565,0.0782,0.5850,0.8053,
2025-03-09 22:53:31.095,-2.3100,-0.4000,9.1500,1.9375,101.1875,4.1250,-0.0663,0.0916,0.5847,0.8033,
2025-03-09 22:53:31.095,-2.2500,-0.2000,9.3700,2.5625,108.5625,4.6875,-0.0770,0.1071,0.5840,0.8010,
2025-03-09 22:53:31.106,-2.8200,-0.4600,9.1800,12.2500,94.2500,-3.6875,-0.0809,0.1141,0.5830,0.8003,
2025-03-09 22:53:31.117,-3.3800,-0.1900,8.3400,25.5000,97.3125,-6.4375,-0.0840,0.1218,0.5816,0.7999,
2025-03-09 22:53:31.121,-3.6300,0.0200,8.5800,23.8125,99.8750,-1.5625,-0.0873,0.1298,0.5806,0.7991,
2025-03-09 22:53:31.135,-4.1400,0.0900,8.3400,17.2500,89.9375,4.9375,-0.0905,0.1367,0.5800,0.7980,
2025-03-09 22:53:31.140,-3.5800,0.2900,8.6300,11.0625,85.9375,9.5000,-0.0938,0.1431,0.5798,0.7966,
2025-03-09 22:53:31.155,-3.6700,0.2400,8.7600,20.4375,77.9375,2.7500,-0.0963,0.1494,0.5792,0.7956,
2025-03-09 22:53:31.164,-3.7000,0.0600,8.7800,22.9375,71.7500,-3.3750,-0.0983,0.1553,0.5781,0.7950,
2025-03-09 22:53:31.174,-3.5400,0.1100,8.9500,20.8750,73.6875,-1.0000,-0.1005,0.1613,0.5771,0.7943,
2025-03-09 22:53:31.181,-3.7900,0.0600,8.8600,22.8750,76.3125,-0.2500,-0.1027,0.1675,0.5761,0.7934,
2025-03-09 22:53:31.196,-3.9000,-0.0300,8.7000,28.1250,78.4375,-0.8750,-0.1046,0.1741,0.5749,0.7926,
2025-03-09 22:53:31.202,-4.3100,0.0600,8.2800,31.5000,77.9375,-5.1250,-0.1063,0.1808,0.5734,0.7919,
2025-03-09 22:53:31.215,-4.6300,-0.1000,7.9400,33.0625,71.7500,-5.8125,-0.1077,0.1871,0.5719,0.7914,
2025-03-09 22:53:31.224,-4.6500,0.0000,8.0700,28.0000,65.0625,-2.8750,-0.1090,0.1928,0.5706,0.7908,
2025-03-09 22:53:31.234,-4.4800,0.3400,8.4700,18.1250,61.6875,2.4375,-0.1107,0.1979,0.5699,0.7898,
2025-03-09 22:53:31.243,-4.2900,0.5200,8.9300,11.1875,59.0625,7.0625,-0.1127,0.2024,0.5696,0.7886,
2025-03-09 22:53:31.256,-4.3800,0.7800,9.1800,10.5000,59.1875,5.5000,-0.1147,0.2069,0.5693,0.7874,
2025-03-09 22:53:31.266,-4.4000,0.7000,9.0800,14.5000,64.3125,0.5625,-0.1169,0.2118,0.5684,0.7864,
2025-03-09 22:53:31.276,-4.6900,0.4900,8.6900,17.2500,68.3125,-5.1875,-0.1191,0.2172,0.5671,0.7856,
2025-03-09 22:53:31.291,-5.0000,0.0500,8.1100,20.1250,71.6250,-9.6250,-0.1191,0.2172,0.5671,0.7856,
2025-03-09 22:53:31.292,-5.4300,0.0300,7.5200,22.2500,70.6250,-9.0000,-0.1213,0.2228,0.5653,0.7849,
2025-03-09 22:53:31.304,-5.4700,0.1300,7.4900,19.7500,61.6875,-2.6875,-0.1234,0.2285,0.5635,0.7842,
2025-03-09 22:53:31.316,-5.4800,0.4300,7.6900,15.6250,53.3125,2.7500,-0.1251,0.2335,0.5623,0.7833,
2025-03-09 22:53:31.322,-5.3200,0.8300,8.1600,13.7500,46.1875,5.1250,-0.1265,0.2377,0.5617,0.7823,
2025-03-09 22:53:31.332,-5.3300,0.8700,8.1200,13.8125,42.8750,3.7500,-0.1277,0.2415,0.5612,0.7813,
2025-03-09 22:53:31.387,-5.3900,0.8300,8.0300,15.3750,42.5000,0.6250,-0.1288,0.2450,0.5607,0.7804,
2025-03-09 22:53:31.388,-5.4900,0.6700,7.8600,14.8125,41.1875,-1.7500,-0.1298,0.2486,0.5600,0.7796,
2025-03-09 22:53:31.392,-5.7100,0.5700,7.4800,12.1875,39.6875,-2.2500,-0.1307,0.2520,0.5591,0.7790,
2025-03-09 22:53:31.392,-5.7100,0.5500,7.4900,11.1250,37.4375,-4.2500,-0.1319,0.2551,0.5582,0.7784,
2025-03-09 22:53:31.392,-5.6400,0.5600,7.7300,10.1250,32.9375,-6.5625,-0.1330,0.2581,0.5573,0.7779,
2025-03-09 22:53:31.394,-5.5700,0.5700,8.0100,8.8125,31.3125,-7.3125,-0.1340,0.2606,0.5563,0.7776,
2025-03-09 22:53:31.402,-5.6700,0.5200,7.9900,5.7500,31.8750,-6.1250,-0.1351,0.2630,0.5552,0.7774,
2025-03-09 22:53:31.412,-5.7800,0.4200,7.8900,0.4375,31.8750,-3.2500,-0.1364,0.2653,0.5543,0.7770,
2025-03-09 22:53:31.422,-5.7700,0.4200,7.8100,-5.1875,32.5000,2.1875,-0.1379,0.2674,0.5538,0.7764,
2025-03-09 22:53:31.437,-5.7700,0.5300,7.8400,-7.7500,31.8125,4.6250,-0.1397,0.2693,0.5537,0.7755,
2025-03-09 22:53:31.441,-5.7500,0.6200,7.9900,-7.9375,30.4375,5.6875,-0.1416,0.2711,0.5537,0.7745,
2025-03-09 22:53:31.452,-5.7000,0.6500,8.1000,-5.8750,29.6875,5.0625,-0.1435,0.2727,0.5539,0.7735,
2025-03-09 22:53:31.466,-5.7200,0.4800,7.9500,-2.8750,29.6250,3.8125,-0.1452,0.2744,0.5540,0.7725,
2025-03-09 22:53:31.475,-5.7200,0.7800,8.0700,-4.4375,37.5625,6.5000,-0.1467,0.2762,0.5539,0.7716,
2025-03-09 22:53:31.485,-6.0400,0.7200,7.7200,1.0000,40.1250,9.8750,-0.1486,0.2784,0.5540,0.7704,
2025-03-09 22:53:31.498,-6.0300,0.5400,7.9200,6.5000,29.7500,7.2500,-0.1502,0.2812,0.5541,0.7690,
2025-03-09 22:53:31.502,-5.9100,0.4600,8.0500,9.3750,32.7500,10.0000,-0.1511,0.2835,0.5540,0.7680,
2025-03-09 22:53:31.512,-6.3400,0.7000,7.5600,11.6875,41.2500,11.3750,-0.1518,0.2861,0.5540,0.7669,
2025-03-09 22:53:31.526,-6.3800,0.3400,7.6000,8.3125,41.1250,15.6875,-0.1527,0.2895,0.5540,0.7655,
2025-03-09 22:53:31.533,-6.0300,1.0500,7.8900,1.0000,45.1875,19.6250,-0.1537,0.2927,0.5542,0.7639,
2025-03-09 22:53:31.543,-6.4000,1.1500,7.5900,-2.9375,48.5000,22.0000,-0.1553,0.2960,0.5549,0.7618,
2025-03-09 22:53:31.556,-6.3500,0.8100,7.8200,-0.1250,33.3750,9.4375,-0.1572,0.2992,0.5557,0.7596,
2025-03-09 22:53:31.562,-6.3100,0.6800,7.7400,2.4375,30.5000,2.0000,-0.1585,0.3014,0.5559,0.7583,
2025-03-09 22:53:31.574,-6.3800,0.4900,7.5900,2.2500,31.5000,-0.3125,-0.1597,0.3036,0.5555,0.7574,
2025-03-09 22:53:31.591,-6.3500,0.7400,7.6600,0.2500,33.6875,3.7500,-0.1611,0.3057,0.5551,0.7567,
2025-03-09 22:53:31.592,-6.4000,0.7900,7.6200,-0.2500,38.8750,8.2500,-0.1625,0.3079,0.5548,0.7556,
2025-03-09 22:53:31.604,-6.5600,0.9900,7.2300,-0.3125,45.1250,10.5625,-0.1642,0.3104,0.5548,0.7542,
2025-03-09 22:53:31.615,-6.5800,0.9300,7.1900,1.8750,44.8125,11.4375,-0.1660,0.3134,0.5549,0.7526,
2025-03-09 22:53:31.622,-6.6000,0.8300,7.1400,6.1875,44.1250,8.3125,-0.1677,0.3165,0.5549,0.7508,
2025-03-09 22:53:31.632,-6.6900,0.7900,6.9700,9.0625,45.3750,5.3750,-0.1691,0.3197,0.5546,0.7494,
2025-03-09 22:53:31.646,-6.9400,0.8000,6.6700,8.6250,46.8750,5.5625,-0.1705,0.3231,0.5541,0.7480,
2025-03-09 22:53:31.696,-7.0400,1.1600,6.5500,5.8750,49.3750,6.8125,-0.1721,0.3265,0.5535,0.7466,
2025-03-09 22:53:31.697,-6.9800,1.2300,6.8200,2.8125,48.3125,5.7500,-0.1738,0.3300,0.5531,0.7450,
2025-03-09 22:53:31.697,-7.1400,1.1600,6.5200,0.2500,45.4375,2.9375,-0.1757,0.3333,0.5527,0.7434,
2025-03-09 22:53:31.697,-7.1800,0.8700,6.2200,2.3750,46.0000,-2.4375,-0.1777,0.3362,0.5522,0.7419,
2025-03-09 22:53:31.697,-7.2100,0.6500,6.1300,2.2500,44.5625,-5.8750,-0.1798,0.3391,0.5512,0.7408,
2025-03-09 22:53:31.706,-7.3500,0.5400,5.9900,-1.3750,41.8125,-6.4375,-0.1819,0.3419,0.5501,0.7398,
2025-03-09 22:53:31.714,-7.1500,0.4900,6.3500,-6.1250,40.7500,-4.3125,-0.1841,0.3444,0.5491,0.7389,
2025-03-09 22:53:31.722,-7.2700,0.5300,6.2900,-7.3125,39.8125,-4.6250,-0.1865,0.3466,0.5484,0.7378,
2025-03-09 22:53:31.740,-7.3800,0.5900,6.1900,-3.2500,40.0000,-5.6875,-0.1890,0.3486,0.5477,0.7368,
2025-03-09 22:53:31.742,-7.5900,0.9600,5.9500,-3.2500,40.6250,-3.3125,-0.1912,0.3509,0.5468,0.7358,
2025-03-09 22:53:31.767,-7.7100,0.9800,5.5100,-0.3125,34.6875,-4.0625,-0.1954,0.3555,0.5452,0.7336,
2025-03-09 22:53:31.778,-7.5400,0.9700,5.7100,-1.2500,28.6250,-4.6875,-0.1971,0.3576,0.5444,0.7327,
2025-03-09 22:53:31.782,-7.4700,0.8200,5.9000,-0.9375,22.5000,-6.4375,-0.1987,0.3592,0.5437,0.7321,
2025-03-09 22:53:31.796,-7.6100,0.7900,5.5700,1.6875,18.5000,-8.4375,-0.2000,0.3605,0.5429,0.7316,
2025-03-09 22:53:31.814,-7.7800,0.6300,5.0700,3.8125,11.1250,-10.1875,-0.2018,0.3625,0.5411,0.7315,
2025-03-09 22:53:31.836,-7.0600,0.6400,6.2600,1.9375,-2.5000,-11.1875,-0.2028,0.3634,0.5393,0.7321,
2025-03-09 22:53:31.859,-7.1100,0.3300,6.1200,6.3750,-1.9375,-8.0000,-0.2027,0.3627,0.5380,0.7334,
2025-03-09 22:53:31.862,-7.1000,0.4700,6.2100,6.3750,-1.9375,-8.0000,-0.2025,0.3627,0.5374,0.7340,
2025-03-09 22:53:31.887,-6.9900,0.5700,6.6700,0.5000,-5.6250,-2.5000,-0.2020,0.3627,0.5363,0.7349,
2025-03-09 22:53:31.930,-6.7600,0.4800,7.0500,-0.0625,-2.2500,-1.6250,-0.2016,0.3619,0.5361,0.7355,
2025-03-09 22:53:31.930,-7.2300,0.5000,6.3300,1.8750,4.4375,-2.6875,-0.2017,0.3619,0.5359,0.7356,
2025-03-09 22:53:31.986,-7.3000,0.5400,6.0700,0.5000,1.1250,-1.4375,-0.2020,0.3625,0.5353,0.7356,
2025-03-09 22:53:31.986,-7.3600,0.6100,6.2000,0.7500,2.3125,1.6250,-0.2021,0.3626,0.5352,0.7357,
2025-03-09 22:53:31.986,-7.5600,0.7700,5.9600,-1.1875,0.1875,2.2500,-0.2021,0.3630,0.5354,0.7353,
2025-03-09 22:53:32.007,-7.6800,1.0000,5.7600,1.0000,-8.5000,-3.7500,-0.2020,0.3627,0.5356,0.7353,
2025-03-09 22:53:32.013,-7.6100,0.7700,5.5900,2.2500,-15.1250,-5.1875,-0.2017,0.3622,0.5355,0.7358,
2025-03-09 22:53:32.037,-7.2200,0.5000,6.0400,4.8750,-25.8125,-4.2500,-0.2000,0.3599,0.5354,0.7374,
2025-03-09 22:53:32.054,-7.2600,0.3900,6.0100,3.3125,-36.2500,-0.6250,-0.1970,0.3569,0.5355,0.7396,
2025-03-09 22:53:32.066,-7.7100,-0.0100,5.1400,1.6250,-43.7500,1.3125,-0.1952,0.3547,0.5359,0.7408,
2025-03-09 22:53:32.085,-7.5900,0.5300,5.5800,-12.8750,-73.6250,14.0000,-0.1906,0.3484,0.5382,0.7434,
2025-03-09 22:53:32.103,-7.7700,0.8700,5.3300,-25.1875,-106.3125,18.5000,-0.1843,0.3372,0.5437,0.7462,
2025-03-09 22:53:32.144,-6.3300,1.2000,7.0600,-28.6875,-130.6875,7.1250,-0.1761,0.3210,0.5505,0.7502,
2025-03-09 22:53:32.146,-6.0200,1.0200,7.6700,-21.0625,-120.8125,-8.6875,-0.1675,0.3017,0.5565,0.7558,
2025-03-09 22:53:32.163,-6.2800,-0.2700,6.7800,-8.5000,-134.3125,-18.1250,-0.1588,0.2840,0.5591,0.7626,
2025-03-09 22:53:32.189,-6.3400,0.3100,6.3400,-11.3125,-157.8125,-3.0000,-0.1473,0.2648,0.5610,0.7704,
2025-03-09 22:53:32.205,-6.3800,0.5100,6.3300,-17.1250,-174.6250,2.3125,-0.1334,0.2417,0.5655,0.7772,
2025-03-09 22:53:32.224,-3.0500,0.8200,10.2400,-34.5625,-206.7500,-3.8125,-0.1258,0.2282,0.5681,0.7806,
2025-03-09 22:53:32.234,-2.4600,0.3300,11.7500,7.9375,-169.0625,-37.5625,-0.1104,0.1979,0.5715,0.7887,
2025-03-09 22:53:32.291,-3.6500,-0.6100,8.3800,31.3750,-144.4375,-43.9375,-0.0940,0.1781,0.5682,0.7979,
2025-03-09 22:53:32.297,-3.9800,-0.3900,7.7500,31.5000,-171.0625,-37.7500,-0.0847,0.1693,0.5659,0.8024,
2025-03-09 22:53:32.297,-3.7300,0.6200,7.8400,5.7500,-198.8125,-31.0000,-0.0651,0.1470,0.5626,0.8110,
2025-03-09 22:53:32.314,-1.5700,0.2100,9.5800,8.4375,-201.8125,-37.5625,-0.0459,0.1198,0.5596,0.8188,
2025-03-09 22:53:32.315,-1.4100,0.1800,9.3000,13.3750,-193.0000,-41.2500,-0.0359,0.1070,0.5571,0.8228,
2025-03-09 22:53:32.336,-0.7300,-0.3900,9.5900,6.1250,-179.5625,-25.3125,-0.0168,0.0814,0.5521,0.8297,
2025-03-09 22:53:32.352,0.1000,-0.6800,9.8800,-3.5000,-178.6875,-2.6250,-0.0002,0.0563,0.5504,0.8330,
2025-03-09 22:53:32.365,-0.2100,-0.0500,9.1300,-7.4375,-175.5625,22.1875,0.0075,0.0436,0.5511,0.8332,
2025-03-09 22:53:32.384,-0.1800,0.9300,8.9200,12.3125,-194.2500,5.2500,0.0240,0.0180,0.5535,0.8323,
2025-03-09 22:53:32.402,0.1900,0.9000,8.7900,8.8125,-206.8750,3.9375,0.0442,-0.0092,0.5530,0.8320,
2025-03-09 22:53:32.415,0.9200,0.6900,9.2700,-17.5625,-214.8750,19.0000,0.0540,-0.0245,0.5528,0.8312,
2025-03-09 22:53:32.433,2.7700,0.3700,10.4200,-19.6250,-205.8125,18.7500,0.0709,-0.0560,0.5531,0.8282,
2025-03-09 22:53:32.454,2.4900,0.2300,9.6100,4.9375,-174.0625,0.0625,0.0876,-0.0817,0.5513,0.8257,
2025-03-09 22:53:32.464,1.8900,0.7900,8.6600,14.3125,-165.8125,0.3750,0.0964,-0.0925,0.5501,0.8243,
2025-03-09 22:53:32.490,2.1400,0.8700,7.9800,18.3125,-176.6250,10.3125,0.1147,-0.1150,0.5485,0.8202,
2025-03-09 22:53:32.501,3.1300,0.8500,8.3200,38.1250,-193.2500,-5.1875,0.1367,-0.1383,0.5450,0.8155,
2025-03-09 22:53:32.514,3.5500,0.5400,8.4700,40.6875,-196.6875,-8.5000,0.1487,-0.1498,0.5426,0.8130,
2025-03-09 22:53:32.533,4.3200,-0.1800,8.3300,28.4375,-192.3750,10.0000,0.1708,-0.1736,0.5388,0.8065,
2025-03-09 22:53:32.589,4.8100,0.7800,8.0000,2.2500,-183.3125,34.1250,0.1879,-0.1986,0.5374,0.7978,
2025-03-09 22:53:32.592,5.0800,1.1200,8.1300,-3.5625,-183.7500,35.6250,0.1954,-0.2117,0.5367,0.7931,
2025-03-09 22:53:32.592,5.9300,1.4800,8.2900,8.3125,-177.8125,23.9375,0.2109,-0.2365,0.5344,0.7836,
2025-03-09 22:53:32.604,5.6600,1.0400,7.8300,20.1875,-167.2500,2.8750,0.2286,-0.2573,0.5298,0.7752,
2025-03-09 22:53:32.614,6.3000,0.8500,7.5300,16.0000,-160.6875,-3.3750,0.2369,-0.2670,0.5267,0.7714,
2025-03-09 22:53:32.636,6.5900,1.0100,7.5000,9.0625,-156.1875,-3.3750,0.2523,-0.2864,0.5203,0.7640,
2025-03-09 22:53:32.652,6.1900,0.8500,5.4800,7.9375,-152.3750,-9.6250,0.2670,-0.3047,0.5129,0.7568,
2025-03-09 22:53:32.667,6.4700,0.5500,5.3900,5.5625,-166.2500,-10.1875,0.2748,-0.3148,0.5086,0.7528,
2025-03-09 22:53:32.684,8.2600,0.6800,6.4200,-3.3750,-180.2500,-2.3750,0.2900,-0.3375,0.4995,0.7433,
2025-03-09 22:53:32.701,8.4900,1.2600,6.2900,-1.9375,-173.6875,11.3125,0.3041,-0.3600,0.4916,0.7323,
2025-03-09 22:53:32.718,8.2100,1.4200,5.2300,-0.8125,-170.0625,11.3125,0.3107,-0.3708,0.4879,0.7266,
2025-03-09 22:53:32.732,9.1600,1.6700,5.7200,-16.7500,-165.1875,8.6250,0.3224,-0.3925,0.4794,0.7157,
2025-03-09 22:53:32.745,9.2500,1.2800,5.6300,-14.4375,-157.6250,-0.1875,0.3279,-0.4025,0.4746,0.7108,
2025-03-09 22:53:32.762,9.1000,0.4300,4.3700,-0.3125,-148.0625,0.0000,0.3394,-0.4205,0.4658,0.7008,
2025-03-09 22:53:32.772,9.0300,0.4600,4.1900,5.1875,-150.5000,3.0625,0.3455,-0.4293,0.4618,0.6951,
2025-03-09 22:53:32.789,9.0300,0.6900,3.6100,4.5000,-150.5000,4.6250,0.3514,-0.4380,0.4578,0.6893,
2025-03-09 22:53:32.793,8.7600,0.6400,3.0800,2.5625,-149.5000,4.0000,0.3571,-0.4467,0.4537,0.6834,
2025-03-09 22:53:32.801,8.9900,1.0500,3.1400,-5.3125,-152.3750,8.9375,0.3623,-0.4560,0.4493,0.6774,
2025-03-09 22:53:32.838,9.9500,1.6300,3.6400,-12.4375,-153.1250,14.1875,0.3668,-0.4656,0.4450,0.6713,
2025-03-09 22:53:32.838,10.6600,2.2400,4.3200,-9.3750,-146.3750,3.8750,0.3716,-0.4744,0.4402,0.6656,
2025-03-09 22:53:32.838,10.7200,1.8000,4.0500,-2.8125,-132.1875,-12.1875,0.3768,-0.4814,0.4352,0.6609,
2025-03-09 22:53:32.848,10.5300,1.1900,3.4200,3.0000,-116.5625,-23.4375,0.3822,-0.4871,0.4303,0.6569,
2025-03-09 22:53:32.884,9.9300,0.4700,2.4700,4.1875,-106.3125,-25.9375,0.3874,-0.4920,0.4256,0.6533,
2025-03-09 22:53:32.886,9.5700,0.6000,2.1900,1.3750,-101.2500,-24.1250,0.3921,-0.4967,0.4210,0.6498,
2025-03-09 22:53:32.886,9.1100,0.6800,1.5500,0.3125,-97.5625,-20.6250,0.3964,-0.5013,0.4166,0.6465,
2025-03-09 22:53:32.886,8.6700,0.8100,1.2000,1.9375,-98.3750,-19.7500,0.4008,-0.5060,0.4123,0.6429,
2025-03-09 22:53:32.893,8.7000,0.9300,1.0000,3.1250,-105.5625,-15.3125,0.4053,-0.5111,0.4080,0.6388,
2025-03-09 22:53:32.904,9.3900,0.7400,1.3300,2.0000,-114.5000,-9.6250,0.4097,-0.5168,0.4036,0.6341,
2025-03-09 22:53:32.911,9.9700,0.6400,1.5700,-3.0000,-119.5000,-2.3750,0.4138,-0.5232,0.3992,0.6290,
2025-03-09 22:53:32.928,10.4500,1.1600,2.1700,-5.8750,-112.5000,0.1875,0.4172,-0.5294,0.3950,0.6243,
2025-03-09 22:53:32.933,10.0200,1.7100,1.6000,-8.1875,-104.4375,2.3125,0.4201,-0.5352,0.3911,0.6198,
2025-03-09 22:53:32.942,9.5600,2.0700,1.2600,-7.5000,-95.0000,0.0000,0.4229,-0.5404,0.3873,0.6157,
2025-03-09 22:53:32.951,9.4200,2.3100,1.1500,-4.3750,-89.7500,-5.1250,0.4258,-0.5450,0.3837,0.6119,
2025-03-09 22:53:32.967,9.8800,1.7400,1.1600,-1.8125,-87.5000,-11.6250,0.4258,-0.5450,0.3837,0.6119,
2025-03-09 22:53:32.971,9.9900,1.1600,0.9500,-1.6250,-82.5625,-20.0625,0.4291,-0.5492,0.3798,0.6083,
2025-03-09 22:53:32.982,10.0500,0.5700,0.4700,-1.3750,-74.6250,-24.5000,0.4326,-0.5527,0.3757,0.6052,
2025-03-09 22:53:32.999,9.7400,0.3400,0.0500,-1.9375,-68.2500,-21.9375,0.4360,-0.5557,0.3717,0.6025,
2025-03-09 22:53:33.001,9.4200,0.1700,-0.4800,-3.4375,-66.9375,-12.5000,0.4390,-0.5584,0.3679,0.6000,
2025-03-09 22:53:33.012,9.3400,0.3300,-0.7800,-6.0625,-68.4375,-0.6250,0.4415,-0.5615,0.3646,0.5974,
2025-03-09 22:53:33.026,9.7200,0.7300,-0.6700,-9.6875,-69.0625,11.2500,0.4434,-0.5651,0.3618,0.5944,
2025-03-09 22:53:33.039,10.7000,1.4900,0.1500,-10.3750,-69.5000,15.8750,0.4445,-0.5692,0.3593,0.5911,
2025-03-09 22:53:33.043,10.9600,1.4900,0.4000,-8.8125,-65.8750,14.8125,0.4453,-0.5736,0.3569,0.5876,
2025-03-09 22:53:33.055,11.1900,1.4300,0.5200,-8.7500,-54.9375,11.1250,0.4461,-0.5777,0.3547,0.5843,
2025-03-09 22:53:33.061,11.1500,1.4300,0.4300,-8.5000,-40.6875,6.8125,0.4467,-0.5811,0.3528,0.5817,
2025-03-09 22:53:33.074,10.4800,1.4900,-0.0500,-4.2500,-28.3750,1.9375,0.4472,-0.5836,0.3512,0.5798,
2025-03-09 22:53:33.091,10.1200,1.3800,-0.4100,1.1250,-19.9375,-1.8750,0.4478,-0.5852,0.3500,0.5784,
2025-03-09 22:53:33.093,9.9200,1.2900,-0.6000,2.5000,-15.8125,-3.1875,0.4485,-0.5861,0.3492,0.5775,
2025-03-09 22:53:33.108,9.5800,0.7700,-1.1600,5.7500,-14.1250,-3.9375,0.4492,-0.5866,0.3486,0.5767,
2025-03-09 22:53:33.116,9.4600,0.5600,-1.3600,10.3750,-15.3125,-5.4375,0.4501,-0.5870,0.3481,0.5759,
2025-03-09 22:53:33.126,9.4600,0.5100,-1.2700,10.9375,-18.2500,-4.8125,0.4514,-0.5872,0.3478,0.5749,
2025-03-09 22:53:33.134,9.6600,0.5300,-1.0600,8.7500,-21.2500,-0.5000,0.4526,-0.5876,0.3474,0.5737,
2025-03-09 22:53:33.145,10.0500,0.7600,-0.7000,5.0625,-20.8750,4.5625,0.4537,-0.5884,0.3470,0.5723,
2025-03-09 22:53:33.191,9.9900,0.8300,-0.7600,5.0000,-17.4375,7.3125,0.4543,-0.5894,0.3467,0.5709,
2025-03-09 22:53:33.191,9.9800,0.8200,-0.7900,5.1250,-13.5000,8.6875,0.4547,-0.5904,0.3466,0.5697,
2025-03-09 22:53:33.191,9.8700,1.3200,-0.6400,2.1250,-10.1875,11.6250,0.4550,-0.5912,0.3468,0.5685,
2025-03-09 22:53:33.191,9.6400,1.6300,-0.6100,-0.5000,-7.0625,12.1875,0.4548,-0.5921,0.3470,0.5676,
2025-03-09 22:53:33.194,9.4700,1.6600,-0.6900,-0.3125,-4.3125,8.3750,0.4544,-0.5929,0.3474,0.5669,
2025-03-09 22:53:33.205,9.4900,1.4700,-0.7300,-1.3750,-3.1250,4.3125,0.4540,-0.5935,0.3476,0.5664,
2025-03-09 22:53:33.213,9.9300,1.0400,-0.6100,-3.5625,-2.3125,2.8125,0.4538,-0.5938,0.3476,0.5662,
2025-03-09 22:53:33.229,9.9900,0.9700,-0.5800,-4.3125,-2.4375,1.2500,0.4536,-0.5941,0.3475,0.5662,
2025-03-09 22:53:33.240,10.0200,0.8600,-0.7000,-3.6250,-0.5625,0.4375,0.4534,-0.5944,0.3472,0.5661,
2025-03-09 22:53:33.243,9.7600,1.1000,-0.7400,-1.3125,3.1875,1.6875,0.4533,-0.5945,0.3471,0.5663,
2025-03-09 22:53:33.252,9.5900,1.2600,-0.6900,1.0625,5.0000,2.1250,0.4530,-0.5945,0.3472,0.5664,
2025-03-09 22:53:33.265,9.4200,1.2700,-0.7200,3.8750,6.1250,0.5000,0.4528,-0.5943,0.3475,0.5666,
2025-03-09 22:53:33.272,9.3400,1.1500,-0.7800,4.8125,7.0000,-1.5000,0.4528,-0.5939,0.3480,0.5668,
2025-03-09 22:53:33.285,9.3200,0.9900,-1.0100,1.2500,7.6250,-0.3750,0.4529,-0.5933,0.3485,0.5670,
2025-03-09 22:53:33.295,9.2900,1.0500,-1.1400,-2.9375,7.3125,1.5000,0.4528,-0.5929,0.3488,0.5673,
2025-03-09 22:53:33.308,9.1900,1.2200,-1.2200,-3.8125,5.7500,1.3750,0.4523,-0.5927,0.3490,0.5677,
2025-03-09 22:53:33.314,9.3000,1.0600,-1.1400,-2.3125,1.8750,0.3125,0.4519,-0.5926,0.3491,0.5681,
2025-03-09 22:53:33.332,9.7800,0.9900,-0.6500,-2.9375,-2.5625,0.4375,0.4517,-0.5926,0.3491,0.5683,
2025-03-09 22:53:33.332,9.9000,0.9900,-0.5600,-4.5000,-2.5625,1.1875,0.4517,-0.5928,0.3488,0.5683,
2025-03-09 22:53:33.346,10.0100,0.8500,-0.5800,-5.5625,-0.9375,1.6875,0.4515,-0.5931,0.3485,0.5683,
2025-03-09 22:53:33.356,10.1400,0.8400,-0.5600,-7.2500,1.1250,2.5625,0.4511,-0.5934,0.3483,0.5684,
2025-03-09 22:53:33.368,10.0800,0.8100,-0.7100,-7.8125,3.8125,3.2500,0.4506,-0.5936,0.3481,0.5687,
2025-03-09 22:53:33.375,9.9600,0.9700,-0.8300,-7.0000,6.8125,4.9375,0.4499,-0.5938,0.3480,0.5691,
2025-03-09 22:53:33.388,9.9000,1.2100,-0.7700,-5.5625,7.0000,5.8125,0.4492,-0.5939,0.3481,0.5695,
2025-03-09 22:53:33.393,9.8400,1.1300,-0.7000,-3.8750,5.6250,4.1250,0.4484,-0.5939,0.3484,0.5699,
2025-03-09 22:53:33.405,10.0000,1.0900,-0.6400,-2.9375,5.1250,2.7500,0.4478,-0.5939,0.3486,0.5702,
2025-03-09 22:53:33.422,10.1600,1.0100,-0.5000,-2.6250,4.7500,1.7500,0.4473,-0.5937,0.3489,0.5707,
2025-03-09 22:53:33.426,10.1700,0.8500,-0.5400,-0.8125,5.7500,-0.2500,0.4469,-0.5934,0.3491,0.5712,
2025-03-09 22:53:33.479,10.1600,0.8200,-0.6400,-0.1250,7.3750,-1.0625,0.4465,-0.5930,0.3494,0.5718,
2025-03-09 22:53:33.506,10.0100,0.7800,-0.7500,0.1875,9.0625,-0.6250,0.4462,-0.5925,0.3497,0.5723,
2025-03-09 22:53:33.506,9.9500,0.7100,-0.7400,0.7500,9.3750,0.1875,0.4459,-0.5919,0.3502,0.5729,
2025-03-09 22:53:33.506,9.6500,0.7200,-0.8100,0.8750,8.3125,1.6250,0.4457,-0.5915,0.3505,0.5733,
2025-03-09 22:53:33.506,9.5400,0.9200,-0.8300,-0.3750,7.2500,3.5625,0.4454,-0.5911,0.3510,0.5736,
2025-03-09 22:53:33.506,9.5200,1.1500,-0.7700,-3.0000,6.6250,6.3750,0.4450,-0.5909,0.3514,0.5739,
2025-03-09 22:53:33.506,9.7600,1.1000,-0.5400,-4.5000,4.6250,6.4375,0.4443,-0.5909,0.3519,0.5741,
2025-03-09 22:53:33.507,9.9700,1.0100,-0.3700,-5.5625,3.2500,5.1250,0.4437,-0.5911,0.3521,0.5743,
2025-03-09 22:53:33.526,10.0400,0.7200,-0.4200,-2.8750,5.6250,2.6875,0.4424,-0.5914,0.3522,0.5748,
2025-03-09 22:53:33.547,9.6300,0.8900,-0.6400,0.0625,7.9375,2.3750,0.4417,-0.5910,0.3527,0.5755,
2025-03-09 22:53:33.566,9.8000,1.0700,-0.4200,0.0000,5.8750,2.8750,0.4410,-0.5905,0.3536,0.5760,
2025-03-09 22:53:33.573,9.9600,1.0300,-0.2600,-1.6875,6.3750,2.5000,0.4407,-0.5903,0.3539,0.5763,
2025-03-09 22:53:33.595,9.9000,0.9500,-0.2900,-1.6875,8.2500,3.5000,0.4399,-0.5899,0.3545,0.5769,
2025-03-09 22:53:33.615,9.2800,1.0000,-0.6600,1.5625,10.8750,4.3125,0.4388,-0.5894,0.3555,0.5777,
2025-03-09 22:53:33.625,9.3300,0.9400,-0.6300,1.6250,9.3750,4.1250,0.4384,-0.5889,0.3561,0.5781,
2025-03-09 22:53:33.655,9.8000,0.7300,-0.2200,-2.5625,4.1875,5.5625,0.4375,-0.5884,0.3572,0.5785,
2025-03-09 22:53:33.662,9.8400,0.6700,-0.2100,-3.4375,4.9375,9.5625,0.4363,-0.5886,0.3579,0.5788,
2025-03-09 22:53:33.674,9.6900,0.7300,-0.4500,-4.6875,5.1875,14.3750,0.4356,-0.5888,0.3584,0.5789,
2025-03-09 22:53:33.706,9.6300,1.0000,-0.3900,-5.5000,3.4375,18.6250,0.4331,-0.5899,0.3599,0.5788,
2025-03-09 22:53:33.715,9.7000,0.9200,-0.3900,-2.3125,-0.2500,14.7500,0.4307,-0.5909,0.3613,0.5786,
2025-03-09 22:53:33.724,9.9400,0.4000,-0.3500,-1.4375,-2.1250,13.3750,0.4297,-0.5914,0.3620,0.5784,
2025-03-09 22:53:33.745,9.8000,0.3600,-0.4700,-1.1875,-1.0625,17.2500,0.4283,-0.5925,0.3632,0.5776,
2025-03-09 22:53:33.790,9.7500,0.6400,-0.4100,-4.8125,-4.0625,20.1250,0.4264,-0.5941,0.3647,0.5764,
2025-03-09 22:53:33.794,10.0400,0.7200,-0.1400,-4.8125,-4.0625,20.1250,0.4252,-0.5952,0.3654,0.5757,
2025-03-09 22:53:33.804,10.1700,0.0500,-0.3000,-2.8125,0.3125,15.5625,0.4233,-0.5969,0.3665,0.5746,
2025-03-09 22:53:33.815,10.1900,0.0000,-0.3600,-4.3125,1.8750,18.6250,0.4211,-0.5983,0.3678,0.5739,
2025-03-09 22:53:33.835,10.0300,0.1300,-0.4100,-1.9375,4.3125,17.3125,0.4198,-0.5990,0.3687,0.5736,
2025-03-09 22:53:33.848,10.0700,-0.0700,-0.4300,0.0000,4.4375,17.2500,0.4177,-0.5999,0.3705,0.5731,
2025-03-09 22:53:33.870,10.1900,-0.4800,-0.4100,1.6875,3.4375,20.1250,0.4156,-0.6008,0.3727,0.5723,
2025-03-09 22:53:33.877,10.0100,0.0400,-0.4600,5.1875,5.0625,25.4375,0.4143,-0.6013,0.3742,0.5716,
2025-03-09 22:53:33.897,9.6600,0.9900,-0.1300,1.1250,4.3750,18.6250,0.4119,-0.6023,0.3773,0.5703,
2025-03-09 22:53:33.917,9.6700,0.7200,-0.0900,2.5625,4.3125,11.2500,0.4103,-0.6028,0.3792,0.5697,
2025-03-09 22:53:33.934,9.8000,0.2200,-0.0600,-0.3125,7.3750,9.3750,0.4097,-0.6028,0.3799,0.5696,
2025-03-09 22:53:33.949,9.8500,-0.5300,-0.3500,1.2500,7.8750,15.5625,0.4083,-0.6027,0.3815,0.5697,
2025-03-09 22:53:33.962,9.7300,0.0100,-0.3400,2.0625,5.6875,16.9375,0.4063,-0.6031,0.3837,0.5692,
2025-03-09 22:53:33.976,9.7200,0.1000,-0.2600,4.1875,3.3125,12.4375,0.4057,-0.6033,0.3846,0.5688,
2025-03-09 22:53:33.997,10.2000,-0.3500,0.1200,3.0625,8.1250,18.6875,0.4045,-0.6034,0.3866,0.5681,
2025-03-09 22:53:34.022,10.0300,-0.6100,-0.2300,2.0000,11.1875,26.6875,0.4018,-0.6039,0.3897,0.5674,
2025-03-09 22:53:34.024,9.6600,-0.3300,-0.4100,1.5000,8.0000,34.3125,0.3998,-0.6044,0.3917,0.5668,
2025-03-09 22:53:34.085,9.5300,-0.0200,-0.2400,4.0000,0.6250,31.1250,0.3962,-0.6060,0.3955,0.5651,
2025-03-09 22:53:34.086,10.1500,-0.5100,0.2700,6.3125,1.4375,30.7500,0.3935,-0.6076,0.3991,0.5627,
2025-03-09 22:53:34.086,10.2000,-0.9800,0.0900,8.8750,8.6250,36.5000,0.3920,-0.6082,0.4012,0.5616,
2025-03-09 22:53:34.097,9.7300,-1.0200,-0.4300,0.8125,7.3125,49.5000,0.3879,-0.6095,0.4064,0.5593,
2025-03-09 22:53:34.111,9.5600,-0.4200,-0.2400,-1.3125,5.1250,51.4375,0.3823,-0.6122,0.4116,0.5565,
2025-03-09 22:53:34.125,9.7000,-0.3500,-0.0500,-2.0000,3.0000,50.4375,0.3795,-0.6138,0.4139,0.5549,
2025-03-09 22:53:34.144,10.2700,-1.0400,0.4900,2.1250,6.0625,43.2500,0.3746,-0.6161,0.4185,0.5522,
2025-03-09 22:53:34.165,10.2600,-1.5600,0.4500,6.5000,14.5625,42.5625,0.3698,-0.6172,0.4238,0.5502,
2025-03-09 22:53:34.176,10.1700,-1.7000,0.3300,9.8125,18.3750,47.0000,0.3672,-0.6174,0.4271,0.5492,
2025-03-09 22:53:34.198,9.2700,-2.1700,-0.8500,14.6875,19.8750,58.8125,0.3613,-0.6179,0.4350,0.5463,
2025-03-09 22:53:34.211,9.9400,-2.1600,0.0700,-0.2500,7.1875,76.4375,0.3532,-0.6210,0.4426,0.5419,
2025-03-09 22:53:34.226,10.2700,-2.3800,0.3900,-5.5000,6.2500,84.6875,0.3483,-0.6234,0.4464,0.5392,
2025-03-09 22:53:34.245,10.3000,-2.5700,0.5300,-2.0625,12.3125,95.8750,0.3372,-0.6281,0.4551,0.5335,
2025-03-09 22:53:34.267,10.0300,-3.0500,0.4400,13.0625,13.3750,107.4375,0.3258,-0.6321,0.4662,0.5263,
2025-03-09 22:53:34.273,9.8300,-3.2500,0.1200,18.2500,14.5625,116.9375,0.3198,-0.6339,0.4727,0.5220,
2025-03-09 22:53:34.293,9.1200,-4.0200,-0.7800,23.1250,7.2500,133.5000,0.3071,-0.6380,0.4871,0.5113,
2025-03-09 22:53:34.315,9.3100,-3.2200,0.1800,8.6875,-2.3125,151.6875,0.2919,-0.6446,0.5009,0.4983,
2025-03-09 22:53:34.323,9.5800,-3.4900,0.9300,8.9375,-1.6875,150.3125,0.2842,-0.6480,0.5077,0.4916,
2025-03-09 22:53:34.387,10.1600,-3.8700,1.8000,7.2500,12.4375,145.0625,0.2679,-0.6536,0.5208,0.4794,
2025-03-09 22:53:34.387,9.4100,-4.9400,0.9700,18.3750,39.4375,141.1250,0.2506,-0.6558,0.5353,0.4697,
2025-03-09 22:53:34.389,8.8300,-4.9300,0.5400,23.8750,46.9375,144.2500,0.2414,-0.6558,0.5433,0.4653,
2025-03-09 22:53:34.394,6.7600,-5.6200,-1.1200,37.2500,43.3125,153.1250,0.2231,-0.6549,0.5607,0.4549,
2025-03-09 22:53:34.411,6.8500,-5.4700,0.0000,5.4375,9.6250,174.2500,0.2037,-0.6582,0.5757,0.4403,
2025-03-09 22:53:34.423,7.2900,-5.8500,0.5800,-5.3750,-2.4375,182.7500,0.1935,-0.6616,0.5820,0.4313,
2025-03-09 22:53:34.442,8.0000,-6.9200,1.2900,-18.5625,-2.5625,196.5625,0.1709,-0.6696,0.5938,0.4121,
2025-03-09 22:53:34.456,7.5600,-6.8600,1.0200,-22.1250,2.0625,202.1250,0.1586,-0.6735,0.5995,0.4024,
2025-03-09 22:53:34.472,6.3900,-6.2700,0.6800,-30.5625,4.9375,205.5000,0.1327,-0.6812,0.6100,0.3825,
2025-03-09 22:53:34.496,5.6400,-5.5400,0.4900,-31.5625,2.0000,205.9375,0.1061,-0.6885,0.6193,0.3621,
2025-03-09 22:53:34.503,4.1300,-5.6800,0.0100,-18.8125,-11.0625,199.6250,0.0945,-0.6915,0.6241,0.3511,
2025-03-09 22:53:34.511,4.6800,-5.9800,0.5400,-15.0000,-24.0625,201.5000,0.0835,-0.6946,0.6290,0.3392,
2025-03-09 22:53:34.525,5.2400,-6.6200,1.1800,-16.3750,-33.3750,197.0625,0.0732,-0.6977,0.6333,0.3268,
2025-03-09 22:53:34.532,5.7500,-8.1200,1.3600,-13.7500,-32.7500,194.3750,0.0632,-0.7004,0.6376,0.3145,
2025-03-09 22:53:34.542,5.8800,-8.4200,1.4000,-8.3125,-24.1250,193.1250,0.0528,-0.7025,0.6420,0.3027,
2025-03-09 22:53:34.562,5.3600,-8.2800,1.3000,-2.2500,-13.3125,191.5000,0.0421,-0.7037,0.6466,0.2915,
2025-03-09 22:53:34.562,4.7400,-8.2700,0.8900,0.8750,-0.8125,194.0625,0.0306,-0.7042,0.6514,0.2808,
2025-03-09 22:53:34.574,3.5600,-7.9300,0.2100,-4.6250,5.8750,192.8125,0.0187,-0.7048,0.6556,0.2705,
2025-03-09 22:53:34.586,2.3900,-7.9900,-0.2700,-7.8750,1.5625,185.6250,0.0074,-0.7054,0.6592,0.2603,
2025-03-09 22:53:34.592,2.0700,-8.1300,-0.4100,-11.1250,-5.6875,186.9375,-0.0037,-0.7062,0.6626,0.2496,
2025-03-09 22:53:34.601,2.2800,-8.1000,0.1900,-16.5625,-15.0000,185.2500,-0.0142,-0.7073,0.6654,0.2383,
2025-03-09 22:53:34.614,2.6100,-8.2600,0.5100,-16.9375,-23.5000,183.4375,-0.0242,-0.7084,0.6681,0.2265,
2025-03-09 22:53:34.622,3.1900,-8.1900,1.2300,-18.5000,-29.1875,178.8125,-0.0336,-0.7095,0.6704,0.2146,
2025-03-09 22:53:34.634,3.2400,-8.3700,1.7200,-19.1875,-28.4375,169.8750,-0.0425,-0.7106,0.6723,0.2032,
2025-03-09 22:53:34.644,2.5800,-8.7200,1.2700,-16.9375,-13.2500,162.8125,-0.0518,-0.7111,0.6741,0.1931,
2025-03-09 22:53:34.697,2.2600,-8.5000,1.0000,-14.8125,3.8750,154.6250,-0.0616,-0.7112,0.6756,0.1844,
2025-03-09 22:53:34.713,1.5300,-8.3500,0.5000,-7.3750,13.1250,148.6250,-0.0714,-0.7105,0.6774,0.1767,
2025-03-09 22:53:34.713,0.8000,-8.4700,0.0900,-0.6250,14.9375,147.8750,-0.0811,-0.7094,0.6794,0.1691,
2025-03-09 22:53:34.713,0.4400,-8.8900,-0.0900,0.9375,11.5625,148.3125,-0.0906,-0.7081,0.6814,0.1613,
2025-03-09 22:53:34.713,0.0900,-9.3500,-0.3800,-3.0000,9.7500,157.0625,-0.0906,-0.7081,0.6814,0.1613,
2025-03-09 22:53:34.713,0.2500,-9.3500,-0.1500,-14.6250,5.8750,171.0625,-0.1006,-0.7069,0.6833,0.1528,
2025-03-09 22:53:34.718,0.0000,-8.6700,0.3300,-19.6875,-2.1250,169.7500,-0.1113,-0.7061,0.6845,0.1431,
2025-03-09 22:53:34.736,-0.1400,-8.8000,0.4700,-11.0625,-5.1250,161.3750,-0.1216,-0.7056,0.6853,0.1330,
2025-03-09 22:53:34.753,-0.5800,-8.9800,0.3400,-5.3125,-2.5625,151.6875,-0.1310,-0.7046,0.6865,0.1232,
2025-03-09 22:53:34.753,-1.2500,-9.4800,-0.2900,-4.8750,3.0000,151.1250,-0.1400,-0.7032,0.6877,0.1142,
2025-03-09 22:53:34.756,-1.4900,-9.3200,-0.4400,-8.0625,5.8125,157.5625,-0.1491,-0.7016,0.6887,0.1055,
2025-03-09 22:53:34.765,-1.9100,-9.2200,-0.5300,-7.7500,2.9375,159.5000,-0.1589,-0.7000,0.6895,0.0966,
2025-03-09 22:53:34.772,-2.0500,-8.8200,-0.3600,-5.8125,-4.1875,156.1250,-0.1685,-0.6982,0.6903,0.0873,
2025-03-09 22:53:34.784,-1.7100,-8.3900,0.5400,-3.8750,-10.6250,141.4375,-0.1775,-0.6963,0.6911,0.0779,
2025-03-09 22:53:34.796,-2.1300,-8.7400,0.4000,6.3125,-8.7500,127.8750,-0.1852,-0.6944,0.6919,0.0690,
2025-03-09 22:53:34.802,-2.7600,-8.9400,0.0000,10.6875,-1.3750,121.1875,-0.1921,-0.6921,0.6931,0.0611,
2025-03-09 22:53:34.828,-2.7000,-8.9500,-0.1800,9.3125,4.5625,124.8750,-0.1991,-0.6894,0.6943,0.0541,
2025-03-09 22:53:34.830,-2.3800,-8.8700,0.3600,7.1250,3.3750,130.5625,-0.2066,-0.6867,0.6954,0.0472,
2025-03-09 22:53:34.832,-2.9600,-8.2800,0.5600,9.5000,4.3750,133.4375,-0.2143,-0.6840,0.6962,0.0398,
2025-03-09 22:53:34.844,-3.3300,-8.3400,0.1500,5.3750,5.0625,136.8750,-0.2222,-0.6810,0.6970,0.0324,
2025-03-09 22:53:34.856,-4.1600,-7.4200,0.1800,9.0625,6.1875,123.0625,-0.2304,-0.6780,0.6976,0.0247,
2025-03-09 22:53:34.866,-4.4300,-7.5500,-0.0700,13.4375,8.8125,103.0625,-0.2378,-0.6750,0.6982,0.0180,
2025-03-09 22:53:34.876,-4.8900,-7.6300,-0.4000,10.0625,11.3125,91.0625,-0.2441,-0.6721,0.6989,0.0127,
2025-03-09 22:53:34.890,-4.8700,-7.5600,-0.5300,0.8125,10.1875,86.3125,-0.2499,-0.6696,0.6993,0.0082,
2025-03-09 22:53:34.893,-4.4900,-8.0900,-0.2200,-6.0000,1.5000,82.5625,-0.2554,-0.6677,0.6992,0.0037,
2025-03-09 22:53:34.903,-4.2400,-8.1700,0.0600,-6.7500,-6.1875,82.6250,-0.2602,-0.6663,0.6989,-0.0013,
2025-03-09 22:53:34.916,-4.2800,-7.5700,0.2600,-1.1250,-4.8125,82.0000,-0.2645,-0.6648,0.6986,-0.0067,
2025-03-09 22:53:34.921,-4.2800,-7.5900,0.4900,3.5625,-3.8750,82.1875,-0.2687,-0.6630,0.6986,-0.0118,
2025-03-09 22:53:34.933,-4.4200,-7.4700,0.3800,9.7500,1.0000,78.3750,-0.2731,-0.6610,0.6987,-0.0168,
2025-03-09 22:53:34.946,-4.5000,-7.6100,0.1100,13.3750,8.1250,77.8750,-0.2776,-0.6586,0.6991,-0.0211,
2025-03-09 22:53:34.991,-5.0300,-7.5700,-0.1400,12.0625,11.4375,81.3750,-0.2824,-0.6560,0.6995,-0.0250,
2025-03-09 22:53:34.991,-4.9300,-6.8600,0.0900,-4.0625,3.6875,85.7500,-0.2876,-0.6533,0.6998,-0.0288,
2025-03-09 22:53:34.994,-4.6200,-6.2900,0.9800,-9.0625,-7.5625,77.1250,-0.2925,-0.6514,0.6992,-0.0338,
2025-03-09 22:53:34.994,-4.9800,-6.2200,1.1500,2.0000,-11.0625,49.2500,-0.2963,-0.6500,0.6987,-0.0390,
2025-03-09 22:53:34.994,-5.5000,-6.3800,-0.0300,13.8750,-2.9375,28.7500,-0.2984,-0.6486,0.6989,-0.0424,
2025-03-09 22:53:35.005,-5.1600,-6.8100,0.2500,15.1250,-3.6875,19.3125,-0.2998,-0.6471,0.6996,-0.0439,
2025-03-09 22:53:35.012,-5.0900,-7.0700,0.5300,8.8750,-10.2500,18.9375,-0.3007,-0.6457,0.7004,-0.0449,
2025-03-09 22:53:35.026,-4.7900,-6.6600,0.7900,2.5000,-8.6250,22.0000,-0.3011,-0.6446,0.7012,-0.0464,
2025-03-09 22:53:35.036,-4.9200,-6.0300,0.6900,3.1875,-5.5000,15.6250,-0.3019,-0.6439,0.7014,-0.0481,
2025-03-09 22:53:35.043,-5.1500,-5.9300,0.5800,9.1875,-4.6250,1.5625,-0.3024,-0.6433,0.7017,-0.0493,
2025-03-09 22:53:35.054,-4.7800,-5.8000,0.9200,8.9375,-4.8125,-7.1875,-0.3023,-0.6427,0.7023,-0.0494,
2025-03-09 22:53:35.068,-4.9000,-6.6800,0.5700,6.1250,-3.3750,-11.6250,-0.3016,-0.6423,0.7029,-0.0489,
2025-03-09 22:53:35.072,-5.1100,-6.6900,0.3200,3.6250,0.3125,-13.0000,-0.3008,-0.6422,0.7034,-0.0483,
2025-03-09 22:53:35.095,-4.9900,-6.2400,0.6500,-4.6250,-2.0000,-11.3125,-0.2997,-0.6428,0.7034,-0.0470,
2025-03-09 22:53:35.102,-5.3500,-6.0500,0.3600,0.3750,-2.8125,-27.0000,-0.2990,-0.6433,0.7033,-0.0466,
2025-03-09 22:53:35.112,-4.9200,-6.0900,0.4400,3.3125,-2.5000,-44.0625,-0.2973,-0.6440,0.7034,-0.0451,
2025-03-09 22:53:35.127,-4.7400,-6.6200,0.4600,7.6250,-5.8125,-60.9375,-0.2948,-0.6449,0.7038,-0.0425,
2025-03-09 22:53:35.135,-4.7900,-7.1200,0.2700,13.0000,-7.7500,-69.5625,-0.2911,-0.6459,0.7046,-0.0390,
2025-03-09 22:53:35.142,-4.6000,-6.9800,0.3700,12.9375,-6.7500,-67.2500,-0.2869,-0.6468,0.7057,-0.0350,
2025-03-09 22:53:35.154,-4.6100,-6.7600,0.5500,8.6250,-9.6250,-65.4375,-0.2828,-0.6477,0.7068,-0.0310,
2025-03-09 22:53:35.165,-4.5500,-6.4800,0.6400,4.3125,-11.2500,-67.8750,-0.2787,-0.6487,0.7076,-0.0275,
2025-03-09 22:53:35.174,-4.2200,-6.1300,0.9700,1.9375,-12.1250,-74.7500,-0.2744,-0.6500,0.7083,-0.0239,
2025-03-09 22:53:35.189,-3.7900,-6.4400,1.1200,2.3750,-14.2500,-90.1875,-0.2695,-0.6515,0.7089,-0.0200,
2025-03-09 22:53:35.193,-3.9300,-7.3600,0.7900,9.1250,-13.3125,-109.5000,-0.2637,-0.6534,0.7094,-0.0154,
2025-03-09 22:53:35.204,-3.8500,-8.1100,0.3600,13.4375,-10.5625,-119.5000,-0.2568,-0.6553,0.7103,-0.0093,
2025-03-09 22:53:35.216,-3.3200,-7.7500,0.7800,8.7500,-10.5000,-118.2500,-0.2496,-0.6570,0.7114,-0.0024,
2025-03-09 22:53:35.233,-4.0800,-6.8200,0.4500,6.8750,-11.1875,-134.1875,-0.2349,-0.6611,0.7125,0.0110,
2025-03-09 22:53:35.246,-3.9400,-5.4800,0.6500,-3.0000,-14.8750,-140.1875,-0.2267,-0.6633,0.7130,0.0186,
2025-03-09 22:53:35.287,-3.2200,-5.1800,1.1900,-16.4375,-20.4375,-151.3125,-0.2180,-0.6661,0.7128,0.0261,
2025-03-09 22:53:35.295,-2.6900,-5.7800,1.3400,-18.9375,-25.0625,-179.1875,-0.2082,-0.6699,0.7118,0.0338,
2025-03-09 22:53:35.295,0.0500,-9.0600,1.5400,-21.8750,-14.9375,-213.5000,-0.1837,-0.6785,0.7092,0.0536,
2025-03-09 22:53:35.306,0.1900,-9.7000,0.6600,-9.0625,13.6875,-219.9375,-0.1580,-0.6872,0.7048,0.0778,
2025-03-09 22:53:35.324,-1.7600,-9.3900,-1.7300,28.4375,17.0000,-228.5625,-0.1343,-0.6925,0.7008,0.1060,
2025-03-09 22:53:35.336,-1.8700,-8.4800,-1.3600,32.3750,3.7500,-226.4375,-0.1217,-0.6931,0.7001,0.1208,
2025-03-09 22:53:35.355,0.1000,-7.2600,-0.1200,-23.8750,-55.0625,-170.1250,-0.0947,-0.6947,0.6981,0.1453,
2025-03-09 22:53:35.375,2.5400,-6.2600,1.9600,-59.0000,-79.5000,-192.1250,-0.0682,-0.7033,0.6900,0.1567,
2025-03-09 22:53:35.386,5.2300,-6.6700,3.0600,-45.3125,-62.8750,-229.1875,-0.0529,-0.7088,0.6843,0.1628,
2025-03-09 22:53:35.402,6.6100,-9.1500,2.6100,-1.5625,-1.2500,-300.6875,-0.0186,-0.7161,0.6728,0.1849,
2025-03-09 22:53:35.426,6.3700,-11.0200,1.2700,35.8125,56.6250,-287.9375,0.0168,-0.7143,0.6639,0.2209,
2025-03-09 22:53:35.433,4.0900,-10.2700,-1.2800,34.5000,55.5000,-250.8125,0.0316,-0.7106,0.6605,0.2403,
2025-03-09 22:53:35.456,2.9500,-7.4100,-0.7700,4.9375,12.2500,-170.5625,0.0548,-0.7040,0.6543,0.2708,
2025-03-09 22:53:35.472,2.6200,-6.8700,-1.1900,-15.7500,-7.6875,-163.0000,0.0739,-0.7019,0.6466,0.2897,
2025-03-09 22:53:35.488,4.0800,-5.7400,-0.4400,-25.6875,-23.1875,-169.4375,0.0836,-0.7018,0.6415,0.2982,
2025-03-09 22:53:35.506,7.6600,-6.0500,2.0300,-25.2500,-41.3125,-191.1250,0.1063,-0.7036,0.6287,0.3137,
2025-03-09 22:53:35.522,8.5200,-6.6800,2.2900,3.4375,-2.9375,-213.6875,0.1320,-0.7036,0.6149,0.3306,
2025-03-09 22:53:35.534,7.6700,-8.5000,-0.0700,16.5000,9.6875,-203.3125,0.1449,-0.7010,0.6091,0.3414,
2025-03-09 22:53:35.596,6.8100,-6.8700,-0.1300,0.1875,10.0000,-157.3750,0.1672,-0.6939,0.5996,0.3619,
2025-03-09 22:53:35.596,6.1100,-5.6500,-0.9100,-7.3125,9.1875,-137.3750,0.1832,-0.6893,0.5902,0.3780,
2025-03-09 22:53:35.596,6.4600,-4.7100,-0.5200,-17.3750,-7.5625,-131.2500,0.1902,-0.6878,0.5854,0.3848,
2025-03-09 22:53:35.607,9.2300,-6.3200,0.7100,-16.4375,-21.5000,-156.7500,0.2062,-0.6857,0.5739,0.3975,
2025-03-09 22:53:35.622,9.7500,-6.7800,0.7700,-16.3125,-18.2500,-150.5000,0.2248,-0.6830,0.5607,0.4105,
2025-03-09 22:53:35.639,9.0700,-5.0100,0.5200,-9.8750,4.9375,-132.0625,0.2327,-0.6811,0.5550,0.4170,
2025-03-09 22:53:35.654,8.7700,-4.2600,0.3600,-12.1875,19.2500,-118.5000,0.2454,-0.6765,0.5451,0.4301,
2025-03-09 22:53:35.676,7.8300,-3.4400,-0.5200,-6.8750,19.8125,-128.1250,0.2570,-0.6707,0.5358,0.4439,
2025-03-09 22:53:35.686,8.4500,-3.4900,-0.1800,-8.8125,5.8125,-140.4375,0.2637,-0.6674,0.5306,0.4511,
2025-03-09 22:53:35.704,9.8300,-5.3200,0.1900,-7.0625,0.9375,-128.9375,0.2786,-0.6617,0.5189,0.4641,
2025-03-09 22:53:35.728,10.3700,-5.2400,0.5900,-7.7500,4.3750,-114.5000,0.2913,-0.6563,0.5085,0.4753,
2025-03-09 22:53:35.734,10.0600,-4.3600,0.5300,-8.7500,23.8750,-82.9375,0.2947,-0.6539,0.5049,0.4803,
2025-03-09 22:53:35.755,8.6500,-2.3000,-0.2000,-4.4375,20.0000,-97.3750,0.3014,-0.6482,0.4983,0.4905,
2025-03-09 22:53:35.774,8.6200,-2.3100,-0.2600,-4.3125,12.5625,-106.0625,0.3108,-0.6420,0.4901,0.5011,
2025-03-09 22:53:35.794,9.3600,-3.1300,0.0600,-5.4375,3.8125,-110.0000,0.3162,-0.6389,0.4854,0.5062,
2025-03-09 22:53:35.814,9.8300,-3.5600,0.0100,-2.6875,1.4375,-92.2500,0.3272,-0.6332,0.4758,0.5153,
2025-03-09 22:53:35.826,9.5800,-2.3600,0.1400,-5.3125,3.2500,-86.1875,0.3361,-0.6284,0.4677,0.5229,
2025-03-09 22:53:35.838,9.5500,-1.9400,0.1900,-2.6875,-0.0625,-86.6875,0.3404,-0.6259,0.4639,0.5265,
2025-03-09 22:53:35.903,9.8400,-2.4000,0.1000,-3.2500,-0.0625,-82.5625,0.3491,-0.6212,0.4560,0.5333,
2025-03-09 22:53:35.903,10.2900,-2.5400,0.3800,-10.6875,-2.0625,-59.9375,0.3552,-0.6182,0.4489,0.5386,
2025-03-09 22:53:35.903,10.3000,-2.3400,0.2700,-8.3750,1.5625,-51.1875,0.3575,-0.6168,0.4462,0.5410,
2025-03-09 22:53:35.904,9.6700,-1.0200,0.1400,-2.0625,1.8125,-49.6875,0.3620,-0.6139,0.4415,0.5451,
2025-03-09 22:53:35.921,9.7500,-1.5100,0.1200,1.6875,-3.1250,-54.1875,0.3679,-0.6107,0.4365,0.5489,
2025-03-09 22:53:35.940,9.8600,-1.7400,0.1100,-2.0000,-5.4375,-47.8125,0.3705,-0.6095,0.4340,0.5504,
2025-03-09 22:53:35.955,9.9700,-1.3200,0.4300,-9.3125,-5.2500,-27.4375,0.3734,-0.6086,0.4298,0.5527,
2025-03-09 22:53:35.984,9.6000,-0.3900,0.4000,-1.3750,0.5625,-32.5625,0.3761,-0.6072,0.4265,0.5549,
2025-03-09 22:53:35.987,9.4400,-0.4500,0.1900,3.5000,-0.1250,-38.8125,0.3782,-0.6058,0.4249,0.5562,
2025-03-09 22:53:36.004,9.7400,-0.8100,0.1300,0.4375,-10.1250,-39.8125,0.3832,-0.6037,0.4207,0.5583,
2025-03-09 22:53:36.023,10.1700,-1.0100,0.5100,-3.5625,-12.2500,-25.5625,0.3868,-0.6032,0.4167,0.5593,
2025-03-09 22:53:36.033,10.3100,-1.0500,0.5200,0.1250,-7.2500,-18.9375,0.3881,-0.6029,0.4157,0.5596,
2025-03-09 22:53:36.056,9.6300,-0.8800,-0.0200,8.0000,0.5000,-13.0000,0.3902,-0.6016,0.4149,0.5601,
2025-03-09 22:53:36.064,9.3800,-0.7700,-0.2300,8.3750,-1.1875,-11.1875,0.3912,-0.6010,0.4147,0.5601,
2025-03-09 22:53:36.088,9.1800,-0.4300,-0.3800,8.5000,-9.4375,-10.0625,0.3936,-0.6004,0.4141,0.5596,
2025-03-09 22:53:36.108,9.6000,0.1200,0.1500,-0.9375,-16.8750,-4.6875,0.3953,-0.6014,0.4127,0.5584,
2025-03-09 22:53:36.127,9.7000,0.0300,0.1900,1.1250,-17.8750,-15.7500,0.3979,-0.6022,0.4103,0.5574,
2025-03-09 22:53:36.133,9.7300,-0.1000,0.1200,0.8750,-17.5625,-19.6250,0.3996,-0.6023,0.4088,0.5571,
2025-03-09 22:53:36.186,9.9700,-0.6300,-0.1400,0.6250,-17.0000,-15.6250,0.4028,-0.6026,0.4062,0.5564,
2025-03-09 22:53:36.192,10.0900,-0.5600,-0.0900,-1.8125,-15.7500,-9.9375,0.4037,-0.6031,0.4051,0.5561,
2025-03-09 22:53:36.192,10.0000,-0.1400,-0.0500,-0.3125,-13.5625,-6.8750,0.4045,-0.6035,0.4043,0.5556,
2025-03-09 22:53:36.192,9.9400,0.0000,-0.1000,2.1875,-11.6250,-6.8750,0.4054,-0.6037,0.4037,0.5552,
2025-03-09 22:53:36.212,9.3000,0.0500,-0.5300,-3.1875,-10.3125,-8.1250,0.4069,-0.6041,0.4021,0.5548,
2025-03-09 22:53:36.220,9.6800,-0.0200,-0.1400,-6.0625,-17.5625,-8.1875,0.4083,-0.6054,0.3996,0.5541,
2025-03-09 22:53:36.236,9.8300,-0.0700,-0.1300,-5.5000,-15.3125,-5.9375,0.4088,-0.6061,0.3986,0.5537,
2025-03-09 22:53:36.244,9.7800,-0.1400,-0.2500,-1.9375,-11.8750,-6.6875,0.4095,-0.6065,0.3977,0.5534,
2025-03-09 22:53:36.251,9.5900,-0.1500,-0.4600,1.6875,-9.8125,-10.2500,0.4103,-0.6064,0.3970,0.5534,
2025-03-09 22:53:36.266,9.5300,-0.2000,-0.5400,2.8125,-8.7500,-12.0625,0.4114,-0.6061,0.3964,0.5534,
2025-03-09 22:53:36.272,9.4900,-0.3500,-0.6800,1.8750,-9.7500,-12.8750,0.4125,-0.6061,0.3955,0.5533,
2025-03-09 22:53:36.282,9.6400,-0.3000,-0.5800,-2.2500,-12.6250,-11.6250,0.4134,-0.6064,0.3944,0.5531,
2025-03-09 22:53:36.299,9.7300,-0.0900,-0.3700,-5.9375,-15.7500,-10.6250,0.4142,-0.6069,0.3931,0.5528,
2025-03-09 22:53:36.301,9.7700,0.0100,-0.2800,-4.7500,-15.8125,-9.9375,0.4150,-0.6075,0.3918,0.5525,
2025-03-09 22:53:36.314,9.7500,0.1400,-0.3400,-1.8750,-12.3125,-10.3125,0.4158,-0.6075,0.3909,0.5526,
2025-03-09 22:53:36.324,9.9100,0.2300,-0.2900,-2.0625,-11.0625,-9.5000,0.4165,-0.6077,0.3899,0.5524,
2025-03-09 22:53:36.333,10.0400,0.2600,-0.1400,-0.9375,-9.6250,-8.5625,0.4172,-0.6079,0.3891,0.5522,
2025-03-09 22:53:36.343,10.0700,0.2400,-0.1400,2.0000,-6.5625,-8.6875,0.4180,-0.6079,0.3886,0.5521,
2025-03-09 22:53:36.354,10.0400,-0.0300,-0.3400,4.6875,-3.1875,-9.6250,0.4188,-0.6075,0.3882,0.5521,
2025-03-09 22:53:36.362,9.8600,0.0300,-0.3900,5.1250,-1.0000,-10.3125,0.4196,-0.6070,0.3880,0.5522,
2025-03-09 22:53:36.371,9.8100,0.1900,-0.4000,4.6250,0.0000,-9.0000,0.4203,-0.6065,0.3878,0.5523,
2025-03-09 22:53:36.386,9.6400,0.2800,-0.5200,6.3125,0.1250,-9.6250,0.4210,-0.6057,0.3878,0.5528,
2025-03-09 22:53:36.397,9.5200,0.1100,-0.7400,8.0625,-1.1250,-10.0625,0.4220,-0.6051,0.3876,0.5527,
2025-03-09 22:53:36.406,9.6600,0.0300,-0.7200,7.1875,-3.5625,-9.4375,0.4229,-0.6047,0.3875,0.5526,
2025-03-09 22:53:36.417,9.8000,-0.0400,-0.6200,4.9375,-4.8125,-7.6875,0.4237,-0.6045,0.3871,0.5524,
2025-03-09 22:53:36.421,10.1900,-0.1000,-0.2700,1.0625,-5.0625,-3.8125,0.4241,-0.6046,0.3868,0.5522,
2025-03-09 22:53:36.434,10.2000,-0.0300,-0.2400,-2.3750,-2.0625,-0.5625,0.4241,-0.6047,0.3867,0.5522,
2025-03-09 22:53:36.446,10.1400,0.1000,-0.2100,-4.8125,2.1875,2.6875,0.4237,-0.6049,0.3866,0.5524,
2025-03-09 22:53:36.470,10.0400,0.2700,-0.2100,-5.0625,5.7500,4.3750,0.4237,-0.6049,0.3866,0.5524,
2025-03-09 22:53:36.489,9.8700,0.0400,-0.3700,-3.5000,9.2500,3.8750,0.4230,-0.6049,0.3868,0.5528,
2025-03-09 22:53:36.489,9.9800,0.0300,-0.3500,-3.8125,12.7500,3.7500,0.4223,-0.6048,0.3871,0.5532,
2025-03-09 22:53:36.489,10.1700,-0.0500,-0.1800,-4.6250,13.8750,4.3750,0.4215,-0.6044,0.3875,0.5539,
2025-03-09 22:53:36.492,10.3600,-0.1000,-0.0300,-4.0000,16.5000,4.6250,0.4204,-0.6038,0.3882,0.5550,
2025-03-09 22:53:36.504,10.3800,-0.1300,0.0300,-3.0625,20.8750,6.3125,0.4192,-0.6029,0.3891,0.5562,
2025-03-09 22:53:36.516,10.3600,-0.0300,0.0700,-2.5625,27.4375,8.3125,0.4180,-0.6023,0.3899,0.5572,
2025-03-09 22:53:36.522,10.1800,0.0200,0.1000,-1.5625,34.8125,9.2500,0.4166,-0.6014,0.3912,0.5583,
2025-03-09 22:53:36.535,10.1400,0.0800,0.2000,0.3125,41.3125,10.3750,0.4149,-0.6001,0.3928,0.5599,
2025-03-09 22:53:36.541,10.2500,0.2100,0.5400,0.2500,45.4375,12.2500,0.4130,-0.5985,0.3947,0.5616,
2025-03-09 22:53:36.549,10.3600,0.3100,0.9200,-0.9375,51.3125,14.9375,0.4109,-0.5967,0.3969,0.5635,
2025-03-09 22:53:36.566,10.7300,0.0600,1.2800,-0.1875,61.0625,14.9375,0.4083,-0.5949,0.3993,0.5656,
2025-03-09 22:53:36.571,10.7400,-0.1100,1.2900,3.1875,70.8125,13.0625,0.4055,-0.5925,0.4021,0.5682,
2025-03-09 22:53:36.582,10.7700,-0.3400,1.3000,3.9375,83.1875,15.8750,0.4026,-0.5894,0.4053,0.5712,
2025-03-09 22:53:36.596,10.8000,-0.3100,1.3000,-2.6250,98.3125,21.1250,0.3992,-0.5857,0.4091,0.5746,
2025-03-09 22:53:36.604,10.4600,-0.0300,1.1700,-9.3750,112.5625,22.1875,0.3945,-0.5818,0.4133,0.5788,
2025-03-09 22:53:36.615,10.2100,0.3800,1.2400,-9.5000,123.0625,19.1250,0.3890,-0.5773,0.4177,0.5839,
2025-03-09 22:53:36.625,10.1800,0.4500,1.2600,2.5625,127.1250,13.1250,0.3833,-0.5721,0.4222,0.5895,
2025-03-09 22:53:36.632,9.7900,0.1300,0.9900,9.5000,128.8750,2.2500,0.3782,-0.5661,0.4271,0.5950,
2025-03-09 22:53:36.642,9.5800,0.2800,1.6300,-2.5625,131.8750,0.6875,0.3739,-0.5594,0.4317,0.6008,
2025-03-09 22:53:36.653,10.3200,0.1400,2.3700,-18.5000,134.9375,4.1875,0.3690,-0.5527,0.4358,0.6070,
2025-03-09 22:53:36.665,10.4700,-0.0100,2.8400,-20.6250,142.3750,0.0000,0.3628,-0.5466,0.4393,0.6137,
2025-03-09 22:53:36.672,10.4700,-0.5400,2.9900,-10.8750,157.4375,-4.5000,0.3564,-0.5400,0.4427,0.6208,
2025-03-09 22:53:36.685,10.5300,-0.9100,2.9000,1.5000,172.4375,-2.5625,0.3501,-0.5319,0.4467,0.6285,
2025-03-09 22:53:36.692,10.3600,-1.1300,2.8100,16.0000,183.0000,2.0625,0.3438,-0.5226,0.4516,0.6362,
2025-03-09 22:53:36.703,10.4300,-1.2000,3.0200,27.0000,189.5625,12.8750,0.3375,-0.5121,0.4577,0.6437,
2025-03-09 22:53:36.718,10.7500,-0.3800,3.9500,36.0625,197.4375,25.3125,0.3311,-0.5011,0.4649,0.6505,
2025-03-09 22:53:36.722,10.4300,0.1700,3.3300,43.7500,214.2500,22.3750,0.3242,-0.4894,0.4733,0.6568,
2025-03-09 22:53:36.732,9.8000,1.0000,3.5800,43.0000,228.5000,9.7500,0.3171,-0.4763,0.4821,0.6634,
2025-03-09 22:53:36.745,8.7600,1.6900,4.0000,43.5000,233.8750,-3.1875,0.3097,-0.4620,0.4904,0.6710,
2025-03-09 22:53:36.787,8.7500,1.4500,4.0000,46.1875,242.6250,-16.4375,0.3026,-0.4467,0.4979,0.6790,
2025-03-09 22:53:36.791,8.7700,0.7200,3.9100,42.9375,246.9375,-24.3750,0.2955,-0.4304,0.5048,0.6875,
2025-03-09 22:53:36.792,8.3700,0.0800,4.0000,36.8750,245.1250,-32.5625,0.2883,-0.4135,0.5111,0.6962,
2025-03-09 22:53:36.792,8.2400,-1.1300,4.7600,32.1875,241.2500,-31.0000,0.2810,-0.3966,0.5162,0.7051,
2025-03-09 22:53:36.792,8.3000,-1.2600,5.2900,23.2500,238.2500,-22.3125,0.2734,-0.3800,0.5211,0.7137,
2025-03-09 22:53:36.813,8.5400,-1.0800,5.8700,11.7500,238.0625,-9.3125,0.2650,-0.3640,0.5259,0.7216,
2025-03-09 22:53:36.813,7.7400,0.4000,6.1600,7.1250,245.1875,-0.9375,0.2553,-0.3487,0.5309,0.7290,
2025-03-09 22:53:36.823,6.9900,0.9700,5.6200,15.8125,259.7500,-0.5000,0.2447,-0.3332,0.5362,0.7359,
2025-03-09 22:53:36.835,6.3500,1.6100,5.6800,29.0625,269.8750,-11.5000,0.2339,-0.3163,0.5419,0.7427,
2025-03-09 22:53:36.841,5.5400,1.6000,5.5600,37.1875,265.6250,-23.6250,0.2236,-0.2977,0.5472,0.7496,
2025-03-09 22:53:36.852,5.2000,1.1200,6.4000,37.6250,258.4375,-29.5625,0.2142,-0.2786,0.5515,0.7565,
2025-03-09 22:53:36.866,5.3800,0.6700,7.1100,29.6250,247.0000,-29.8750,0.2053,-0.2598,0.5550,0.7631,
2025-03-09 22:53:36.874,5.6700,0.4300,7.9800,27.6250,238.0625,-32.0625,0.1962,-0.2419,0.5579,0.7692,
2025-03-09 22:53:36.882,5.1100,-0.0600,8.2000,28.9375,235.2500,-36.7500,0.1874,-0.2245,0.5602,0.7750,
2025-03-09 22:53:36.896,4.8600,0.0100,8.2400,34.5000,237.6875,-38.1875,0.1788,-0.2072,0.5620,0.7806,
2025-03-09 22:53:36.902,4.2700,0.5900,8.1200,30.8125,241.1250,-29.3125,0.1705,-0.1892,0.5635,0.7859,
2025-03-09 22:53:36.917,3.6100,1.0500,7.5900,33.3125,247.4375,-31.2500,0.1614,-0.1713,0.5654,0.7905,
2025-03-09 22:53:36.927,2.8800,1.3400,7.9400,34.2500,247.2500,-40.3125,0.1523,-0.1527,0.5671,0.7949,
2025-03-09 22:53:36.936,2.7000,1.3700,8.4400,33.0625,238.1875,-51.2500,0.1433,-0.1339,0.5678,0.7995,
2025-03-09 22:53:36.942,3.0300,1.0400,8.9600,36.5000,232.0000,-55.0000,0.1346,-0.1156,0.5675,0.8040,
2025-03-09 22:53:36.955,2.3400,0.1500,9.0900,43.2500,225.3750,-57.2500,0.1265,-0.0974,0.5666,0.8083,
2025-03-09 22:53:36.962,2.1100,0.1000,9.2100,38.6250,219.6250,-50.3125,0.1191,-0.0793,0.5654,0.8123,
2025-03-09 22:53:36.974,1.7200,0.2600,9.2200,31.6875,219.7500,-44.1250,0.1116,-0.0619,0.5643,0.8157,
2025-03-09 22:53:36.986,1.7200,0.6500,9.5700,28.5000,222.0625,-42.0000,0.1035,-0.0448,0.5634,0.8185,
2025-03-09 22:53:36.993,1.2700,1.1500,9.5600,33.6875,227.1875,-48.6250,0.0950,-0.0277,0.5624,0.8209,
2025-03-09 22:53:37.002,0.5900,0.7100,8.7300,51.8750,237.0000,-59.6250,0.0867,-0.0100,0.5609,0.8233,
2025-03-09 22:53:37.022,-0.1600,0.8600,8.4300,58.3125,237.1250,-61.6875,0.0791,0.0094,0.5584,0.8258,
2025-03-09 22:53:37.022,-0.4100,1.3400,9.0100,46.6250,228.0000,-54.1250,0.0719,0.0291,0.5555,0.8279,
2025-03-09 22:53:37.045,-1.8300,1.1500,8.7200,43.4375,221.0625,-53.7500,0.0565,0.0652,0.5504,0.8304,
2025-03-09 22:53:37.086,-1.9400,0.8900,8.7100,38.9375,213.8750,-51.8750,0.0489,0.0830,0.5473,0.8314,
2025-03-09 22:53:37.094,-2.1400,1.2700,9.1400,29.0625,204.1250,-38.5000,0.0336,0.1161,0.5416,0.8319,
2025-03-09 22:53:37.094,-3.0700,1.2900,8.5100,33.0625,199.6875,-38.9375,0.0184,0.1477,0.5363,0.8308,
2025-03-09 22:53:37.113,-2.9100,2.1800,9.1200,19.0625,192.4375,-31.3750,0.0039,0.1781,0.5307,0.8286,
2025-03-09 22:53:37.137,-3.8800,2.0400,8.5300,15.3750,186.8125,-30.1875,-0.0117,0.2064,0.5256,0.8252,
2025-03-09 22:53:37.143,-4.3900,2.0200,8.1500,11.7500,182.6875,-23.8125,-0.0194,0.2200,0.5230,0.8232,
2025-03-09 22:53:37.166,-5.2100,2.0600,7.9200,-8.8125,164.3750,-5.1875,-0.0349,0.2452,0.5193,0.8179,
2025-03-09 22:53:37.194,-6.1000,2.2200,7.0800,-10.2500,151.6250,-10.3750,-0.0508,0.2665,0.5179,0.8113,
2025-03-09 22:53:37.196,-6.0400,2.3100,7.0700,-5.2500,142.3750,-17.6875,-0.0583,0.2764,0.5167,0.8082,
2025-03-09 22:53:37.220,-6.2000,1.9700,7.2700,-3.9375,123.5625,-23.5625,-0.0718,0.2946,0.5125,0.8034,
2025-03-09 22:53:37.236,-6.1200,1.7600,7.0700,-5.8125,112.0000,-22.3750,-0.0841,0.3102,0.5081,0.7991,
2025-03-09 22:53:37.243,-5.7600,1.3900,7.4500,-6.6250,101.8125,-18.1250,-0.0899,0.3173,0.5059,0.7970,
2025-03-09 22:53:37.263,-5.9700,1.4200,7.2200,-4.2500,95.9375,-12.0000,-0.1000,0.3298,0.5024,0.7930,
2025-03-09 22:53:37.294,-5.9400,1.5100,7.3000,-12.2500,94.1250,-4.0625,-0.1096,0.3419,0.4998,0.7882,
2025-03-09 22:53:37.295,-6.3900,1.2500,6.9000,-9.7500,94.2500,-5.2500,-0.1145,0.3476,0.4990,0.7855,
2025-03-09 22:53:37.324,-7.1600,1.2800,6.1800,-17.6250,91.6875,2.2500,-0.1240,0.3591,0.4971,0.7801,
2025-03-09 22:53:37.332,-7.0700,1.4800,6.4700,-20.4375,81.0000,0.7500,-0.1338,0.3691,0.4969,0.7739,
2025-03-09 22:53:37.346,-7.3800,1.3100,6.1900,-15.5000,81.8125,-4.0000,-0.1385,0.3735,0.4966,0.7711,
2025-03-09 22:53:37.388,-7.7700,1.0800,5.6300,-19.9375,70.0625,-3.6875,-0.1475,0.3826,0.4951,0.7659,
2025-03-09 22:53:37.388,-7.5600,1.1500,5.9900,-18.5000,59.1250,-4.1250,-0.1557,0.3893,0.4942,0.7616,
2025-03-09 22:53:37.394,-7.6400,1.0800,6.0300,-14.0625,45.2500,-2.2500,-0.1587,0.3918,0.4936,0.7600,
2025-03-09 22:53:37.413,-7.7300,1.1500,5.9500,-13.1250,39.6250,-1.7500,-0.1645,0.3962,0.4933,0.7567,
2025-03-09 22:53:37.436,-7.6300,0.8400,5.7600,-3.8750,36.6250,-6.0625,-0.1694,0.4003,0.4921,0.7542,
2025-03-09 22:53:37.445,-7.9100,0.6400,5.4100,3.7500,27.4375,-4.3125,-0.1711,0.4023,0.4910,0.7535,
2025-03-09 22:53:37.466,-8.2700,1.2400,5.2200,-4.4375,19.9375,3.0000,-0.1733,0.4058,0.4899,0.7519,
2025-03-09 22:53:37.484,-8.2300,1.2900,5.4100,-4.5000,9.8750,3.4375,-0.1749,0.4074,0.4902,0.7504,
2025-03-09 22:53:37.497,-8.1100,1.3300,5.4900,-1.3750,-1.2500,0.6250,-0.1752,0.4075,0.4904,0.7502,
2025-03-09 22:53:37.517,-8.1200,0.9000,4.9500,-3.5000,-13.5000,0.3125,-0.1750,0.4070,0.4905,0.7504,
2025-03-09 22:53:37.537,-7.7200,1.0800,5.8800,-5.7500,-22.0000,2.0625,-0.1747,0.4050,0.4911,0.7512,
2025-03-09 22:53:37.545,-7.6800,1.1100,5.9900,-7.2500,-27.5625,3.6250,-0.1740,0.4031,0.4920,0.7518,
2025-03-09 22:53:37.564,-7.9300,1.1900,5.8800,1.0625,-37.0000,-1.1250,-0.1721,0.3990,0.4935,0.7534,
2025-03-09 22:53:37.586,-8.7100,1.3400,4.9200,5.3125,-47.8750,-3.4375,-0.1683,0.3937,0.4943,0.7565,
2025-03-09 22:53:37.595,-8.5200,1.4200,5.0600,12.7500,-88.9375,-5.3125,-0.1651,0.3899,0.4945,0.7591,
2025-03-09 22:53:37.617,-7.8700,0.1800,5.1200,38.1250,-126.4375,-7.8125,-0.1548,0.3784,0.4952,0.7665,
2025-03-09 22:53:37.634,-7.4000,-0.3800,4.9600,44.6875,-145.0000,0.0625,-0.1383,0.3641,0.4955,0.7764,
2025-03-09 22:53:37.646,-7.1800,0.0000,5.2300,46.1250,-183.3750,19.5000,-0.1277,0.3553,0.4965,0.7816,
2025-03-09 22:53:37.670,-6.3900,1.1400,6.7100,24.4375,-194.3750,32.1875,-0.1056,0.3337,0.5016,0.7911,
2025-03-09 22:53:37.690,-5.7400,1.3000,6.7700,-2.8750,-202.0625,34.8750,-0.0864,0.3073,0.5098,0.7989,
2025-03-09 22:53:37.694,-5.3800,1.1700,6.6300,-1.7500,-206.6250,25.2500,-0.0769,0.2935,0.5129,0.8030,
2025-03-09 22:53:37.725,-4.0200,1.6200,7.7800,4.4375,-229.1250,13.6250,-0.0564,0.2636,0.5173,0.8123,
2025-03-09 22:53:37.734,-3.1600,1.8400,8.2500,-0.2500,-248.6875,18.5000,-0.0341,0.2300,0.5216,0.8209,
2025-03-09 22:53:37.747,-2.7400,1.8600,8.3900,3.0000,-254.6875,21.1250,-0.0223,0.2125,0.5236,0.8248,
2025-03-09 22:53:37.766,-1.9400,1.5100,8.0200,12.8125,-262.8750,13.5000,0.0029,0.1768,0.5259,0.8320,
2025-03-09 22:53:37.780,-1.2000,1.4300,7.8400,28.3125,-273.5000,14.3125,0.0306,0.1410,0.5262,0.8380,
2025-03-09 22:53:37.799,-0.9200,1.9200,8.1300,16.0625,-283.1250,34.3750,0.0448,0.1216,0.5276,0.8396,
2025-03-09 22:53:37.815,-0.4600,2.3200,8.2200,-0.7500,-284.2500,47.3125,0.0715,0.0811,0.5312,0.8403,
2025-03-09 22:53:37.833,0.5900,2.9400,7.5900,-15.5000,-304.5000,49.3125,0.0969,0.0372,0.5341,0.8390,
2025-03-09 22:53:37.847,1.6300,3.0300,8.2700,-17.3750,-317.0625,45.5000,0.1101,0.0136,0.5346,0.8378,
2025-03-09 22:53:37.862,4.5000,1.5200,9.7600,-16.6250,-307.1875,48.5000,0.1359,-0.0330,0.5345,0.8335,
2025-03-09 22:53:37.882,5.0900,0.5700,9.0900,-15.6875,-279.4375,67.3125,0.1588,-0.0761,0.5360,0.8256,
2025-03-09 22:53:37.893,4.5500,0.1300,7.3200,-17.1250,-273.4375,79.8750,0.1694,-0.0970,0.5377,0.8203,
2025-03-09 22:53:37.917,5.1800,0.5600,6.9700,-33.2500,-283.2500,100.8750,0.1891,-0.1410,0.5419,0.8066,
2025-03-09 22:53:37.931,5.6700,2.5900,7.0900,-31.3750,-285.0000,89.0000,0.2081,-0.1857,0.5442,0.7912,
2025-03-09 22:53:37.948,5.7400,3.1500,7.0100,-28.3750,-282.5000,71.1875,0.2181,-0.2071,0.5434,0.7837,
2025-03-09 22:53:37.987,7.2500,2.4200,7.4100,-31.0000,-282.1250,47.1250,0.2382,-0.2485,0.5380,0.7694,
2025-03-09 22:53:37.989,8.5700,1.3400,7.3800,-38.0000,-273.1250,48.7500,0.2471,-0.2689,0.5348,0.7620,
2025-03-09 22:53:37.992,9.9000,-0.3200,7.1900,-21.0000,-236.1875,32.0000,0.2641,-0.3044,0.5273,0.7480,
2025-03-09 22:53:38.012,9.4600,-0.9200,5.8600,-16.1875,-202.6875,51.4375,0.2780,-0.3339,0.5224,0.7337,
2025-03-09 22:53:38.022,9.2300,-0.8600,5.3700,-13.5000,-196.7500,60.8125,0.2841,-0.3481,0.5211,0.7257,
2025-03-09 22:53:38.047,8.1200,0.6200,4.2400,-16.6875,-194.2500,68.4375,0.2952,-0.3762,0.5187,0.7087,
2025-03-09 22:53:38.066,9.0200,1.4300,4.7200,-22.3125,-201.5625,63.5625,0.3057,-0.4049,0.5151,0.6909,
2025-03-09 22:53:38.072,10.3100,0.8900,5.4200,-30.3125,-197.5000,60.1875,0.3105,-0.4192,0.5124,0.6821,
2025-03-09 22:53:38.081,10.7100,0.9200,5.4900,-29.1250,-181.7500,49.8750,0.3149,-0.4322,0.5094,0.6742,
2025-03-09 22:53:38.094,10.5000,0.8600,5.2900,-15.2500,-162.0000,28.1250,0.3199,-0.4428,0.5061,0.6674,
2025-03-09 22:53:38.102,9.0800,0.9700,3.8900,-7.8125,-141.8750,11.0000,0.3251,-0.4514,0.5026,0.6618,
2025-03-09 22:53:38.112,9.0100,0.8400,3.4900,-9.3125,-133.2500,3.3750,0.3301,-0.4593,0.4987,0.6568,
2025-03-09 22:53:38.126,8.9400,0.6200,3.1400,-14.3125,-132.3750,0.3750,0.3348,-0.4672,0.4944,0.6520,
2025-03-09 22:53:38.132,9.0300,0.4200,2.9300,-19.3750,-131.8125,0.7500,0.3392,-0.4753,0.4899,0.6473,
2025-03-09 22:53:38.144,9.7100,0.0600,3.2200,-21.0000,-131.1250,1.0625,0.3434,-0.4833,0.4853,0.6426,
2025-03-09 22:53:38.158,9.7700,0.0200,3.1800,-18.4375,-125.6875,-0.5625,0.3475,-0.4909,0.4809,0.6379,
2025-03-09 22:53:38.161,9.9200,-0.0200,3.0100,-12.8750,-117.2500,-3.3750,0.3517,-0.4976,0.4767,0.6335,
2025-03-09 22:53:38.171,9.9600,0.0000,2.6400,-8.1875,-110.7500,-7.5000,0.3561,-0.5036,0.4727,0.6294,
2025-03-09 22:53:38.185,9.8700,0.2000,2.4100,-3.6250,-103.0625,-11.8125,0.3605,-0.5089,0.4688,0.6256,
2025-03-09 22:53:38.192,9.6000,0.3700,2.0700,3.3750,-95.2500,-19.3750,0.3652,-0.5132,0.4650,0.6221,
2025-03-09 22:53:38.202,9.3200,0.2900,1.4500,5.5625,-90.0625,-26.0000,0.3702,-0.5168,0.4610,0.6191,
2025-03-09 22:53:38.216,9.1300,0.5100,1.3300,1.9375,-88.3750,-28.1875,0.3750,-0.5205,0.4569,0.6162,
2025-03-09 22:53:38.224,9.3500,0.4600,1.4800,0.8125,-89.6875,-26.9375,0.3796,-0.5243,0.4526,0.6133,
2025-03-09 22:53:38.232,9.7400,0.2600,1.7000,-2.4375,-91.3750,-22.6250,0.3840,-0.5284,0.4484,0.6102,
2025-03-09 22:53:38.292,10.3700,0.1700,2.1800,-4.1875,-86.7500,-19.9375,0.3879,-0.5323,0.4444,0.6072,
2025-03-09 22:53:38.292,10.6900,-0.1400,2.1800,-2.3125,-79.5000,-21.0625,0.3918,-0.5358,0.4406,0.6044,
2025-03-09 22:53:38.296,10.9500,-0.5100,2.1200,-4.2500,-69.0625,-20.1250,0.3950,-0.5388,0.4371,0.6022,
2025-03-09 22:53:38.296,11.2400,-0.7300,2.1400,-9.8125,-56.7500,-13.8750,0.3950,-0.5388,0.4371,0.6022,
2025-03-09 22:53:38.296,11.1200,-0.6600,1.8000,-11.8750,-42.8750,-8.2500,0.3973,-0.5416,0.4340,0.6004,
2025-03-09 22:53:38.297,10.6600,-0.3500,1.5200,-13.6250,-29.0625,-2.5625,0.3986,-0.5439,0.4316,0.5992,
2025-03-09 22:53:38.306,10.3100,-0.0500,1.3000,-11.5625,-18.8125,1.5000,0.3991,-0.5458,0.4299,0.5984,
2025-03-09 22:53:38.316,10.0200,0.1400,1.0800,-6.5000,-14.0000,3.0625,0.3991,-0.5472,0.4288,0.5978,
2025-03-09 22:53:38.327,9.6400,0.3500,0.7300,-0.1875,-11.8125,2.5625,0.3991,-0.5483,0.4282,0.5973,
2025-03-09 22:53:38.332,9.5200,0.4400,0.6800,4.6250,-10.5000,0.8750,0.3995,-0.5489,0.4279,0.5967,
2025-03-09 22:53:38.347,9.5700,0.5000,0.7700,7.8750,-9.8750,0.6250,0.4000,-0.5493,0.4278,0.5960,
2025-03-09 22:53:38.355,9.6400,0.4400,0.8500,7.3125,-9.1250,0.3750,0.4007,-0.5496,0.4278,0.5953,
2025-03-09 22:53:38.362,9.7500,0.4800,0.9900,4.3750,-7.7500,2.5625,0.4014,-0.5497,0.4279,0.5946,
2025-03-09 22:53:38.372,9.8200,0.4500,1.0700,0.9375,-5.5000,3.1250,0.4018,-0.5501,0.4279,0.5940,
2025-03-09 22:53:38.401,9.7600,0.5000,1.1000,-2.6250,-2.1875,3.8125,0.4019,-0.5504,0.4280,0.5936,
2025-03-09 22:53:38.401,9.6300,0.6700,1.1200,-4.8125,1.5625,3.3750,0.4017,-0.5508,0.4280,0.5934,
2025-03-09 22:53:38.402,9.6300,0.6300,1.0400,-3.1875,4.0625,1.6875,0.4014,-0.5505,0.4278,0.5940,
2025-03-09 22:53:38.411,9.6100,0.4600,0.9000,0.0625,5.6875,-0.6250,0.4012,-0.5500,0.4277,0.5947,
2025-03-09 22:53:38.426,9.5400,0.2900,0.7300,1.1875,7.0000,-0.1875,0.4011,-0.5494,0.4277,0.5952,
2025-03-09 22:53:38.432,9.4100,0.2800,0.5700,2.0625,8.5000,1.0000,0.4010,-0.5488,0.4280,0.5957,
2025-03-09 22:53:38.458,9.4200,0.2600,0.5400,0.0625,8.2500,1.9375,0.4007,-0.5484,0.4284,0.5959,
2025-03-09 22:53:38.462,9.4000,0.3700,0.5600,-2.5625,6.8125,2.2500,0.4004,-0.5480,0.4288,0.5962,
2025-03-09 22:53:38.464,9.3900,0.4200,0.5800,-2.3125,5.3750,0.4375,0.3999,-0.5479,0.4290,0.5966,
2025-03-09 22:53:38.474,9.4900,0.3800,0.6200,-2.0000,3.6875,-1.2500,0.3996,-0.5477,0.4291,0.5969,
2025-03-09 22:53:38.484,9.5900,0.3200,0.6600,-2.2500,2.7500,-2.1875,0.3994,-0.5475,0.4291,0.5972,
2025-03-09 22:53:38.492,9.8400,0.1500,0.8300,-2.8125,2.3125,-2.2500,0.3993,-0.5474,0.4290,0.5975,
2025-03-09 22:53:38.503,9.9600,0.1700,0.9800,-2.4375,2.5625,-1.6250,0.3992,-0.5473,0.4287,0.5978,
2025-03-09 22:53:38.516,9.9700,0.1100,1.0400,-0.0625,4.1250,-2.5625,0.3991,-0.5472,0.4286,0.5980,
2025-03-09 22:53:38.534,9.9100,0.1000,1.0400,1.0625,6.6875,-2.5000,0.3990,-0.5469,0.4286,0.5983,
2025-03-09 22:53:38.535,9.8400,0.2600,1.1600,0.9375,8.6250,-0.6250,0.3990,-0.5464,0.4288,0.5987,
2025-03-09 22:53:38.591,9.7600,0.4000,1.1200,1.8125,10.4375,-0.2500,0.3987,-0.5459,0.4291,0.5991,
2025-03-09 22:53:38.599,9.6400,0.5200,0.9200,4.5000,12.4375,-1.0000,0.3984,-0.5453,0.4295,0.5995,
2025-03-09 22:53:38.599,9.3300,0.7300,0.6000,5.0000,13.0625,-2.5000,0.3983,-0.5445,0.4301,0.5999,
2025-03-09 22:53:38.599,9.3800,0.8000,0.6800,4.0625,11.5625,-3.1250,0.3982,-0.5436,0.4306,0.6005,
2025-03-09 22:53:38.599,9.4500,0.6500,0.6800,4.5000,8.5000,-4.3750,0.3981,-0.5427,0.4310,0.6010,
2025-03-09 22:53:38.599,9.4400,0.4900,0.6900,3.2500,5.8750,-5.0000,0.3982,-0.5420,0.4313,0.6014,
2025-03-09 22:53:38.606,9.7900,0.0900,0.9800,-0.3750,3.6875,-1.8125,0.3984,-0.5414,0.4314,0.6017,
2025-03-09 22:53:38.612,9.9600,0.0000,1.1100,-5.1250,3.3125,1.2500,0.3984,-0.5411,0.4315,0.6019,
2025-03-09 22:53:38.624,10.0000,0.0900,1.1900,-7.1875,5.6250,3.0000,0.3979,-0.5412,0.4314,0.6022,
2025-03-09 22:53:38.636,9.5800,0.2200,0.7800,-2.8750,8.6875,0.8750,0.3972,-0.5413,0.4314,0.6026,
2025-03-09 22:53:38.641,9.4500,0.2600,0.7300,-1.1250,8.7500,-0.5000,0.3967,-0.5410,0.4316,0.6031,
2025-03-09 22:53:38.655,9.5900,0.2500,0.7900,-3.8125,7.1250,1.6250,0.3963,-0.5405,0.4318,0.6035,
2025-03-09 22:53:38.666,9.6600,0.1900,0.7400,-6.3125,5.8750,3.4375,0.3957,-0.5404,0.4320,0.6039,
2025-03-09 22:53:38.674,9.8200,0.2200,0.9200,-7.2500,5.5625,4.1875,0.3951,-0.5404,0.4321,0.6043,
2025-03-09 22:53:38.682,9.8600,0.2500,1.0500,-6.1875,5.8125,3.5625,0.3943,-0.5405,0.4321,0.6046,
2025-03-09 22:53:38.696,9.8700,0.2000,1.0600,-3.8125,6.6875,2.3125,0.3936,-0.5406,0.4322,0.6050,
2025-03-09 22:53:38.702,9.8800,0.1400,0.9700,-0.9375,8.5000,0.0625,0.3931,-0.5405,0.4324,0.6053,
2025-03-09 22:53:38.712,9.6400,0.0600,0.7100,0.1250,9.6250,-1.6250,0.3928,-0.5401,0.4326,0.6057,
2025-03-09 22:53:38.726,9.5900,0.1400,0.7400,-0.5625,9.4375,-1.1250,0.3925,-0.5396,0.4328,0.6062,
2025-03-09 22:53:38.732,9.5200,0.2000,0.7400,-0.8750,7.6875,-0.6250,0.3923,-0.5391,0.4330,0.6066,
2025-03-09 22:53:38.743,9.5600,0.2400,0.8900,-2.3750,5.7500,1.0000,0.3921,-0.5388,0.4331,0.6070,
2025-03-09 22:53:38.761,9.6200,0.3100,1.0200,-4.9375,3.7500,3.6250,0.3917,-0.5386,0.4332,0.6073,
2025-03-09 22:53:38.763,9.7200,0.3300,1.0600,-4.5625,2.8125,4.5625,0.3911,-0.5387,0.4334,0.6075,
2025-03-09 22:53:38.788,9.8000,0.4000,1.1500,-3.3750,2.4375,3.5000,0.3902,-0.5389,0.4335,0.6077,
2025-03-09 22:53:38.802,9.8200,0.1800,1.0800,-2.7500,3.0625,3.0000,0.3893,-0.5392,0.4337,0.6079,
2025-03-09 22:53:38.814,9.9100,-0.0100,1.1200,-3.3750,4.1250,2.1250,0.3890,-0.5392,0.4339,0.6080,
2025-03-09 22:53:38.822,9.7900,0.0700,1.1000,-4.1875,4.4375,1.5625,0.3885,-0.5392,0.4340,0.6082,
2025-03-09 22:53:38.840,9.6200,0.1200,1.0000,-4.1250,5.3125,0.5000,0.3881,-0.5392,0.4340,0.6085,
2025-03-09 22:53:38.892,9.5300,0.1400,0.8200,-4.0000,4.0000,1.1250,0.3873,-0.5391,0.4340,0.6092,
2025-03-09 22:53:38.896,9.5500,0.2300,0.8900,-4.8125,2.1875,1.1875,0.3869,-0.5391,0.4340,0.6094,
2025-03-09 22:53:38.896,9.6200,0.1900,0.9500,-4.3750,0.3750,0.9375,0.3866,-0.5392,0.4338,0.6096,
2025-03-09 22:53:38.897,9.6000,0.1000,0.9800,-3.3750,-0.3125,-0.6875,0.3864,-0.5394,0.4335,0.6097,
2025-03-09 22:53:38.906,9.7300,0.2300,1.1700,-4.1875,-1.2500,-0.1875,0.3863,-0.5397,0.4330,0.6099,
2025-03-09 22:53:38.922,9.6600,0.1300,1.0000,0.3750,0.3125,-2.7500,0.3862,-0.5399,0.4325,0.6102,
2025-03-09 22:53:38.943,9.6500,0.1800,1.0200,-0.6875,-0.5625,-1.8750,0.3865,-0.5397,0.4322,0.6103,
2025-03-09 22:53:38.952,9.7300,0.2200,1.1600,-0.9375,-0.8125,-1.4375,0.3865,-0.5397,0.4321,0.6104,
2025-03-09 22:53:38.975,9.7500,0.1800,1.1300,-0.1250,0.6250,-1.9375,0.3868,-0.5396,0.4317,0.6106,
2025-03-09 22:53:38.996,9.7600,0.1900,1.1700,-0.5000,1.9375,-1.1875,0.3869,-0.5394,0.4316,0.6108,
2025-03-09 22:53:39.003,9.6700,0.1300,1.0700,-0.6250,2.6250,-0.5000,0.3869,-0.5392,0.4316,0.6110,
2025-03-09 22:53:39.027,9.5300,0.2900,1.0500,-2.5000,3.6250,0.1250,0.3866,-0.5390,0.4316,0.6113,
2025-03-09 22:53:39.044,9.5300,0.2700,0.9900,-1.2500,2.6250,-2.5000,0.3863,-0.5388,0.4315,0.6118,
2025-03-09 22:53:39.066,9.6600,0.2200,1.1900,-1.6250,1.6250,-2.1875,0.3863,-0.5386,0.4313,0.6121,
2025-03-09 22:53:39.076,9.7100,0.1000,1.1100,-0.3125,2.6875,-3.0625,0.3863,-0.5384,0.4310,0.6125,
2025-03-09 22:53:39.094,9.7700,0.0400,1.1000,0.0625,1.6875,-1.3750,0.3863,-0.5380,0.4309,0.6129,
