A1,,,,,,,,,,,
time,accx,accy,accz,gyrox,gyroy,gyroz,w1,w2,w3,w4,
2025-03-10 20:04:44.440,9.7800,0.5700,1.1300,-0.5000,0.0000,-0.0625,-0.3703,-0.5536,-0.4470,0.5972,
2025-03-10 20:04:44.480,9.7700,0.6100,1.1300,0.7500,0.1250,0.0625,-0.3703,-0.5536,-0.4470,0.5972,
2025-03-10 20:04:44.482,9.7200,0.6600,1.1300,1.1250,0.1250,0.1875,-0.3702,-0.5537,-0.4469,0.5972,
2025-03-10 20:04:44.488,9.7300,0.6800,1.1200,0.7500,0.0625,-0.0625,-0.3701,-0.5537,-0.4469,0.5972,
2025-03-10 20:04:44.509,9.7100,0.6400,1.0400,0.0000,0.1250,-0.0625,-0.3700,-0.5538,-0.4469,0.5972,
2025-03-10 20:04:44.542,9.7600,0.6100,1.0600,-0.5625,0.0625,0.1250,-0.3700,-0.5538,-0.4469,0.5972,
2025-03-10 20:04:44.542,9.7600,0.6100,1.1000,-0.4375,0.2500,0.2500,-0.3700,-0.5538,-0.4469,0.5972,
2025-03-10 20:04:44.558,9.7800,0.6600,1.1000,0.9375,0.0625,0.5625,-0.3700,-0.5538,-0.4470,0.5972,
2025-03-10 20:04:44.589,9.7800,0.6700,1.1600,1.5000,0.3125,0.4375,-0.3698,-0.5540,-0.4468,0.5972,
2025-03-10 20:04:44.589,9.7200,0.6600,1.1100,0.8125,0.3750,0.2500,-0.3697,-0.5540,-0.4468,0.5973,
2025-03-10 20:04:44.611,9.7400,0.6700,1.0600,0.1875,-0.0625,0.3125,-0.3696,-0.5541,-0.4468,0.5973,
2025-03-10 20:04:44.635,9.7200,0.6400,1.0300,0.1875,0.0625,0.3125,-0.3696,-0.5541,-0.4468,0.5972,
2025-03-10 20:04:44.639,9.7600,0.6300,1.0700,-0.5625,0.0000,0.7500,-0.3696,-0.5541,-0.4468,0.5972,
2025-03-10 20:04:44.658,9.7300,0.6300,1.1400,0.0000,0.1250,0.7500,-0.3697,-0.5541,-0.4468,0.5972,
2025-03-10 20:04:44.677,9.7400,0.6200,1.1400,0.0625,-0.0625,0.5625,-0.3697,-0.5541,-0.4468,0.5973,
2025-03-10 20:04:44.692,9.7300,0.6000,1.1000,0.0625,-0.0625,0.6250,-0.3696,-0.5541,-0.4468,0.5973,
2025-03-10 20:04:44.708,9.7300,0.6200,1.1100,0.5000,-0.0625,0.6250,-0.3697,-0.5541,-0.4468,0.5973,
2025-03-10 20:04:44.732,9.7400,0.6400,1.0900,0.5000,-0.2500,0.5625,-0.3697,-0.5541,-0.4468,0.5973,
2025-03-10 20:04:44.749,9.7300,0.7000,1.1200,0.4375,-0.1250,0.3750,-0.3696,-0.5541,-0.4468,0.5973,
2025-03-10 20:04:44.791,9.7700,0.6700,1.1600,0.1250,0.0625,0.4375,-0.3696,-0.5541,-0.4468,0.5972,
2025-03-10 20:04:44.791,9.7600,0.6300,1.1500,0.0000,0.1250,0.3125,-0.3695,-0.5541,-0.4469,0.5972,
2025-03-10 20:04:44.809,9.7800,0.6200,1.0400,0.3125,-0.1250,0.5625,-0.3695,-0.5542,-0.4469,0.5972,
2025-03-10 20:04:44.829,9.7500,0.6600,1.1200,0.0625,0.1875,0.4375,-0.3695,-0.5542,-0.4469,0.5972,
2025-03-10 20:04:44.840,9.7000,0.6600,1.1300,0.0000,0.0625,0.8125,-0.3695,-0.5542,-0.4469,0.5972,
2025-03-10 20:04:44.859,9.6900,0.6700,1.0900,-0.3750,0.1250,0.4375,-0.3695,-0.5542,-0.4469,0.5972,
2025-03-10 20:04:44.897,9.7200,0.6300,1.1100,-0.6250,0.0000,0.4375,-0.3695,-0.5541,-0.4470,0.5972,
2025-03-10 20:04:44.897,9.7300,0.6200,1.1200,-0.5000,-0.1875,0.4375,-0.3695,-0.5542,-0.4469,0.5972,
2025-03-10 20:04:44.910,9.7400,0.5500,1.0400,-0.5000,0.1875,0.6250,-0.3695,-0.5542,-0.4469,0.5972,
2025-03-10 20:04:44.929,9.7500,0.6000,1.0700,0.0625,-0.1250,0.8750,-0.3696,-0.5541,-0.4469,0.5972,
2025-03-10 20:04:44.939,9.7700,0.6400,1.1100,0.4375,-0.3125,0.8125,-0.3696,-0.5541,-0.4468,0.5972,
2025-03-10 20:04:44.961,9.7500,0.6100,1.0700,0.1250,-0.1875,0.6250,-0.3696,-0.5541,-0.4468,0.5973,
2025-03-10 20:04:44.976,9.7600,0.5800,1.0900,0.1875,-0.1875,0.6875,-0.3697,-0.5541,-0.4467,0.5973,
2025-03-10 20:04:44.992,9.7500,0.5600,1.0600,0.0000,-0.3750,0.6875,-0.3697,-0.5541,-0.4467,0.5973,
2025-03-10 20:04:45.010,9.7300,0.6100,1.1000,0.3750,-0.2500,0.8125,-0.3697,-0.5540,-0.4466,0.5974,
2025-03-10 20:04:45.030,9.7600,0.7000,1.1500,1.1250,-0.5625,1.0000,-0.3697,-0.5541,-0.4465,0.5975,
2025-03-10 20:04:45.041,9.7600,0.7000,1.1100,1.1250,-0.4375,0.8750,-0.3697,-0.5541,-0.4464,0.5975,
2025-03-10 20:04:45.060,9.7500,0.6100,1.0500,-0.2500,-0.1250,0.7500,-0.3697,-0.5541,-0.4463,0.5976,
2025-03-10 20:04:45.081,9.7300,0.6000,1.1000,-0.3125,0.3125,0.8750,-0.3698,-0.5540,-0.4463,0.5976,
2025-03-10 20:04:45.087,9.7500,0.6100,1.0900,0.0000,0.1250,0.8750,-0.3698,-0.5540,-0.4463,0.5977,
2025-03-10 20:04:45.108,9.7400,0.6100,1.0600,-0.1875,0.2500,0.8125,-0.3699,-0.5539,-0.4462,0.5977,
2025-03-10 20:04:45.130,9.7400,0.6700,1.0900,0.3750,-0.2500,0.9375,-0.3700,-0.5539,-0.4461,0.5977,
2025-03-10 20:04:45.151,9.7500,0.6300,1.0800,-0.1875,0.0625,0.6875,-0.3700,-0.5539,-0.4461,0.5978,
2025-03-10 20:04:45.163,9.7500,0.6400,1.0400,-1.2500,0.3125,0.3750,-0.3701,-0.5538,-0.4461,0.5978,
2025-03-10 20:04:45.182,9.7600,0.5400,1.0800,-0.6250,0.4375,0.6250,-0.3702,-0.5537,-0.4462,0.5977,
2025-03-10 20:04:45.187,9.7500,0.5300,1.0600,-0.4375,0.3125,0.5000,-0.3702,-0.5537,-0.4462,0.5977,
2025-03-10 20:04:45.210,9.7900,0.5600,1.0900,-0.3125,-0.3125,0.8125,-0.3703,-0.5536,-0.4461,0.5978,
2025-03-10 20:04:45.217,9.8000,0.6000,1.1100,0.0000,-0.1875,1.0000,-0.3703,-0.5536,-0.4460,0.5978,
2025-03-10 20:04:45.242,9.7200,0.6500,1.0600,0.3125,-0.3125,1.0625,-0.3704,-0.5536,-0.4459,0.5979,
2025-03-10 20:04:45.257,9.6700,0.6300,1.0200,-0.5625,-0.1250,1.1875,-0.3706,-0.5535,-0.4458,0.5980,
2025-03-10 20:04:45.275,9.7500,0.6700,1.0700,-0.3750,0.1250,1.1250,-0.3707,-0.5534,-0.4457,0.5980,
2025-03-10 20:04:45.287,9.7700,0.6600,1.0700,-0.4375,0.1875,1.1250,-0.3707,-0.5534,-0.4457,0.5981,
2025-03-10 20:04:45.299,9.7600,0.6900,1.0700,-0.7500,-0.2500,1.2500,-0.3709,-0.5533,-0.4456,0.5981,
2025-03-10 20:04:45.317,9.8300,0.6000,1.0400,-1.4375,-0.0625,1.5625,-0.3711,-0.5531,-0.4456,0.5981,
2025-03-10 20:04:45.337,9.7500,0.5900,1.0800,-1.3750,0.4375,1.8125,-0.3714,-0.5529,-0.4456,0.5982,
2025-03-10 20:04:45.347,9.7300,0.5900,1.0900,-1.1875,0.3125,1.8750,-0.3716,-0.5528,-0.4455,0.5982,
2025-03-10 20:04:45.366,9.7200,0.6600,1.1200,-0.6250,0.0000,1.9375,-0.3718,-0.5526,-0.4454,0.5983,
2025-03-10 20:04:45.376,9.7200,0.6600,1.1100,-0.8750,-0.0625,1.8125,-0.3719,-0.5525,-0.4453,0.5984,
2025-03-10 20:04:45.386,9.7200,0.6400,1.1300,-1.3125,-0.1250,1.7500,-0.3721,-0.5524,-0.4453,0.5984,
2025-03-10 20:04:45.397,9.7500,0.6000,1.0400,-1.8750,0.0000,1.8750,-0.3723,-0.5523,-0.4453,0.5984,
2025-03-10 20:04:45.431,9.7300,0.5500,1.0500,-1.8125,0.4375,2.0000,-0.3724,-0.5522,-0.4453,0.5984,
2025-03-10 20:04:45.431,9.7300,0.5500,1.0100,-1.3750,0.2500,2.0625,-0.3726,-0.5521,-0.4452,0.5984,
2025-03-10 20:04:45.431,9.7200,0.5800,1.0800,-1.0000,0.3125,2.1250,-0.3727,-0.5519,-0.4452,0.5985,
2025-03-10 20:04:45.439,9.7400,0.6200,1.1200,-0.8750,0.1875,2.1250,-0.3729,-0.5518,-0.4451,0.5986,
2025-03-10 20:04:45.457,9.7600,0.5700,1.1000,-0.6875,0.5625,2.2500,-0.3730,-0.5518,-0.4450,0.5986,
2025-03-10 20:04:45.459,9.7600,0.5100,1.0700,-0.9375,0.3750,2.4375,-0.3732,-0.5516,-0.4449,0.5987,
2025-03-10 20:04:45.466,9.7700,0.4700,1.0500,-1.1875,0.2500,2.6875,-0.3734,-0.5515,-0.4449,0.5987,
2025-03-10 20:04:45.480,9.7300,0.5100,1.0800,-0.8750,0.1250,2.5000,-0.3735,-0.5514,-0.4448,0.5988,
2025-03-10 20:04:45.487,9.7200,0.5500,1.0800,-0.4375,-0.1875,2.5625,-0.3737,-0.5513,-0.4446,0.5989,
2025-03-10 20:04:45.498,9.7400,0.5600,1.1000,-0.1250,-0.4375,2.6875,-0.3738,-0.5512,-0.4445,0.5990,
2025-03-10 20:04:45.510,9.7400,0.5600,1.1200,0.1875,-0.4375,2.6875,-0.3740,-0.5511,-0.4444,0.5991,
2025-03-10 20:04:45.517,9.7500,0.5500,1.1300,-0.0625,-0.0625,2.6875,-0.3741,-0.5510,-0.4443,0.5992,
2025-03-10 20:04:45.548,9.7500,0.5400,1.1200,-0.3750,0.0625,3.0625,-0.3742,-0.5510,-0.4441,0.5994,
2025-03-10 20:04:45.552,9.7400,0.5500,1.0900,-0.6875,-0.1875,3.1875,-0.3742,-0.5510,-0.4441,0.5994,
2025-03-10 20:04:45.552,9.7400,0.5100,1.0500,-0.7500,-0.6250,3.3750,-0.3744,-0.5508,-0.4440,0.5994,
2025-03-10 20:04:45.558,9.7500,0.5100,1.0500,-0.2500,-0.5000,3.4375,-0.3746,-0.5507,-0.4438,0.5995,
2025-03-10 20:04:45.570,9.7500,0.4700,1.0300,-0.2500,0.0000,3.7500,-0.3748,-0.5506,-0.4436,0.5997,
2025-03-10 20:04:45.576,9.7400,0.4700,1.0500,-0.5625,0.3125,3.8125,-0.3749,-0.5505,-0.4434,0.5998,
2025-03-10 20:04:45.588,9.7300,0.4400,1.0800,-0.3125,-0.1250,4.0625,-0.3751,-0.5504,-0.4432,0.5999,
2025-03-10 20:04:45.600,9.7400,0.4500,1.0700,-0.1250,-0.5625,3.8750,-0.3753,-0.5502,-0.4430,0.6001,
2025-03-10 20:04:45.608,9.7200,0.5100,1.0600,-0.3750,-0.6875,4.0000,-0.3755,-0.5501,-0.4428,0.6002,
2025-03-10 20:04:45.619,9.6900,0.5200,1.0500,-0.3125,-0.8750,4.0625,-0.3757,-0.5500,-0.4426,0.6003,
2025-03-10 20:04:45.629,9.7100,0.4900,1.0000,-0.3125,-1.0000,4.1250,-0.3759,-0.5499,-0.4424,0.6005,
2025-03-10 20:04:45.636,9.7000,0.4900,1.0200,-0.2500,-1.0000,4.3750,-0.3762,-0.5499,-0.4421,0.6006,
2025-03-10 20:04:45.646,9.6800,0.4900,1.0600,0.1250,-0.6875,4.3125,-0.3764,-0.5497,-0.4419,0.6007,
2025-03-10 20:04:45.661,9.6400,0.5000,1.1200,0.3750,-0.4375,4.3125,-0.3766,-0.5497,-0.4416,0.6008,
2025-03-10 20:04:45.667,9.6400,0.4600,1.1500,0.8125,-0.3750,4.1875,-0.3768,-0.5495,-0.4414,0.6010,
2025-03-10 20:04:45.676,9.6600,0.4500,1.1800,1.0000,-0.4375,4.0625,-0.3770,-0.5494,-0.4412,0.6011,
2025-03-10 20:04:45.697,9.6900,0.3200,1.1500,1.1250,-0.3125,3.8125,-0.3771,-0.5493,-0.4409,0.6013,
2025-03-10 20:04:45.781,9.7400,0.2300,1.1100,1.3125,-0.3750,3.6250,-0.3773,-0.5493,-0.4407,0.6015,
2025-03-10 20:04:45.781,9.7500,0.1700,1.0000,1.6875,-0.6250,3.6875,-0.3774,-0.5492,-0.4404,0.6017,
2025-03-10 20:04:45.781,9.7300,0.1800,0.9500,2.0625,-0.4375,3.3125,-0.3774,-0.5491,-0.4401,0.6019,
2025-03-10 20:04:45.781,9.7300,0.2500,1.0400,3.0000,-1.0000,3.3125,-0.3775,-0.5491,-0.4398,0.6021,
2025-03-10 20:04:45.781,9.7000,0.3400,1.0700,3.8750,-1.6250,3.4375,-0.3776,-0.5492,-0.4395,0.6022,
2025-03-10 20:04:45.781,9.7300,0.4400,1.0800,4.5625,-2.5625,3.8750,-0.3776,-0.5493,-0.4391,0.6024,
2025-03-10 20:04:45.781,9.7400,0.5700,1.0300,4.5000,-2.5625,4.1250,-0.3776,-0.5495,-0.4386,0.6026,
2025-03-10 20:04:45.781,9.7500,0.5600,1.0600,3.1875,-2.8125,4.4375,-0.3776,-0.5497,-0.4381,0.6027,
2025-03-10 20:04:45.781,9.7700,0.5500,1.0500,2.1250,-2.3750,4.2500,-0.3778,-0.5498,-0.4377,0.6028,
2025-03-10 20:04:45.786,9.7500,0.4800,1.0600,1.5625,-1.5000,3.8750,-0.3780,-0.5499,-0.4373,0.6030,
2025-03-10 20:04:45.809,9.6800,0.3500,1.0900,1.2500,-0.7500,3.1250,-0.3781,-0.5499,-0.4370,0.6031,
2025-03-10 20:04:45.811,9.6700,0.2700,1.0900,1.1875,-0.5000,2.3750,-0.3782,-0.5499,-0.4368,0.6032,
2025-03-10 20:04:45.817,9.7000,0.2000,1.0800,1.3750,-1.0625,2.2500,-0.3782,-0.5499,-0.4366,0.6033,
2025-03-10 20:04:45.827,9.8300,0.1000,1.0500,1.3125,-2.1250,2.1250,-0.3783,-0.5499,-0.4364,0.6034,
2025-03-10 20:04:45.841,9.8800,0.1100,1.0100,1.8750,-2.8125,2.3750,-0.3784,-0.5500,-0.4362,0.6034,
2025-03-10 20:04:45.851,9.9300,0.1700,1.0200,2.6250,-3.2500,2.7500,-0.3785,-0.5501,-0.4358,0.6034,
2025-03-10 20:04:45.858,9.9000,0.2300,0.9800,3.5000,-3.0000,2.8125,-0.3787,-0.5503,-0.4355,0.6035,
2025-03-10 20:04:45.870,9.8300,0.3200,0.9700,4.5625,-2.2500,2.9375,-0.3787,-0.5505,-0.4351,0.6035,
2025-03-10 20:04:45.876,9.7600,0.3600,1.0100,5.5625,-1.2500,2.5000,-0.3787,-0.5507,-0.4346,0.6037,
2025-03-10 20:04:45.899,9.7100,0.3700,1.0300,6.1875,-0.7500,2.1875,-0.3785,-0.5509,-0.4342,0.6039,
2025-03-10 20:04:45.899,9.7000,0.3800,1.0900,6.0625,-1.0625,2.1875,-0.3784,-0.5511,-0.4338,0.6041,
2025-03-10 20:04:45.909,9.7700,0.3800,1.0600,5.1875,-1.4375,2.1250,-0.3782,-0.5513,-0.4334,0.6043,
2025-03-10 20:04:45.921,9.8600,0.4400,1.0200,4.1250,-1.8125,2.6250,-0.3780,-0.5516,-0.4330,0.6045,
2025-03-10 20:04:45.933,9.8900,0.4800,1.0300,3.1250,-1.7500,2.9375,-0.3779,-0.5517,-0.4327,0.6046,
2025-03-10 20:04:45.937,9.9400,0.4400,1.0300,2.7500,-1.3125,3.1875,-0.3779,-0.5519,-0.4324,0.6047,
2025-03-10 20:04:45.947,9.8700,0.4000,1.0000,2.8750,-0.5625,3.5000,-0.3779,-0.5520,-0.4321,0.6048,
2025-03-10 20:04:45.975,9.8300,0.4000,0.9800,3.0625,0.1250,3.3750,-0.3779,-0.5520,-0.4318,0.6050,
2025-03-10 20:04:45.975,9.6800,0.4000,0.9800,3.0625,0.5625,3.3125,-0.3779,-0.5521,-0.4315,0.6052,
2025-03-10 20:04:45.982,9.7000,0.3900,0.9900,3.0000,0.2500,3.3125,-0.3778,-0.5521,-0.4312,0.6054,
2025-03-10 20:04:46.000,9.7800,0.3200,0.9800,2.2500,0.0000,3.6875,-0.3777,-0.5522,-0.4307,0.6057,
2025-03-10 20:04:46.007,9.8400,0.2500,0.9400,2.1875,0.8750,3.6875,-0.3777,-0.5522,-0.4305,0.6059,
2025-03-10 20:04:46.036,9.7400,0.2000,0.9500,1.8125,2.0000,3.3750,-0.3778,-0.5520,-0.4300,0.6064,
2025-03-10 20:04:46.051,9.7100,0.1500,1.0000,2.6875,0.7500,2.9375,-0.3778,-0.5518,-0.4296,0.6069,
2025-03-10 20:04:46.070,9.8200,0.2200,0.9100,3.1250,-1.4375,3.0000,-0.3777,-0.5518,-0.4290,0.6073,
2025-03-10 20:04:46.086,9.7500,0.0500,0.8600,2.7500,-0.1250,2.5000,-0.3778,-0.5520,-0.4284,0.6076,
2025-03-10 20:04:46.120,9.6400,0.0000,0.9100,3.4375,0.6250,2.1875,-0.3777,-0.5520,-0.4281,0.6077,
2025-03-10 20:04:46.121,9.5400,0.0100,0.9400,4.8750,-0.5000,1.6250,-0.3776,-0.5521,-0.4275,0.6082,
2025-03-10 20:04:46.140,9.6400,0.1500,1.0600,5.6875,-3.0000,2.1250,-0.3773,-0.5524,-0.4268,0.6085,
2025-03-10 20:04:46.147,9.7600,0.1800,1.0200,6.4375,-3.4375,2.3750,-0.3772,-0.5527,-0.4263,0.6087,
2025-03-10 20:04:46.167,9.7900,0.2100,0.9600,7.9375,-2.8125,2.8125,-0.3770,-0.5535,-0.4252,0.6089,
2025-03-10 20:04:46.188,9.7300,0.2400,1.0500,7.9375,-1.3125,2.3125,-0.3766,-0.5541,-0.4240,0.6094,
2025-03-10 20:04:46.218,9.7000,0.2200,1.0500,7.6875,-1.4375,1.6875,-0.3763,-0.5544,-0.4235,0.6097,
2025-03-10 20:04:46.221,9.7900,0.3100,0.9300,7.8750,-2.4375,1.6875,-0.3757,-0.5551,-0.4225,0.6101,
2025-03-10 20:04:46.243,9.9000,0.3300,0.9300,7.3125,-2.9375,2.0000,-0.3752,-0.5558,-0.4214,0.6105,
2025-03-10 20:04:46.282,9.9500,0.4200,0.9600,6.1250,-2.3750,2.1875,-0.3750,-0.5562,-0.4210,0.6106,
2025-03-10 20:04:46.282,9.9000,0.3300,1.0600,3.3125,-1.1875,2.0625,-0.3746,-0.5568,-0.4202,0.6108,
2025-03-10 20:04:46.300,9.8600,0.3000,1.0700,2.9375,-0.5000,1.8125,-0.3744,-0.5570,-0.4198,0.6110,
2025-03-10 20:04:46.308,9.7500,0.2100,1.0300,2.7500,-0.7500,1.5000,-0.3743,-0.5571,-0.4196,0.6112,
2025-03-10 20:04:46.327,9.7800,0.1600,0.9300,2.1250,-1.3750,1.3750,-0.3741,-0.5572,-0.4192,0.6113,
2025-03-10 20:04:46.337,9.7700,0.2100,0.8700,1.6250,-1.5625,1.5000,-0.3741,-0.5575,-0.4188,0.6114,
2025-03-10 20:04:46.364,9.7600,0.3200,0.8500,1.5000,-1.5000,1.6875,-0.3742,-0.5576,-0.4186,0.6114,
2025-03-10 20:04:46.398,9.7000,0.3300,0.8700,1.0000,0.1250,1.4375,-0.3743,-0.5578,-0.4183,0.6114,
2025-03-10 20:04:46.398,9.6700,0.2800,0.9400,0.4375,1.0000,0.5000,-0.3742,-0.5578,-0.4182,0.6115,
2025-03-10 20:04:46.399,9.6800,0.0400,0.9200,-0.1250,0.8750,0.0625,-0.3741,-0.5578,-0.4183,0.6116,
2025-03-10 20:04:46.545,9.7800,0.0500,0.8700,0.1250,-0.5625,0.0000,-0.3741,-0.5577,-0.4183,0.6116,
2025-03-10 20:04:46.553,9.8000,0.1000,0.8600,-0.0625,-1.1875,0.2500,-0.3742,-0.5578,-0.4182,0.6115,
2025-03-10 20:04:46.553,9.8700,0.2900,0.8400,-0.3750,-1.1250,0.5000,-0.3741,-0.5579,-0.4182,0.6114,
2025-03-10 20:04:46.553,9.8400,0.2700,0.8800,-0.0625,-0.3125,1.0000,-0.3742,-0.5580,-0.4182,0.6113,
2025-03-10 20:04:46.553,9.8200,0.3100,0.9300,-0.7500,-0.3750,1.0000,-0.3743,-0.5580,-0.4181,0.6113,
2025-03-10 20:04:46.553,9.8000,0.2800,0.9500,-2.0000,-0.3750,0.6875,-0.3744,-0.5579,-0.4182,0.6113,
2025-03-10 20:04:46.565,9.8000,0.3000,0.8600,-2.8125,-0.8750,0.6250,-0.3746,-0.5578,-0.4184,0.6111,
2025-03-10 20:04:46.565,9.8300,0.3400,0.8600,-3.3125,-0.8125,0.6875,-0.3749,-0.5577,-0.4186,0.6108,
2025-03-10 20:04:46.565,9.7300,0.2700,0.9200,-4.6250,-0.2500,1.0000,-0.3752,-0.5576,-0.4188,0.6106,
2025-03-10 20:04:46.568,9.7200,0.2300,0.9200,-4.3750,0.3750,1.1875,-0.3757,-0.5573,-0.4193,0.6103,
2025-03-10 20:04:46.631,9.7500,0.1000,0.9800,-4.3750,0.4375,1.1875,-0.3762,-0.5569,-0.4196,0.6101,
2025-03-10 20:04:46.631,9.7800,0.0400,0.9900,-4.1875,1.0625,1.2500,-0.3765,-0.5567,-0.4197,0.6100,
2025-03-10 20:04:46.637,9.7600,0.0100,0.9400,-2.3125,1.0625,1.3750,-0.3770,-0.5562,-0.4200,0.6100,
2025-03-10 20:04:46.637,9.7900,0.0900,1.0400,-1.6875,0.6250,1.6250,-0.3772,-0.5559,-0.4201,0.6101,
2025-03-10 20:04:46.663,9.7700,0.1300,1.1200,-0.8750,0.3750,2.0000,-0.3774,-0.5558,-0.4201,0.6101,
2025-03-10 20:04:46.687,9.7700,0.2200,0.9800,-1.0625,0.5625,2.1250,-0.3776,-0.5556,-0.4200,0.6102,
2025-03-10 20:04:46.687,9.7700,0.1900,0.9400,-1.1875,0.8750,2.3125,-0.3779,-0.5554,-0.4199,0.6103,
2025-03-10 20:04:46.781,9.7500,0.2100,0.9800,-1.9375,1.4375,2.5625,-0.3780,-0.5552,-0.4199,0.6104,
2025-03-10 20:04:46.781,9.8000,0.2100,0.9800,-1.8750,1.3125,2.6250,-0.3782,-0.5548,-0.4200,0.6106,
2025-03-10 20:04:46.781,9.7600,0.1100,0.9800,-2.0625,1.3125,2.3125,-0.3785,-0.5544,-0.4201,0.6107,
2025-03-10 20:04:46.781,9.7300,0.0900,0.9700,-2.2500,1.4375,2.1250,-0.3787,-0.5542,-0.4201,0.6107,
2025-03-10 20:04:46.781,9.7300,0.0700,0.8900,-2.5000,1.4375,1.7500,-0.3790,-0.5537,-0.4202,0.6109,
2025-03-10 20:04:46.801,9.7500,0.0400,0.9400,-2.0625,1.0000,1.5000,-0.3793,-0.5534,-0.4204,0.6109,
2025-03-10 20:04:46.801,9.7300,0.0900,1.0200,-1.6875,1.0000,1.5000,-0.3794,-0.5532,-0.4204,0.6110,
2025-03-10 20:04:46.835,9.7500,0.0700,1.0100,-1.6875,0.7500,1.0625,-0.3796,-0.5529,-0.4205,0.6110,
2025-03-10 20:04:46.838,9.7500,0.0100,0.9900,-0.8750,0.8125,1.0000,-0.3798,-0.5527,-0.4206,0.6111,
2025-03-10 20:04:46.849,9.7300,-0.0200,0.9800,-0.5625,1.0625,0.6875,-0.3798,-0.5526,-0.4206,0.6111,
2025-03-10 20:04:46.874,9.7500,-0.0100,0.9500,-0.0625,0.8750,0.3750,-0.3797,-0.5525,-0.4207,0.6112,
2025-03-10 20:04:46.903,9.7100,0.0100,0.9500,0.8750,0.6875,0.1875,-0.3796,-0.5525,-0.4206,0.6113,
2025-03-10 20:04:46.903,9.7100,0.0000,1.0000,1.1250,0.3125,0.2500,-0.3796,-0.5525,-0.4206,0.6113,
2025-03-10 20:04:46.929,9.7200,0.0700,0.9500,1.6875,0.0000,0.1875,-0.3794,-0.5526,-0.4205,0.6115,
2025-03-10 20:04:46.936,9.7400,0.1100,0.9500,1.6875,0.0000,0.1875,-0.3792,-0.5527,-0.4203,0.6116,
2025-03-10 20:04:46.992,9.7600,0.1600,0.9300,1.8750,-0.2500,0.3125,-0.3791,-0.5528,-0.4202,0.6116,
2025-03-10 20:04:46.992,9.7400,0.1600,0.9200,1.3125,0.4375,0.3750,-0.3790,-0.5530,-0.4201,0.6117,
2025-03-10 20:04:46.993,9.8100,0.0700,0.9800,0.6250,0.1250,0.0000,-0.3788,-0.5530,-0.4200,0.6117,
2025-03-10 20:04:46.998,9.7900,0.0300,0.9800,0.9375,0.3125,-0.1875,-0.3788,-0.5531,-0.4200,0.6117,
2025-03-10 20:04:47.049,9.7700,0.0100,0.9500,1.6250,0.4375,0.1250,-0.3787,-0.5532,-0.4199,0.6118,
2025-03-10 20:04:47.050,9.7900,0.0400,0.9600,1.9375,0.1250,0.3125,-0.3785,-0.5533,-0.4198,0.6119,
2025-03-10 20:04:47.050,9.8000,0.1900,0.9600,1.8750,-0.3125,0.3750,-0.3784,-0.5534,-0.4196,0.6120,
2025-03-10 20:04:47.092,9.7700,0.2100,0.9400,1.7500,0.0000,0.5625,-0.3781,-0.5536,-0.4195,0.6121,
2025-03-10 20:04:47.140,9.7900,0.2100,0.9700,1.6250,-0.0625,0.3750,-0.3780,-0.5537,-0.4194,0.6121,
2025-03-10 20:04:47.140,9.7600,0.2000,0.9800,1.0000,0.0625,0.1250,-0.3779,-0.5537,-0.4194,0.6121,
2025-03-10 20:04:47.140,9.7700,0.1500,0.9600,0.3125,0.1875,0.1250,-0.3779,-0.5538,-0.4194,0.6121,
2025-03-10 20:04:47.141,9.7600,0.0200,0.9800,-0.5625,0.0625,0.0625,-0.3779,-0.5538,-0.4194,0.6121,
2025-03-10 20:04:47.141,9.7500,0.0300,0.9700,-0.3125,0.0625,0.1875,-0.3779,-0.5538,-0.4194,0.6121,
2025-03-10 20:04:47.144,9.7700,0.0400,0.9700,0.0625,0.0625,0.1875,-0.3779,-0.5538,-0.4194,0.6121,
2025-03-10 20:04:47.147,9.7800,0.1000,0.9500,0.4375,-0.1250,0.3125,-0.3779,-0.5538,-0.4194,0.6121,
2025-03-10 20:04:47.207,9.7500,0.1900,1.0000,0.6875,-0.1875,0.1875,-0.3778,-0.5538,-0.4194,0.6121,
2025-03-10 20:04:47.207,9.7600,0.2100,0.9800,0.8125,-0.1875,0.3750,-0.3778,-0.5538,-0.4194,0.6121,
2025-03-10 20:04:47.207,9.7400,0.2100,1.0200,0.2500,-0.1875,-0.1250,-0.3777,-0.5539,-0.4194,0.6121,
2025-03-10 20:04:47.212,9.7500,0.1100,0.9700,-2.4375,0.4375,-0.2500,-0.3778,-0.5538,-0.4195,0.6120,
2025-03-10 20:04:47.212,9.7400,0.0800,0.9600,-3.0000,0.7500,-0.1250,-0.3779,-0.5537,-0.4198,0.6119,
2025-03-10 20:04:47.212,9.7600,0.0900,0.9500,-3.1250,0.6250,0.1875,-0.3781,-0.5535,-0.4199,0.6118,
2025-03-10 20:04:47.235,9.7600,0.0800,0.9400,-2.4375,0.3750,0.1875,-0.3782,-0.5535,-0.4200,0.6117,
2025-03-10 20:04:47.238,9.7500,0.0700,0.9900,-1.6875,0.1875,0.3750,-0.3783,-0.5534,-0.4201,0.6117,
2025-03-10 20:04:47.238,9.7300,0.0900,0.9600,-1.0625,0.0625,0.3750,-0.3784,-0.5534,-0.4202,0.6116,
2025-03-10 20:04:47.272,9.7300,0.1300,0.9800,-0.8125,0.0000,0.2500,-0.3784,-0.5533,-0.4202,0.6116,
2025-03-10 20:04:47.272,9.7500,0.1600,1.0000,-0.3750,-0.1875,0.1250,-0.3784,-0.5533,-0.4202,0.6116,
2025-03-10 20:04:47.272,9.7500,0.1300,0.9700,-0.5625,-0.3125,0.1250,-0.3784,-0.5534,-0.4202,0.6116,
2025-03-10 20:04:47.290,9.7400,0.1200,0.9400,-1.0000,-0.3125,-0.1250,-0.3784,-0.5533,-0.4203,0.6116,
2025-03-10 20:04:47.290,9.7300,0.1200,0.9700,-1.0625,-0.4375,-0.1875,-0.3784,-0.5533,-0.4204,0.6115,
2025-03-10 20:04:47.379,9.7300,0.1000,0.9300,-0.6250,-0.3750,-0.1875,-0.3785,-0.5533,-0.4204,0.6115,
2025-03-10 20:04:47.379,9.7100,0.1200,0.9300,-0.3750,-0.3750,-0.0625,-0.3785,-0.5533,-0.4204,0.6115,
2025-03-10 20:04:47.379,9.7300,0.1500,0.9600,-0.1250,-0.3750,-0.1250,-0.3785,-0.5533,-0.4204,0.6115,
2025-03-10 20:04:47.379,9.7500,0.1600,0.9700,0.3125,-0.5000,0.1250,-0.3784,-0.5533,-0.4204,0.6114,
2025-03-10 20:04:47.379,9.8100,0.1600,1.0100,0.5000,-0.5625,-0.1250,-0.3784,-0.5533,-0.4204,0.6114,
2025-03-10 20:04:47.379,9.8300,0.1000,1.0300,0.5000,-0.8125,-0.1250,-0.3784,-0.5534,-0.4204,0.6114,
2025-03-10 20:04:47.379,9.8200,0.1200,1.0100,0.1875,-0.6250,-0.3750,-0.3784,-0.5534,-0.4204,0.6114,
2025-03-10 20:04:47.379,9.7900,0.0700,0.9800,-0.5625,-0.5625,-0.1875,-0.3784,-0.5534,-0.4204,0.6114,
2025-03-10 20:04:47.385,9.7600,0.1000,0.9900,-0.7500,-0.7500,-0.1250,-0.3785,-0.5535,-0.4204,0.6113,
2025-03-10 20:04:47.387,9.7500,0.0800,0.9800,0.0000,-0.5000,0.1250,-0.3785,-0.5535,-0.4204,0.6113,
2025-03-10 20:04:47.411,9.7600,0.1500,0.9500,0.6875,-0.5625,0.3125,-0.3785,-0.5535,-0.4204,0.6113,
2025-03-10 20:04:47.415,9.7800,0.1600,0.9900,0.5000,-0.6250,0.3125,-0.3785,-0.5535,-0.4204,0.6113,
2025-03-10 20:04:47.417,9.8000,0.1700,0.9500,0.0000,-0.6875,0.2500,-0.3785,-0.5535,-0.4204,0.6113,
2025-03-10 20:04:47.440,9.7700,0.1600,0.9800,-0.5625,-0.3750,0.3750,-0.3785,-0.5536,-0.4204,0.6112,
2025-03-10 20:04:47.443,9.7700,0.1000,0.9800,-0.8750,-0.3125,0.5000,-0.3785,-0.5536,-0.4204,0.6112,
2025-03-10 20:04:47.447,9.7900,0.0600,0.9400,-1.0625,-0.2500,0.5000,-0.3785,-0.5536,-0.4205,0.6111,
2025-03-10 20:04:47.470,9.7600,0.0200,0.9800,-0.6250,0.0000,0.5000,-0.3785,-0.5535,-0.4205,0.6111,
2025-03-10 20:04:47.473,9.7500,0.0000,0.9500,-0.3125,0.1250,0.6875,-0.3785,-0.5535,-0.4205,0.6111,
2025-03-10 20:04:47.477,9.7500,0.1000,0.9600,0.3125,0.0000,0.8125,-0.3786,-0.5535,-0.4205,0.6111,
2025-03-10 20:04:47.501,9.7400,0.1100,1.0000,0.8125,-0.1250,0.7500,-0.3787,-0.5535,-0.4205,0.6111,
2025-03-10 20:04:47.510,9.7200,0.1300,1.0200,1.0000,-0.4375,0.7500,-0.3786,-0.5535,-0.4204,0.6112,
2025-03-10 20:04:47.510,9.7700,0.1500,0.9600,0.8750,-0.0625,0.8125,-0.3786,-0.5535,-0.4203,0.6113,
2025-03-10 20:04:47.534,9.7500,0.1200,0.9400,0.3750,-0.3125,0.6875,-0.3786,-0.5535,-0.4202,0.6113,
2025-03-10 20:04:47.534,9.7600,0.0900,0.8900,-0.1875,-0.4375,0.6250,-0.3786,-0.5535,-0.4202,0.6113,
2025-03-10 20:04:47.541,9.7400,0.0700,0.9400,-0.1250,-0.3125,0.7500,-0.3786,-0.5535,-0.4202,0.6114,
2025-03-10 20:04:47.561,9.7600,0.0600,0.9000,-0.1875,-0.3125,0.7500,-0.3787,-0.5535,-0.4202,0.6114,
2025-03-10 20:04:47.567,9.7400,0.0900,0.9300,-0.1250,-0.4375,1.0000,-0.3787,-0.5535,-0.4201,0.6114,
2025-03-10 20:04:47.567,9.7500,0.1400,0.9400,0.3750,-0.3750,1.0000,-0.3787,-0.5534,-0.4201,0.6114,
2025-03-10 20:04:47.592,9.7500,0.1800,0.9600,0.5000,-0.3125,1.0000,-0.3788,-0.5534,-0.4200,0.6115,
2025-03-10 20:04:47.592,9.7600,0.2000,0.9500,0.6875,-0.3750,0.6250,-0.3788,-0.5533,-0.4200,0.6115,
2025-03-10 20:04:47.600,9.7800,0.1500,0.9900,0.4375,-0.1250,0.5000,-0.3788,-0.5533,-0.4199,0.6115,
2025-03-10 20:04:47.629,9.8200,0.1000,0.9900,-0.0625,-0.2500,0.3750,-0.3788,-0.5533,-0.4199,0.6115,
2025-03-10 20:04:47.629,9.7600,0.0100,0.9000,-0.0625,-0.1250,0.5625,-0.3788,-0.5533,-0.4199,0.6115,
2025-03-10 20:04:47.629,9.7400,0.0500,0.9200,0.0000,-0.3125,0.2500,-0.3788,-0.5533,-0.4199,0.6115,
2025-03-10 20:04:47.653,9.7500,0.0900,0.9200,0.5000,-0.5000,0.3125,-0.3788,-0.5533,-0.4199,0.6115,
2025-03-10 20:04:47.653,9.7700,0.1100,0.9800,0.8125,-0.4375,0.3125,-0.3788,-0.5533,-0.4199,0.6115,
2025-03-10 20:04:47.658,9.7600,0.2200,0.9400,1.0625,-0.5000,0.3125,-0.3788,-0.5534,-0.4199,0.6116,
2025-03-10 20:04:47.685,9.7800,0.2100,0.8800,0.5625,-0.3125,0.2500,-0.3787,-0.5534,-0.4198,0.6116,
2025-03-10 20:04:47.688,9.8000,0.2200,0.8800,-0.6250,-0.4375,0.1875,-0.3787,-0.5534,-0.4198,0.6116,
2025-03-10 20:04:47.688,9.7900,0.1000,0.9300,-1.1250,-0.3125,0.1875,-0.3787,-0.5535,-0.4199,0.6115,
2025-03-10 20:04:47.709,9.7500,0.1100,0.9400,-1.3750,0.1250,0.1875,-0.3788,-0.5534,-0.4199,0.6115,
2025-03-10 20:04:47.711,9.7000,0.1000,0.9200,-1.3750,0.3125,0.2500,-0.3788,-0.5534,-0.4200,0.6114,
2025-03-10 20:04:47.718,9.7000,0.1300,0.9200,-0.9375,0.1875,0.5625,-0.3789,-0.5533,-0.4200,0.6114,
2025-03-10 20:04:47.742,9.7300,0.1300,0.9400,-0.4375,-0.2500,0.5000,-0.3790,-0.5533,-0.4201,0.6113,
2025-03-10 20:04:47.777,9.7300,0.1500,0.9300,-0.4375,-0.5625,0.7500,-0.3790,-0.5533,-0.4201,0.6113,
2025-03-10 20:04:47.777,9.7500,0.1400,0.9300,-0.8750,-0.4375,0.5000,-0.3790,-0.5533,-0.4201,0.6113,
2025-03-10 20:04:47.803,9.7600,0.0900,0.9400,-1.8125,-0.2500,0.2500,-0.3790,-0.5533,-0.4202,0.6113,
2025-03-10 20:04:47.803,9.7800,0.0400,0.8800,-2.3750,-0.5625,0.1875,-0.3791,-0.5533,-0.4202,0.6112,
2025-03-10 20:04:47.803,9.8000,0.0100,0.9200,-2.5000,-0.4375,0.3750,-0.3792,-0.5532,-0.4203,0.6111,
2025-03-10 20:04:47.836,9.7700,-0.0100,0.8800,-2.1875,-0.1250,0.3750,-0.3793,-0.5531,-0.4205,0.6110,
2025-03-10 20:04:47.836,9.7700,0.0500,0.9300,-1.3750,-0.4375,0.6250,-0.3795,-0.5530,-0.4206,0.6110,
2025-03-10 20:04:47.836,9.7800,0.0700,0.9500,-0.6875,-0.8125,0.6875,-0.3796,-0.5530,-0.4206,0.6109,
2025-03-10 20:04:47.837,9.8100,0.1000,0.9700,-0.1250,-0.8750,0.7500,-0.3796,-0.5530,-0.4206,0.6109,
2025-03-10 20:04:47.837,9.7800,0.0100,0.9600,0.1250,-0.7500,0.5625,-0.3797,-0.5530,-0.4205,0.6108,
2025-03-10 20:04:47.840,9.7700,0.0000,0.9500,-0.3125,-0.6875,0.3750,-0.3798,-0.5530,-0.4205,0.6108,
2025-03-10 20:04:47.906,9.7200,0.0200,0.9200,-1.0000,-0.3125,0.5000,-0.3798,-0.5530,-0.4205,0.6108,
2025-03-10 20:04:47.906,9.7600,0.0900,0.9300,-0.3750,-0.5000,0.5000,-0.3799,-0.5530,-0.4205,0.6107,
2025-03-10 20:04:47.906,9.7900,0.1100,0.9500,0.3750,-0.8125,0.6250,-0.3799,-0.5530,-0.4205,0.6107,
2025-03-10 20:04:47.950,9.7700,0.1800,0.9800,0.6875,-0.6875,0.5625,-0.3799,-0.5531,-0.4205,0.6107,
2025-03-10 20:04:47.951,9.7600,0.1400,0.9700,0.5000,-0.3750,0.3125,-0.3799,-0.5532,-0.4204,0.6107,
2025-03-10 20:04:47.951,9.7500,0.0900,0.8900,-0.1250,-0.4375,0.3125,-0.3799,-0.5532,-0.4204,0.6107,
2025-03-10 20:04:47.956,9.7500,0.1400,0.9400,-0.7500,-0.6875,0.5000,-0.3799,-0.5532,-0.4205,0.6106,
2025-03-10 20:04:47.957,9.7600,0.1600,0.9500,-0.1875,-0.6250,0.5625,-0.3800,-0.5532,-0.4205,0.6105,
2025-03-10 20:04:47.984,9.7700,0.1500,0.9000,-0.3750,-0.2500,0.5625,-0.3800,-0.5533,-0.4205,0.6105,
2025-03-10 20:04:48.009,9.7600,0.1100,0.9000,-1.0000,-0.4375,0.6250,-0.3800,-0.5533,-0.4205,0.6105,
2025-03-10 20:04:48.019,9.7400,0.1100,0.8700,-1.1250,-0.3125,0.6250,-0.3801,-0.5533,-0.4205,0.6105,
2025-03-10 20:04:48.053,9.7600,0.0600,0.8800,-2.0625,-0.5000,0.5000,-0.3802,-0.5532,-0.4206,0.6104,
2025-03-10 20:04:48.111,9.8300,0.0300,0.9500,-1.1875,-0.5625,0.3125,-0.3804,-0.5531,-0.4207,0.6102,
2025-03-10 20:04:48.111,9.8100,0.0100,0.9600,-0.4375,-0.7500,0.2500,-0.3805,-0.5530,-0.4208,0.6102,
2025-03-10 20:04:48.111,9.7200,0.0900,0.9500,0.5625,-1.5000,0.0625,-0.3806,-0.5532,-0.4207,0.6101,
2025-03-10 20:04:48.111,9.7100,0.0900,0.8400,0.5625,-1.2500,0.1875,-0.3807,-0.5533,-0.4206,0.6099,
2025-03-10 20:04:48.112,9.7200,0.0700,0.8700,0.7500,-0.8125,0.5000,-0.3807,-0.5534,-0.4206,0.6098,
2025-03-10 20:04:48.137,9.7900,0.1000,0.8500,0.4375,-0.8750,0.1250,-0.3807,-0.5536,-0.4205,0.6098,
2025-03-10 20:04:48.183,9.8100,0.1000,0.9200,0.1875,-1.0625,0.1875,-0.3807,-0.5537,-0.4204,0.6097,
2025-03-10 20:04:48.183,9.7900,0.1000,0.8900,0.3750,-0.8750,0.3750,-0.3808,-0.5538,-0.4204,0.6096,
2025-03-10 20:04:48.183,9.7900,0.0900,0.9300,0.8125,-0.8750,0.2500,-0.3808,-0.5539,-0.4203,0.6096,
2025-03-10 20:04:48.197,9.7600,0.1100,0.9300,0.6250,-0.5625,0.5625,-0.3807,-0.5540,-0.4202,0.6095,
2025-03-10 20:04:48.258,9.7500,0.1200,0.8600,0.1250,-0.3125,0.6250,-0.3807,-0.5541,-0.4202,0.6095,
2025-03-10 20:04:48.283,9.7600,0.1300,0.8600,-0.3125,-0.6250,0.9375,-0.3808,-0.5541,-0.4201,0.6095,
2025-03-10 20:04:48.283,9.7400,0.1200,0.8800,-0.6250,-0.7500,0.9375,-0.3809,-0.5541,-0.4200,0.6095,
2025-03-10 20:04:48.283,9.7500,0.1000,0.8800,-0.6875,-1.0625,1.0000,-0.3810,-0.5541,-0.4200,0.6095,
2025-03-10 20:04:48.287,9.7500,0.1000,0.8600,-0.4375,-1.0625,1.0000,-0.3812,-0.5541,-0.4199,0.6094,
2025-03-10 20:04:48.318,9.7600,0.0800,0.9100,-0.2500,-0.8750,1.0000,-0.3813,-0.5542,-0.4197,0.6093,
2025-03-10 20:04:48.344,9.8000,0.0700,0.8500,-0.5000,-0.6875,1.0000,-0.3814,-0.5542,-0.4196,0.6093,
2025-03-10 20:04:48.344,9.7500,0.1400,0.8600,0.0625,-1.1250,1.2500,-0.3816,-0.5542,-0.4195,0.6093,
2025-03-10 20:04:48.346,9.7600,0.1500,0.8900,0.0625,-1.1875,0.9375,-0.3817,-0.5543,-0.4193,0.6093,
2025-03-10 20:04:48.369,9.7700,0.1300,0.8800,-0.7500,-0.7500,0.5000,-0.3818,-0.5543,-0.4193,0.6092,
2025-03-10 20:04:48.377,9.7900,0.0500,0.8200,-1.3750,-0.9375,0.4375,-0.3819,-0.5544,-0.4193,0.6091,
2025-03-10 20:04:48.398,9.7900,0.0300,0.8400,-1.6875,-0.9375,0.5000,-0.3821,-0.5544,-0.4194,0.6089,
2025-03-10 20:04:48.409,9.7600,0.1000,0.8400,-0.6875,-1.1250,0.5000,-0.3822,-0.5544,-0.4194,0.6088,
2025-03-10 20:04:48.429,9.7500,0.1100,0.8200,-0.1875,-0.8750,0.5000,-0.3823,-0.5546,-0.4194,0.6086,
2025-03-10 20:04:48.463,9.7500,0.1100,0.8300,-0.3750,-0.6875,0.4375,-0.3823,-0.5547,-0.4194,0.6085,
2025-03-10 20:04:48.463,9.7700,0.0600,0.8300,-1.6250,-0.3750,0.3125,-0.3824,-0.5546,-0.4194,0.6085,
2025-03-10 20:04:48.492,9.7700,0.0600,0.8000,-1.2500,-0.6875,0.3750,-0.3826,-0.5546,-0.4196,0.6083,
2025-03-10 20:04:48.496,9.7800,0.0700,0.8300,-1.0625,-0.5000,0.4375,-0.3827,-0.5546,-0.4197,0.6082,
2025-03-10 20:04:48.521,9.7900,0.0500,0.8600,-1.1250,-0.3750,0.3750,-0.3828,-0.5545,-0.4197,0.6082,
2025-03-10 20:04:48.528,9.7700,-0.0500,0.8600,-0.7500,-0.3750,0.5625,-0.3829,-0.5544,-0.4198,0.6081,
2025-03-10 20:04:48.558,9.8100,0.0000,0.8400,-0.0625,-0.3125,0.6250,-0.3829,-0.5544,-0.4198,0.6081,
2025-03-10 20:04:48.562,9.8000,0.1000,0.8000,0.1875,-0.6250,0.4375,-0.3829,-0.5544,-0.4198,0.6081,
2025-03-10 20:04:48.581,9.7900,0.1000,0.7900,-0.5000,0.0000,0.2500,-0.3829,-0.5545,-0.4198,0.6080,
2025-03-10 20:04:48.612,9.7800,0.0500,0.8500,-0.8125,-0.1875,0.1875,-0.3830,-0.5545,-0.4198,0.6079,
2025-03-10 20:04:48.616,9.8000,0.0400,0.8700,-0.3750,-0.5625,0.5000,-0.3830,-0.5545,-0.4199,0.6079,
2025-03-10 20:04:48.638,9.7800,0.0900,0.8200,-0.2500,-0.3750,0.6250,-0.3831,-0.5544,-0.4199,0.6079,
2025-03-10 20:04:48.644,9.7400,0.1100,0.8200,-0.0625,-0.0625,0.6250,-0.3831,-0.5545,-0.4198,0.6079,
2025-03-10 20:04:48.670,9.7600,0.0500,0.8000,-0.3750,-0.0625,0.4375,-0.3831,-0.5545,-0.4198,0.6079,
2025-03-10 20:04:48.677,9.7700,0.0600,0.7600,-1.2500,0.0000,0.3750,-0.3832,-0.5545,-0.4199,0.6078,
2025-03-10 20:04:48.700,9.7700,0.1000,0.8500,-1.0000,-0.1250,0.3750,-0.3833,-0.5544,-0.4200,0.6077,
2025-03-10 20:04:48.709,9.7900,0.0900,0.8500,-0.2500,0.0000,0.5000,-0.3833,-0.5544,-0.4200,0.6077,
2025-03-10 20:04:48.732,9.8500,-0.0100,0.8400,-0.5000,0.5625,0.2500,-0.3833,-0.5544,-0.4200,0.6077,
2025-03-10 20:04:48.768,9.8200,0.0100,0.8600,-0.9375,0.4375,0.1250,-0.3834,-0.5543,-0.4202,0.6076,
2025-03-10 20:04:48.851,9.7700,0.0300,0.8300,-0.8125,0.4375,0.3750,-0.3834,-0.5543,-0.4202,0.6076,
2025-03-10 20:04:48.851,9.7400,0.1000,0.8000,-0.3750,0.5000,0.4375,-0.3834,-0.5543,-0.4202,0.6076,
2025-03-10 20:04:48.851,9.8200,0.0500,0.8400,-0.3125,0.6250,0.1250,-0.3834,-0.5543,-0.4202,0.6077,
2025-03-10 20:04:48.851,9.8300,0.0100,0.8200,-0.6250,0.8750,0.0000,-0.3834,-0.5542,-0.4202,0.6077,
2025-03-10 20:04:48.851,9.8700,0.0000,0.8500,-1.1250,1.5000,0.1875,-0.3834,-0.5540,-0.4204,0.6077,
2025-03-10 20:04:48.851,9.8600,0.0900,0.8800,-0.5625,1.8125,0.8750,-0.3834,-0.5537,-0.4206,0.6079,
2025-03-10 20:04:48.857,9.8600,0.1000,0.8600,-0.2500,2.1875,0.8750,-0.3834,-0.5536,-0.4206,0.6080,
2025-03-10 20:04:48.880,9.9300,0.1600,0.9000,0.1250,3.3750,1.3750,-0.3832,-0.5532,-0.4207,0.6084,
2025-03-10 20:04:48.911,10.2700,0.2300,0.7700,0.4375,6.0000,2.1875,-0.3831,-0.5526,-0.4208,0.6089,
2025-03-10 20:04:48.918,11.0400,0.1600,0.5400,0.3125,9.0625,3.3750,-0.3829,-0.5520,-0.4209,0.6095,
2025-03-10 20:04:48.939,11.0200,0.0800,0.6700,-1.9375,17.1250,6.6875,-0.3825,-0.5500,-0.4214,0.6112,
2025-03-10 20:04:48.945,10.5700,0.4800,1.4600,-2.0625,21.3750,11.3750,-0.3822,-0.5470,-0.4220,0.6137,
2025-03-10 20:04:48.970,10.5600,0.5700,1.5700,-2.1875,21.7500,13.5625,-0.3821,-0.5454,-0.4221,0.6151,
2025-03-10 20:04:48.979,10.4400,0.4400,2.0000,-13.3750,28.5625,13.2500,-0.3826,-0.5411,-0.4232,0.6179,
2025-03-10 20:04:49.018,10.7100,0.1800,2.1100,-22.1875,36.8750,9.1250,-0.3832,-0.5353,-0.4263,0.6204,
2025-03-10 20:04:49.018,10.7700,0.0200,2.1900,-20.0000,39.9375,8.1250,-0.3832,-0.5322,-0.4281,0.6218,
2025-03-10 20:04:49.026,10.4700,-0.2900,2.5700,-14.7500,47.6250,4.5625,-0.3820,-0.5258,-0.4319,0.6253,
2025-03-10 20:04:49.040,10.5000,-0.1900,2.6800,-11.5625,52.0625,2.9375,-0.3809,-0.5226,-0.4339,0.6273,
2025-03-10 20:04:49.070,10.4600,0.1300,3.1600,-8.1250,62.3125,2.0625,-0.3776,-0.5155,-0.4382,0.6321,
2025-03-10 20:04:49.089,10.8400,0.2900,3.3700,-13.8750,75.1875,7.6875,-0.3740,-0.5064,-0.4432,0.6381,
2025-03-10 20:04:49.096,10.5400,0.3300,3.6300,-26.3125,87.7500,10.0000,-0.3710,-0.4949,-0.4494,0.6446,
2025-03-10 20:04:49.118,10.5500,0.3400,3.6800,-33.1875,92.6875,10.3750,-0.3697,-0.4883,-0.4531,0.6478,
2025-03-10 20:04:49.126,10.4000,1.0400,3.8200,-43.6875,98.5625,9.5000,-0.3676,-0.4738,-0.4614,0.6539,
2025-03-10 20:04:49.142,10.9700,-0.4800,4.0200,-55.0625,100.0625,11.1875,-0.3671,-0.4657,-0.4661,0.6566,
2025-03-10 20:04:49.157,10.9100,-0.3200,4.3400,-51.8125,113.0625,9.5625,-0.3653,-0.4486,-0.4759,0.6625,
2025-03-10 20:04:49.180,10.8600,-0.3000,4.4200,-54.8125,117.9375,9.2500,-0.3640,-0.4395,-0.4810,0.6656,
2025-03-10 20:04:49.181,10.7500,-0.4200,4.4800,-59.0625,123.0000,11.0000,-0.3627,-0.4298,-0.4864,0.6687,
2025-03-10 20:04:49.188,10.5800,-0.2800,4.7300,-62.6875,127.5625,13.1875,-0.3615,-0.4196,-0.4918,0.6719,
2025-03-10 20:04:49.214,10.9800,-0.4000,5.1700,-66.7500,130.5625,14.6875,-0.3603,-0.4089,-0.4973,0.6751,
2025-03-10 20:04:49.219,11.1400,-0.6600,5.4300,-71.0625,133.5625,16.5625,-0.3593,-0.3978,-0.5028,0.6781,
2025-03-10 20:04:49.219,11.3900,-0.9600,5.4700,-73.0000,138.9375,19.1250,-0.3581,-0.3861,-0.5083,0.6814,
2025-03-10 20:04:49.248,10.9700,-1.4800,5.6700,-74.1875,145.3750,21.9375,-0.3569,-0.3738,-0.5138,0.6848,
2025-03-10 20:04:49.251,10.5700,-1.5200,5.7300,-74.9375,149.2500,23.4375,-0.3555,-0.3612,-0.5193,0.6881,
2025-03-10 20:04:49.251,10.0800,-1.3600,5.8800,-73.4375,150.5625,22.9375,-0.3538,-0.3485,-0.5247,0.6915,
2025-03-10 20:04:49.269,9.8600,-1.3300,6.0500,-71.0000,151.9375,21.5625,-0.3518,-0.3358,-0.5300,0.6947,
2025-03-10 20:04:49.297,9.3900,-1.3800,6.1000,-69.3750,154.1250,21.8750,-0.3496,-0.3229,-0.5352,0.6979,
2025-03-10 20:04:49.297,8.9400,-1.6000,6.2100,-67.1250,157.9375,23.6875,-0.3470,-0.3099,-0.5402,0.7012,
2025-03-10 20:04:49.299,8.8100,-1.7000,6.1800,-62.6875,161.6875,25.5625,-0.3439,-0.2966,-0.5451,0.7047,
2025-03-10 20:04:49.299,8.7100,-1.8800,6.2400,-57.1250,163.0625,28.1250,-0.3405,-0.2835,-0.5494,0.7084,
2025-03-10 20:04:49.305,8.3300,-1.9200,6.4000,-46.8125,166.7500,31.1875,-0.3363,-0.2704,-0.5535,0.7124,
2025-03-10 20:04:49.331,7.8900,-1.9300,6.5300,-46.8125,166.7500,31.1875,-0.3320,-0.2573,-0.5573,0.7162,
2025-03-10 20:04:49.339,7.5900,-2.0500,6.6300,-42.7500,169.9375,32.2500,-0.3320,-0.2573,-0.5573,0.7162,
2025-03-10 20:04:49.339,7.3900,-2.0400,6.7200,-38.0000,172.8750,34.0000,-0.3272,-0.2440,-0.5610,0.7202,
2025-03-10 20:04:49.360,7.3500,-2.1000,6.7100,-36.8750,175.2500,35.3750,-0.3220,-0.2307,-0.5644,0.7242,
2025-03-10 20:04:49.369,7.3000,-2.0900,6.8200,-34.5000,178.2500,36.0000,-0.3166,-0.2173,-0.5677,0.7282,
2025-03-10 20:04:49.369,7.1000,-1.9100,6.8700,-33.6875,179.0625,37.1875,-0.3108,-0.2037,-0.5708,0.7322,
2025-03-10 20:04:49.390,7.1100,-1.9400,6.9300,-33.9375,179.0000,37.4375,-0.3048,-0.1899,-0.5737,0.7361,
2025-03-10 20:04:49.393,6.9500,-2.0500,7.0500,-35.8750,180.2500,35.8125,-0.2988,-0.1762,-0.5765,0.7398,
2025-03-10 20:04:49.395,6.6200,-2.1200,7.2000,-38.5625,183.0000,33.8750,-0.2928,-0.1622,-0.5792,0.7433,
2025-03-10 20:04:49.453,5.7400,-2.5300,6.9700,-45.3125,185.7500,34.0000,-0.2867,-0.1480,-0.5821,0.7464,
2025-03-10 20:04:49.453,5.3100,-2.5100,6.8400,-55.4375,184.4375,35.5000,-0.2808,-0.1332,-0.5849,0.7492,
2025-03-10 20:04:49.453,5.0200,-2.3500,6.9000,-65.3125,179.5000,37.7500,-0.2756,-0.1180,-0.5876,0.7516,
2025-03-10 20:04:49.456,5.4400,-2.4700,7.0900,-69.6250,175.0000,41.3125,-0.2711,-0.1024,-0.5899,0.7536,
2025-03-10 20:04:49.456,5.2600,-2.7500,7.5200,-71.6250,173.6875,43.3125,-0.2672,-0.0869,-0.5919,0.7555,
2025-03-10 20:04:49.457,5.0200,-2.9400,7.8800,-73.1875,175.5625,43.7500,-0.2634,-0.0712,-0.5934,0.7572,
2025-03-10 20:04:49.493,4.8700,-3.1500,8.0100,-74.2500,179.3750,45.9375,-0.2595,-0.0553,-0.5949,0.7587,
2025-03-10 20:04:49.493,3.7300,-4.2200,7.9000,-78.2500,184.3750,47.4375,-0.2554,-0.0391,-0.5961,0.7602,
2025-03-10 20:04:49.518,3.0600,-4.6100,7.6000,-78.8125,186.1250,51.5000,-0.2512,-0.0223,-0.5972,0.7614,
2025-03-10 20:04:49.518,2.7200,-4.6800,7.1100,-74.8125,184.8125,58.0000,-0.2469,-0.0052,-0.5980,0.7625,
2025-03-10 20:04:49.519,2.4900,-4.5100,7.0100,-70.5625,180.0625,61.0000,-0.2424,0.0117,-0.5980,0.7638,
2025-03-10 20:04:49.519,2.6300,-4.1400,7.7000,-63.1250,174.0000,62.1875,-0.2378,0.0281,-0.5976,0.7652,
2025-03-10 20:04:49.539,2.8100,-3.9700,7.8800,-57.3750,169.5000,66.1875,-0.2329,0.0438,-0.5969,0.7665,
2025-03-10 20:04:49.582,3.1100,-4.2500,7.9000,-56.6250,169.1875,70.5000,-0.2278,0.0590,-0.5956,0.7681,
2025-03-10 20:04:49.582,2.9600,-4.3100,7.8500,-57.2500,171.5625,71.1250,-0.2226,0.0741,-0.5939,0.7695,
2025-03-10 20:04:49.582,2.7000,-4.0300,7.8000,-55.7500,171.8125,67.7500,-0.2172,0.0895,-0.5921,0.7709,
2025-03-10 20:04:49.582,2.4100,-3.7600,7.6300,-49.9375,168.7500,64.6875,-0.2117,0.1047,-0.5903,0.7718,
2025-03-10 20:04:49.582,2.1700,-3.6400,7.5100,-43.1250,166.8125,62.6250,-0.2060,0.1193,-0.5886,0.7726,
2025-03-10 20:04:49.597,1.5000,-3.8500,7.7500,-39.4375,163.8750,63.7500,-0.1998,0.1334,-0.5869,0.7732,
2025-03-10 20:04:49.598,1.1700,-3.9800,7.7200,-39.5625,162.1875,64.3125,-0.1935,0.1472,-0.5850,0.7737,
2025-03-10 20:04:49.625,0.8200,-3.9300,7.6600,-45.7500,160.1875,65.7500,-0.1873,0.1607,-0.5829,0.7742,
2025-03-10 20:04:49.631,0.0700,-4.5800,7.3600,-53.1250,156.6875,70.3125,-0.1815,0.1745,-0.5804,0.7744,
2025-03-10 20:04:49.631,-0.1300,-4.9000,7.0800,-54.2500,154.2500,75.1875,-0.1763,0.1884,-0.5774,0.7746,
2025-03-10 20:04:49.637,-0.4200,-5.0400,6.9600,-50.5625,150.8125,79.8750,-0.1711,0.2022,-0.5738,0.7750,
2025-03-10 20:04:49.666,-0.7800,-4.9000,6.9900,-42.9375,146.5625,83.4375,-0.1656,0.2157,-0.5699,0.7754,
2025-03-10 20:04:49.666,-1.1900,-4.4000,7.1900,-34.7500,143.3125,82.9375,-0.1599,0.2285,-0.5656,0.7761,
2025-03-10 20:04:49.668,-1.4600,-4.2400,7.2000,-29.7500,139.1875,85.1250,-0.1537,0.2407,-0.5614,0.7768,
2025-03-10 20:04:49.693,-1.5800,-4.3100,7.2600,-28.0000,136.1250,88.1875,-0.1473,0.2523,-0.5570,0.7775,
2025-03-10 20:04:49.699,-2.3900,-4.6500,7.0800,-29.8750,133.2500,87.6875,-0.1409,0.2636,-0.5522,0.7783,
2025-03-10 20:04:49.699,-2.3400,-4.6200,6.8000,-29.6875,129.7500,88.8125,-0.1346,0.2748,-0.5473,0.7790,
2025-03-10 20:04:49.719,-2.3800,-4.5800,6.5000,-25.4375,125.6250,92.8750,-0.1285,0.2857,-0.5422,0.7797,
2025-03-10 20:04:49.749,-2.4200,-4.1600,6.4100,-22.6875,119.3125,94.5625,-0.1222,0.2961,-0.5367,0.7806,
2025-03-10 20:04:49.749,-3.0200,-3.2400,6.2800,-25.3125,112.1250,92.8750,-0.1159,0.3060,-0.5311,0.7816,
2025-03-10 20:04:49.749,-3.4100,-3.2200,6.2100,-32.6250,105.0000,90.0000,-0.1101,0.3154,-0.5254,0.7825,
2025-03-10 20:04:49.770,-3.6200,-3.4800,6.2600,-41.5625,98.6875,87.1250,-0.1052,0.3246,-0.5195,0.7834,
2025-03-10 20:04:49.770,-4.2800,-4.4000,5.9800,-55.4375,87.7500,84.4375,-0.0980,0.3427,-0.5072,0.7847,
2025-03-10 20:04:49.776,-4.2500,-4.5900,5.9000,-56.9375,80.7500,83.1875,-0.0955,0.3516,-0.5007,0.7852,
2025-03-10 20:04:49.789,-4.3200,-4.5000,5.9500,-53.7500,74.6250,84.1250,-0.0933,0.3600,-0.4941,0.7858,
2025-03-10 20:04:49.818,-4.3400,-4.4900,5.5900,-49.0625,69.1250,86.0000,-0.0912,0.3679,-0.4874,0.7866,
2025-03-10 20:04:49.819,-5.1100,-4.4300,5.7800,-49.0625,59.6875,82.6250,-0.0867,0.3820,-0.4740,0.7886,
2025-03-10 20:04:49.840,-5.1600,-4.7800,5.7000,-49.4375,55.8125,82.6875,-0.0850,0.3886,-0.4673,0.7896,
2025-03-10 20:04:49.842,-5.3900,-5.1000,5.8800,-48.0625,53.2500,83.3125,-0.0833,0.3948,-0.4606,0.7906,
2025-03-10 20:04:49.861,-5.6300,-4.8400,5.7600,-41.7500,49.4375,80.0000,-0.0800,0.4065,-0.4471,0.7927,
2025-03-10 20:04:49.877,-5.8200,-4.4200,5.3700,-35.8125,45.5625,79.2500,-0.0762,0.4170,-0.4343,0.7948,
2025-03-10 20:04:49.901,-5.9500,-4.4900,5.2800,-39.6875,45.3125,78.7500,-0.0720,0.4267,-0.4216,0.7969,
2025-03-10 20:04:49.931,-5.9700,-4.8700,5.2400,-42.8750,44.0000,77.0625,-0.0688,0.4366,-0.4086,0.7986,
2025-03-10 20:04:49.937,-6.2800,-4.1300,5.2300,-32.6250,41.6875,71.3750,-0.0657,0.4461,-0.3958,0.8000,
2025-03-10 20:04:49.963,-6.2800,-3.4500,5.1500,-24.2500,31.8125,68.3125,-0.0618,0.4543,-0.3845,0.8012,
2025-03-10 20:04:49.996,-7.0400,-3.8500,5.3200,-25.3750,37.5625,66.7500,-0.0574,0.4610,-0.3737,0.8028,
2025-03-10 20:04:50.001,-6.9500,-3.9700,5.2400,-21.8125,35.3750,61.3125,-0.0535,0.4681,-0.3632,0.8038,
2025-03-10 20:04:50.027,-7.0200,-3.5100,5.1100,-14.1250,35.7500,54.8125,-0.0493,0.4748,-0.3538,0.8043,
2025-03-10 20:04:50.055,-7.1100,-3.2700,4.6800,-15.3750,33.9375,56.1875,-0.0446,0.4807,-0.3456,0.8047,
2025-03-10 20:04:50.081,-7.2500,-3.3400,4.6100,-30.1250,32.5000,55.4375,-0.0407,0.4868,-0.3366,0.8050,
2025-03-10 20:04:50.088,-7.1100,-3.3300,4.6300,-32.8750,32.1875,49.8125,-0.0386,0.4934,-0.3268,0.8052,
2025-03-10 20:04:50.113,-7.5800,-2.9800,4.6700,-24.6250,34.6875,39.2500,-0.0371,0.4999,-0.3179,0.8048,
2025-03-10 20:04:50.119,-7.2300,-3.1800,4.5900,-14.1875,30.4375,35.7500,-0.0351,0.5059,-0.3112,0.8038,
2025-03-10 20:04:50.138,-7.1700,-2.9400,3.8300,-9.1875,30.0625,35.6250,-0.0321,0.5109,-0.3054,0.8029,
2025-03-10 20:04:50.168,-7.2100,-2.7600,3.6600,-4.2500,21.8125,28.5000,-0.0287,0.5154,-0.3002,0.8021,
2025-03-10 20:04:50.178,-8.0600,-2.4200,4.2700,-4.5625,11.7500,20.1250,-0.0262,0.5182,-0.2964,0.8019,
2025-03-10 20:04:50.202,-7.6000,-3.2600,3.6100,2.0000,17.5000,18.1250,-0.0242,0.5202,-0.2935,0.8017,
2025-03-10 20:04:50.237,-7.7500,-2.6700,3.3800,10.2500,10.1250,11.4375,-0.0214,0.5223,-0.2916,0.8010,
2025-03-10 20:04:50.238,-8.2500,-2.1400,3.6800,12.4375,-3.8125,4.7500,-0.0187,0.5226,-0.2913,0.8010,
2025-03-10 20:04:50.260,-8.0000,-2.5100,3.6900,4.5000,-0.7500,1.7500,-0.0172,0.5216,-0.2918,0.8015,
2025-03-10 20:04:50.291,-8.1900,-3.3300,3.9000,2.2500,-4.5000,0.6875,-0.0167,0.5213,-0.2919,0.8017,
2025-03-10 20:04:50.301,-8.2300,-2.4800,3.7400,12.2500,-9.3750,-4.8750,-0.0164,0.5203,-0.2924,0.8022,
2025-03-10 20:04:50.322,-8.0100,-2.8800,3.9100,6.3750,-11.1875,-4.7500,-0.0156,0.5183,-0.2941,0.8029,
2025-03-10 20:04:50.353,-8.0300,-3.6500,4.2600,-2.1875,-13.2500,-4.4375,-0.0162,0.5165,-0.2950,0.8037,
2025-03-10 20:04:50.357,-7.8900,-3.4900,4.1900,1.7500,-11.8750,-5.3750,-0.0173,0.5148,-0.2956,0.8046,
2025-03-10 20:04:50.387,-7.8000,-2.2700,4.0500,11.8125,-16.8750,-11.8750,-0.0173,0.5125,-0.2976,0.8053,
2025-03-10 20:04:50.409,-7.7300,-2.7700,4.5900,1.3750,-21.4375,-13.6875,-0.0181,0.5095,-0.3001,0.8063,
2025-03-10 20:04:50.434,-7.6400,-3.6400,4.5200,2.2500,-14.7500,-13.6250,-0.0201,0.5067,-0.3019,0.8073,
2025-03-10 20:04:50.438,-7.3900,-3.3100,4.2600,14.1250,-16.6875,-15.1250,-0.0214,0.5044,-0.3043,0.8078,
2025-03-10 20:04:50.477,-7.3500,-2.6100,4.3700,16.8750,-20.4375,-17.3125,-0.0215,0.5010,-0.3077,0.8086,
2025-03-10 20:04:50.480,-8.0200,-2.1900,4.7400,15.5000,-29.6250,-31.8750,-0.0227,0.4963,-0.3123,0.8097,
2025-03-10 20:04:50.507,-7.5300,-2.9600,4.7600,20.3125,-24.7500,-37.7500,-0.0248,0.4915,-0.3181,0.8103,
2025-03-10 20:04:50.542,-7.1900,-2.9500,4.2600,31.5000,-31.7500,-41.6875,-0.0262,0.4865,-0.3252,0.8105,
2025-03-10 20:04:50.559,-7.2100,-2.3500,4.1800,35.3125,-41.5000,-47.5000,-0.0271,0.4797,-0.3337,0.8110,
2025-03-10 20:04:50.559,-7.0700,-2.2100,4.8100,27.3750,-44.3750,-51.1875,-0.0292,0.4718,-0.3428,0.8118,
2025-03-10 20:04:50.571,-6.8000,-2.6400,4.9400,-0.3125,-40.0000,-52.3750,-0.0317,0.4682,-0.3468,0.8121,
2025-03-10 20:04:50.589,-6.5000,-3.5700,5.0800,-12.0000,-35.8750,-56.0000,-0.0388,0.4630,-0.3534,0.8119,
2025-03-10 20:04:50.619,-6.7600,-3.6900,4.9300,-3.5625,-39.2500,-60.0625,-0.0466,0.4579,-0.3605,0.8113,
2025-03-10 20:04:50.625,-6.8500,-3.5400,4.9400,19.7500,-58.2500,-65.0625,-0.0500,0.4541,-0.3650,0.8112,
2025-03-10 20:04:50.666,-6.5000,-3.5800,5.3500,24.0000,-65.8750,-65.4375,-0.0558,0.4436,-0.3751,0.8120,
2025-03-10 20:04:50.679,-6.0800,-4.3500,5.6200,18.8125,-64.0625,-67.1250,-0.0621,0.4327,-0.3851,0.8128,
2025-03-10 20:04:50.679,-5.8300,-4.4400,5.6100,16.6875,-60.1875,-66.3750,-0.0654,0.4276,-0.3900,0.8129,
2025-03-10 20:04:50.690,-5.4400,-4.1200,5.8300,18.6875,-62.4375,-65.5000,-0.0717,0.4173,-0.3995,0.8131,
2025-03-10 20:04:50.715,-4.6100,-3.3300,5.5600,18.0000,-73.4375,-70.3125,-0.0787,0.4053,-0.4094,0.8136,
2025-03-10 20:04:50.718,-4.7900,-3.3700,5.7100,13.6875,-72.5625,-71.6250,-0.0828,0.3993,-0.4143,0.8136,
2025-03-10 20:04:50.766,-4.9000,-4.6600,6.1300,-7.5000,-74.5000,-74.6250,-0.0931,0.3882,-0.4233,0.8133,
2025-03-10 20:04:50.766,-4.4400,-5.1000,6.4800,-13.8750,-76.6875,-79.1250,-0.1056,0.3776,-0.4317,0.8124,
2025-03-10 20:04:50.774,-4.1800,-4.4600,6.5800,-4.8125,-77.7500,-81.4375,-0.1114,0.3716,-0.4365,0.8118,
2025-03-10 20:04:50.801,-4.1500,-3.5300,6.5900,18.1250,-79.7500,-82.2500,-0.1206,0.3581,-0.4470,0.8108,
2025-03-10 20:04:50.805,-3.1900,-5.1300,6.8400,10.0625,-80.3750,-78.7500,-0.1295,0.3444,-0.4570,0.8098,
2025-03-10 20:04:50.841,-3.0900,-5.3100,7.0600,3.1250,-80.0625,-78.9375,-0.1347,0.3379,-0.4616,0.8091,
2025-03-10 20:04:50.841,-2.8600,-4.3600,7.4300,13.6875,-87.2500,-81.0000,-0.1447,0.3236,-0.4711,0.8077,
2025-03-10 20:04:50.866,-2.4400,-3.3400,7.0600,29.8125,-97.6250,-82.5625,-0.1530,0.3064,-0.4814,0.8068,
2025-03-10 20:04:50.868,-2.2500,-3.4200,6.9900,25.6875,-99.1250,-79.3125,-0.1573,0.2975,-0.4862,0.8064,
2025-03-10 20:04:50.896,-1.8000,-5.8900,6.9400,0.8125,-100.0625,-79.7500,-0.1683,0.2812,-0.4946,0.8050,
2025-03-10 20:04:50.907,-1.4600,-5.2000,7.2300,7.1875,-104.4375,-80.7500,-0.1804,0.2646,-0.5026,0.8030,
2025-03-10 20:04:50.943,-1.4800,-4.8300,7.2400,23.0000,-108.1250,-80.1875,-0.1852,0.2551,-0.5069,0.8023,
2025-03-10 20:04:50.947,-1.1100,-4.1200,7.2500,38.2500,-117.3750,-71.6875,-0.1932,0.2340,-0.5149,0.8018,
2025-03-10 20:04:50.955,-0.4900,-5.6100,7.1700,7.3750,-114.1250,-65.6875,-0.2036,0.2144,-0.5206,0.8010,
2025-03-10 20:04:50.987,-1.0700,-5.5000,7.5100,-6.2500,-110.8125,-69.6875,-0.2102,0.2060,-0.5232,0.7998,
2025-03-10 20:04:50.992,-0.1700,-4.5700,7.7100,-1.6250,-124.3750,-76.1250,-0.2241,0.1874,-0.5287,0.7969,
2025-03-10 20:04:51.009,0.8500,-4.7400,6.8800,2.3125,-127.9375,-72.9375,-0.2374,0.1670,-0.5339,0.7942,
2025-03-10 20:04:51.017,1.3300,-4.9900,6.7800,-0.7500,-123.9375,-66.5625,-0.2440,0.1573,-0.5358,0.7929,
2025-03-10 20:04:51.046,1.4300,-5.5300,7.2300,-16.6250,-121.6250,-67.0000,-0.2583,0.1394,-0.5391,0.7894,
2025-03-10 20:04:51.048,1.3800,-5.5400,7.5700,-20.0000,-123.6875,-70.4375,-0.2661,0.1305,-0.5408,0.7872,
2025-03-10 20:04:51.080,2.1200,-5.0600,7.5300,-9.4375,-130.8125,-76.9375,-0.2812,0.1110,-0.5446,0.7823,
2025-03-10 20:04:51.100,2.8100,-5.0000,6.9700,2.8125,-125.5000,-76.5000,-0.2943,0.0905,-0.5486,0.7773,
2025-03-10 20:04:51.105,3.1500,-5.4100,7.3600,8.8750,-126.9375,-69.6250,-0.3059,0.0696,-0.5517,0.7728,
2025-03-10 20:04:51.131,3.2400,-5.5400,7.7700,8.6875,-130.6250,-65.6875,-0.3118,0.0590,-0.5526,0.7707,
2025-03-10 20:04:51.136,3.7500,-5.6500,7.9100,9.4375,-135.8750,-63.6250,-0.3178,0.0480,-0.5532,0.7685,
2025-03-10 20:04:51.137,3.9700,-5.7800,7.3800,9.5625,-138.3750,-64.6875,-0.3239,0.0369,-0.5536,0.7663,
2025-03-10 20:04:51.164,3.9200,-5.6700,7.1400,10.0000,-133.2500,-66.6875,-0.3297,0.0259,-0.5543,0.7638,
2025-03-10 20:04:51.168,4.1600,-5.0600,7.2600,14.0000,-130.1250,-67.5000,-0.3350,0.0150,-0.5551,0.7612,
2025-03-10 20:04:51.168,4.3600,-4.8600,7.3100,18.6875,-130.5625,-68.1250,-0.3400,0.0038,-0.5557,0.7587,
2025-03-10 20:04:51.188,4.5200,-4.8100,7.4700,20.7500,-130.5000,-66.3750,-0.3447,-0.0074,-0.5562,0.7561,
2025-03-10 20:04:51.225,4.7100,-4.8200,7.6100,19.0625,-132.0625,-63.3125,-0.3497,-0.0186,-0.5563,0.7536,
2025-03-10 20:04:51.225,5.3000,-4.7900,7.6500,16.5625,-135.4375,-61.3750,-0.3549,-0.0298,-0.5562,0.7509,
2025-03-10 20:04:51.225,5.8800,-5.0200,6.9600,13.3125,-139.6875,-60.8125,-0.3603,-0.0411,-0.5558,0.7480,
2025-03-10 20:04:51.225,6.0200,-5.1700,6.3900,9.4375,-136.5625,-60.4375,-0.3660,-0.0521,-0.5554,0.7449,
2025-03-10 20:04:51.229,5.7900,-5.2700,6.9800,12.1875,-126.0625,-59.2500,-0.3708,-0.0624,-0.5551,0.7419,
2025-03-10 20:04:51.250,6.3300,-5.4200,7.2200,19.0000,-124.8750,-58.6250,-0.3751,-0.0729,-0.5547,0.7391,
2025-03-10 20:04:51.258,6.7700,-5.3500,7.4200,28.5000,-128.0000,-57.0000,-0.3790,-0.0841,-0.5540,0.7365,
2025-03-10 20:04:51.258,6.9900,-5.0700,7.5800,34.6250,-128.6875,-50.9375,-0.3824,-0.0953,-0.5528,0.7342,
2025-03-10 20:04:51.313,7.3200,-4.3600,7.3900,32.5000,-128.3750,-47.1875,-0.3860,-0.1063,-0.5513,0.7320,
2025-03-10 20:04:51.313,7.2400,-4.2600,6.8700,29.1875,-128.8750,-47.5000,-0.3898,-0.1172,-0.5497,0.7295,
2025-03-10 20:04:51.313,6.8600,-4.1300,6.5800,25.6875,-126.2500,-50.3125,-0.3898,-0.1172,-0.5497,0.7295,
2025-03-10 20:04:51.317,6.6700,-4.0000,6.5400,23.8750,-123.0625,-52.6875,-0.3935,-0.1278,-0.5483,0.7267,
2025-03-10 20:04:51.317,7.0100,-4.0600,6.3600,20.0000,-124.1250,-54.8750,-0.3972,-0.1382,-0.5472,0.7237,
2025-03-10 20:04:51.317,7.4000,-4.2200,6.2500,17.5625,-124.6250,-53.0000,-0.4010,-0.1486,-0.5461,0.7204,
2025-03-10 20:04:51.346,7.8200,-4.1400,6.2700,15.6875,-124.0625,-46.5625,-0.4050,-0.1588,-0.5449,0.7169,
2025-03-10 20:04:51.349,8.8700,-4.0800,6.0600,15.7500,-124.5000,-40.5625,-0.4091,-0.1686,-0.5432,0.7136,
2025-03-10 20:04:51.349,9.4500,-4.0000,5.8100,15.5000,-125.5625,-36.6875,-0.4133,-0.1782,-0.5411,0.7104,
2025-03-10 20:04:51.403,9.6500,-4.0300,5.4900,11.8125,-125.2500,-35.9375,-0.4175,-0.1877,-0.5386,0.7073,
2025-03-10 20:04:51.407,9.5800,-4.3800,5.2800,8.8125,-120.8125,-40.0000,-0.4219,-0.1970,-0.5361,0.7041,
2025-03-10 20:04:51.407,8.4100,-4.8000,5.6600,12.0625,-114.3125,-45.0625,-0.4261,-0.2060,-0.5340,0.7005,
2025-03-10 20:04:51.407,8.2000,-4.7600,5.7400,23.5000,-110.8750,-48.4375,-0.4297,-0.2149,-0.5323,0.6970,
2025-03-10 20:04:51.407,8.1800,-4.5100,5.7800,40.1875,-110.1250,-45.8750,-0.4324,-0.2243,-0.5307,0.6936,
2025-03-10 20:04:51.407,8.4100,-3.4000,5.6900,55.2500,-108.9375,-38.7500,-0.4341,-0.2342,-0.5286,0.6909,
2025-03-10 20:04:51.435,8.6700,-2.8400,5.5700,65.5000,-107.7500,-31.6875,-0.4350,-0.2444,-0.5257,0.6889,
2025-03-10 20:04:51.435,8.9600,-2.4600,5.4200,67.5625,-107.1250,-27.3750,-0.4353,-0.2548,-0.5222,0.6877,
2025-03-10 20:04:51.437,9.2900,-2.1800,5.2500,62.6875,-106.3750,-25.3125,-0.4355,-0.2650,-0.5184,0.6866,
2025-03-10 20:04:51.460,9.2800,-2.3000,4.9300,55.1875,-105.7500,-25.0625,-0.4359,-0.2748,-0.5145,0.6854,
2025-03-10 20:04:51.465,9.0900,-2.5300,4.9300,49.0625,-102.1250,-27.6875,-0.4367,-0.2842,-0.5108,0.6838,
2025-03-10 20:04:51.466,9.1600,-2.7100,4.9100,45.2500,-98.0000,-30.3750,-0.4376,-0.2933,-0.5074,0.6820,
2025-03-10 20:04:51.492,9.5800,-2.9600,4.6700,42.8750,-96.1250,-29.7500,-0.4384,-0.3019,-0.5044,0.6799,
2025-03-10 20:04:51.492,9.6900,-2.8000,4.5100,43.0625,-93.1875,-26.2500,-0.4393,-0.3104,-0.5014,0.6777,
2025-03-10 20:04:51.501,9.7700,-2.5800,4.4500,44.1250,-89.8125,-20.1875,-0.4400,-0.3185,-0.4984,0.6757,
2025-03-10 20:04:51.519,9.9800,-2.3700,4.4100,41.7500,-87.8750,-16.0000,-0.4407,-0.3262,-0.4949,0.6741,
2025-03-10 20:04:51.527,10.4200,-2.1600,4.3400,29.7500,-82.8125,-15.3125,-0.4416,-0.3336,-0.4914,0.6725,
2025-03-10 20:04:51.529,10.3900,-2.1200,4.3500,29.7500,-82.8125,-15.3125,-0.4429,-0.3401,-0.4883,0.6706,
2025-03-10 20:04:51.548,10.3300,-2.1700,4.3200,24.3125,-78.8750,-16.7500,-0.4442,-0.3466,-0.4852,0.6687,
2025-03-10 20:04:51.556,9.5700,-2.0200,4.1500,21.7500,-71.6250,-21.1875,-0.4455,-0.3527,-0.4825,0.6666,
2025-03-10 20:04:51.558,9.1400,-2.1000,4.1500,23.6250,-68.2500,-23.3750,-0.4465,-0.3583,-0.4803,0.6644,
2025-03-10 20:04:51.613,9.0600,-2.1900,4.0000,28.6875,-69.1250,-25.2500,-0.4473,-0.3640,-0.4783,0.6623,
2025-03-10 20:04:51.617,8.9400,-2.2200,3.8700,34.2500,-69.8125,-26.8125,-0.4477,-0.3700,-0.4762,0.6602,
2025-03-10 20:04:51.617,9.1800,-1.9800,3.5500,40.0000,-71.1875,-27.1250,-0.4478,-0.3763,-0.4740,0.6582,
2025-03-10 20:04:51.617,9.4200,-1.8700,3.3800,42.5625,-73.1250,-28.5625,-0.4475,-0.3829,-0.4715,0.6564,
2025-03-10 20:04:51.618,9.6000,-1.8600,3.1400,42.0000,-73.0625,-29.6875,-0.4471,-0.3896,-0.4690,0.6545,
2025-03-10 20:04:51.618,10.1700,-1.8800,2.7900,38.4375,-71.3750,-29.7500,-0.4466,-0.3965,-0.4665,0.6525,
2025-03-10 20:04:51.652,10.1600,-1.9600,2.7200,32.8750,-68.0625,-29.5000,-0.4464,-0.4030,-0.4641,0.6503,
2025-03-10 20:04:51.668,9.9000,-2.0300,2.6400,27.6250,-60.5625,-28.2500,-0.4462,-0.4092,-0.4620,0.6481,
2025-03-10 20:04:51.668,9.5700,-1.9900,2.7100,25.5000,-53.5625,-25.3750,-0.4461,-0.4146,-0.4603,0.6459,
2025-03-10 20:04:51.668,9.1500,-2.0100,2.6500,25.2500,-50.8125,-21.3125,-0.4459,-0.4195,-0.4588,0.6440,
2025-03-10 20:04:51.672,9.1200,-1.9100,2.5900,25.1250,-51.1875,-16.9375,-0.4457,-0.4241,-0.4572,0.6423,
2025-03-10 20:04:51.677,9.2500,-1.5800,2.5200,23.0625,-52.0000,-14.1250,-0.4457,-0.4284,-0.4553,0.6408,
2025-03-10 20:04:51.710,9.3300,-1.2900,2.4000,17.6250,-51.1875,-12.2500,-0.4459,-0.4327,-0.4532,0.6392,
2025-03-10 20:04:51.710,9.5500,-1.1800,2.4200,10.0625,-48.0625,-12.5000,-0.4465,-0.4366,-0.4513,0.6375,
2025-03-10 20:04:51.710,9.6800,-1.2200,2.4400,3.1250,-44.2500,-13.1875,-0.4473,-0.4400,-0.4498,0.6356,
2025-03-10 20:04:51.747,9.4200,-1.6200,2.6200,-2.7500,-36.3125,-16.0625,-0.4494,-0.4456,-0.4480,0.6315,
2025-03-10 20:04:51.821,9.3300,-1.8300,2.6500,-1.6875,-33.0000,-17.1875,-0.4503,-0.4481,-0.4476,0.6294,
2025-03-10 20:04:51.826,9.3100,-1.9700,2.6500,0.3750,-30.6250,-16.3750,-0.4510,-0.4504,-0.4473,0.6274,
2025-03-10 20:04:51.826,9.3900,-2.0400,2.5600,1.5000,-29.0000,-14.3125,-0.4515,-0.4527,-0.4470,0.6256,
2025-03-10 20:04:51.827,9.8800,-2.0400,2.3400,6.0625,-24.5000,-10.5625,-0.4524,-0.4568,-0.4460,0.6227,
2025-03-10 20:04:51.827,10.1100,-1.8700,2.1000,9.6875,-20.3125,-7.7500,-0.4526,-0.4606,-0.4447,0.6207,
2025-03-10 20:04:51.827,9.9800,-1.7900,2.0100,7.6875,-14.5000,-6.6250,-0.4525,-0.4639,-0.4433,0.6193,
2025-03-10 20:04:51.857,9.6600,-1.5200,1.9700,8.9375,-9.1250,-5.0000,-0.4521,-0.4662,-0.4424,0.6185,
2025-03-10 20:04:51.881,9.5900,-1.2700,1.9500,9.4375,-5.9375,-3.5000,-0.4514,-0.4682,-0.4415,0.6182,
2025-03-10 20:04:51.881,9.5100,-1.2600,1.7600,6.7500,-1.1875,-3.5000,-0.4506,-0.4696,-0.4407,0.6182,
2025-03-10 20:04:51.914,9.4200,-1.4100,1.5800,6.3125,2.0000,-3.6875,-0.4497,-0.4704,-0.4406,0.6184,
2025-03-10 20:04:51.919,9.3600,-1.4900,1.5500,7.6875,2.1250,-2.6250,-0.4485,-0.4709,-0.4406,0.6188,
2025-03-10 20:04:51.948,9.3400,-1.3600,1.5300,8.9375,1.3125,-1.1875,-0.4474,-0.4715,-0.4404,0.6194,
2025-03-10 20:04:51.970,9.3500,-1.1800,1.4900,8.9375,0.1875,-0.1250,-0.4463,-0.4722,-0.4398,0.6200,
2025-03-10 20:04:51.978,9.4600,-1.1800,1.4600,6.0625,-0.0625,0.3750,-0.4454,-0.4728,-0.4391,0.6207,
2025-03-10 20:04:52.007,9.5400,-1.2700,1.4500,3.9375,-0.2500,0.3750,-0.4448,-0.4732,-0.4387,0.6211,
2025-03-10 20:04:52.028,9.6300,-1.3200,1.4600,3.4375,-2.2500,0.7500,-0.4445,-0.4736,-0.4383,0.6213,
2025-03-10 20:04:52.028,9.7600,-1.1500,1.4700,3.6250,-2.8125,0.8125,-0.4444,-0.4738,-0.4381,0.6214,
2025-03-10 20:04:52.063,9.6900,-1.1600,1.5200,2.1250,-3.0000,-0.0625,-0.4443,-0.4744,-0.4376,0.6214,
2025-03-10 20:04:52.066,9.6200,-1.2500,1.5300,1.4375,-3.6875,-0.5000,-0.4443,-0.4748,-0.4372,0.6213,
2025-03-10 20:04:52.089,9.5700,-1.3300,1.5900,1.3750,-3.8750,-0.7500,-0.4444,-0.4751,-0.4370,0.6211,
2025-03-10 20:04:52.098,9.4500,-1.4000,1.6400,0.6875,-4.4375,-1.5625,-0.4445,-0.4757,-0.4367,0.6209,
2025-03-10 20:04:52.116,9.4000,-1.3700,1.5900,1.5625,-5.0625,-2.1875,-0.4445,-0.4763,-0.4365,0.6205,
2025-03-10 20:04:52.127,9.4300,-1.4800,1.4800,2.6250,-5.1875,-2.0625,-0.4446,-0.4767,-0.4363,0.6203,
2025-03-10 20:04:52.181,9.4100,-1.5600,1.4000,4.7500,-5.0000,-1.1875,-0.4445,-0.4775,-0.4358,0.6200,
2025-03-10 20:04:52.181,9.4600,-1.4800,1.3800,5.0625,-5.5000,0.0625,-0.4443,-0.4784,-0.4351,0.6200,
2025-03-10 20:04:52.181,9.5900,-1.3800,1.4500,5.0000,-5.5625,0.1250,-0.4443,-0.4788,-0.4346,0.6200,
2025-03-10 20:04:52.216,9.7300,-1.3100,1.5600,5.2500,-4.0625,-0.7500,-0.4442,-0.4797,-0.4338,0.6199,
2025-03-10 20:04:52.216,9.6900,-1.3300,1.6300,5.8125,-3.5000,-1.5625,-0.4438,-0.4806,-0.4332,0.6200,
2025-03-10 20:04:52.230,9.5600,-1.3400,1.4700,6.8125,-4.0625,-2.7500,-0.4435,-0.4811,-0.4329,0.6201,
2025-03-10 20:04:52.248,9.5700,-1.2600,1.3200,5.9375,-5.5000,-3.3750,-0.4428,-0.4822,-0.4324,0.6200,
2025-03-10 20:04:52.268,9.5400,-1.1200,1.3300,5.3125,-5.3750,-3.3750,-0.4423,-0.4835,-0.4318,0.6198,
2025-03-10 20:04:52.278,9.5300,-1.0500,1.3200,4.6875,-4.8750,-3.6250,-0.4421,-0.4841,-0.4317,0.6196,
2025-03-10 20:04:52.315,9.5400,-1.0400,1.2800,5.4375,-4.3750,-3.8750,-0.4416,-0.4852,-0.4313,0.6193,
2025-03-10 20:04:52.318,9.5100,-1.1000,1.3000,5.2500,-3.8125,-3.9375,-0.4410,-0.4864,-0.4310,0.6190,
2025-03-10 20:04:52.328,9.4400,-1.1200,1.2200,4.1250,-3.9375,-4.5000,-0.4407,-0.4869,-0.4309,0.6189,
2025-03-10 20:04:52.349,9.4600,-1.0000,1.0900,2.0625,-5.7500,-5.5000,-0.4402,-0.4881,-0.4308,0.6184,
2025-03-10 20:04:52.372,9.5800,-0.9400,1.0000,1.0625,-6.5000,-6.1875,-0.4400,-0.4895,-0.4308,0.6174,
2025-03-10 20:04:52.378,9.6500,-0.9700,1.0500,0.7500,-7.0000,-6.8750,-0.4400,-0.4902,-0.4309,0.6168,
2025-03-10 20:04:52.439,9.6800,-1.0300,1.0900,3.4375,-7.2500,-6.3125,-0.4398,-0.4917,-0.4310,0.6156,
2025-03-10 20:04:52.439,9.6700,-1.0500,1.2100,4.9375,-7.2500,-5.8125,-0.4394,-0.4933,-0.4307,0.6148,
2025-03-10 20:04:52.439,9.6700,-1.0500,1.2300,5.0000,-6.5625,-5.4375,-0.4391,-0.4941,-0.4305,0.6146,
2025-03-10 20:04:52.451,9.6600,-1.1400,1.1800,3.9375,-6.2500,-4.6875,-0.4387,-0.4955,-0.4302,0.6140,
2025-03-10 20:04:52.479,9.6700,-1.1300,1.0900,4.5000,-6.0625,-4.2500,-0.4383,-0.4968,-0.4299,0.6134,
2025-03-10 20:04:52.486,9.6600,-1.1400,1.1000,5.1875,-6.5625,-2.3125,-0.4382,-0.4974,-0.4296,0.6132,
2025-03-10 20:04:52.513,9.6500,-1.1300,1.0700,5.0625,-6.8750,0.2500,-0.4379,-0.4986,-0.4288,0.6129,
2025-03-10 20:04:52.538,9.6900,-1.0100,1.1100,3.8750,-6.6250,1.1875,-0.4380,-0.4996,-0.4279,0.6127,
2025-03-10 20:04:52.538,9.7400,-1.0400,1.1000,3.2500,-6.3750,2.0000,-0.4382,-0.5000,-0.4274,0.6127,
2025-03-10 20:04:52.547,9.7600,-1.0300,1.1900,1.9375,-4.5625,3.1250,-0.4385,-0.5005,-0.4265,0.6126,
2025-03-10 20:04:52.573,9.7900,-1.1800,1.2700,1.6250,-3.0625,4.2500,-0.4390,-0.5006,-0.4257,0.6127,
2025-03-10 20:04:52.581,9.8400,-1.3100,1.3300,4.5000,0.3750,6.0000,-0.4391,-0.5006,-0.4253,0.6130,
2025-03-10 20:04:52.601,9.9800,-1.6400,1.4600,9.5000,5.0625,8.6250,-0.4390,-0.5004,-0.4242,0.6140,
2025-03-10 20:04:52.634,9.8700,-2.0000,1.4600,11.5625,6.0625,9.7500,-0.4382,-0.4998,-0.4228,0.6159,
2025-03-10 20:04:52.634,9.6700,-2.2100,1.4500,12.3125,6.2500,10.8750,-0.4378,-0.4995,-0.4219,0.6170,
2025-03-10 20:04:52.661,9.6300,-2.2200,1.5100,14.6875,6.8750,12.7500,-0.4370,-0.4989,-0.4200,0.6195,
2025-03-10 20:04:52.667,9.2700,-2.7200,1.5500,33.3750,13.1250,16.9375,-0.4346,-0.4985,-0.4168,0.6236,
2025-03-10 20:04:52.693,9.2400,-3.0600,1.5900,43.7500,15.4375,20.6875,-0.4326,-0.4985,-0.4144,0.6266,
2025-03-10 20:04:52.701,9.9600,-4.1100,1.6600,52.2500,18.8750,32.1250,-0.4284,-0.4980,-0.4083,0.6338,
2025-03-10 20:04:52.720,9.8700,-4.3900,1.9500,53.0625,23.3750,42.6250,-0.4246,-0.4963,-0.4012,0.6423,
2025-03-10 20:04:52.731,9.7400,-4.2300,2.0700,57.5000,24.7500,47.2500,-0.4226,-0.4952,-0.3971,0.6469,
2025-03-10 20:04:52.880,9.7000,-3.5700,2.1400,72.0625,25.0000,58.4375,-0.4180,-0.4930,-0.3870,0.6575,
2025-03-10 20:04:52.881,10.2600,-3.4800,1.9000,72.7500,25.3750,73.8125,-0.4139,-0.4901,-0.3749,0.6693,
2025-03-10 20:04:52.881,10.4700,-3.5300,1.9700,65.0625,25.5000,82.0000,-0.4128,-0.4878,-0.3684,0.6752,
2025-03-10 20:04:52.881,10.7000,-3.4300,2.2300,46.2500,27.5000,91.9375,-0.4127,-0.4816,-0.3558,0.6865,
2025-03-10 20:04:52.881,10.5200,-2.4700,2.5700,43.9375,37.3125,96.0625,-0.4133,-0.4735,-0.3435,0.6979,
2025-03-10 20:04:52.881,10.3400,-2.2900,2.6700,43.7500,42.1875,97.0625,-0.4133,-0.4688,-0.3375,0.7039,
2025-03-10 20:04:52.881,10.6200,-3.3100,2.5700,35.9375,47.5000,102.0625,-0.4140,-0.4584,-0.3257,0.7158,
2025-03-10 20:04:52.881,10.6300,-4.6000,2.6400,16.6875,51.3750,111.6875,-0.4170,-0.4458,-0.3142,0.7271,
2025-03-10 20:04:52.881,10.0500,-4.7400,2.7600,7.6250,52.8750,118.1250,-0.4196,-0.4386,-0.3085,0.7324,
2025-03-10 20:04:52.898,9.7500,-4.8200,2.7800,-2.0625,56.3750,129.6250,-0.4261,-0.4226,-0.2967,0.7428,
2025-03-10 20:04:52.919,9.8000,-6.0100,3.4600,-16.7500,62.1250,148.4375,-0.4346,-0.4039,-0.2839,0.7532,
2025-03-10 20:04:53.059,10.4800,-6.5500,3.7500,-22.2500,63.4375,161.7500,-0.4400,-0.3934,-0.2767,0.7584,
2025-03-10 20:04:53.067,10.6800,-6.2900,4.0200,-24.1250,69.5000,182.0625,-0.4514,-0.3702,-0.2602,0.7691,
2025-03-10 20:04:53.067,10.1700,-5.6600,3.9400,-21.3750,73.7500,183.3125,-0.4569,-0.3579,-0.2518,0.7745,
2025-03-10 20:04:53.067,9.3700,-6.3300,3.6800,-5.1250,75.8750,184.3125,-0.4656,-0.3332,-0.2340,0.7858,
2025-03-10 20:04:53.067,9.2400,-7.8600,4.3300,-4.5000,79.8125,201.6250,-0.4738,-0.3069,-0.2142,0.7971,
2025-03-10 20:04:53.067,8.7000,-7.1700,4.8300,-7.1875,86.0000,208.6250,-0.4823,-0.2783,-0.1932,0.8078,
2025-03-10 20:04:53.067,8.2600,-7.3600,4.7100,3.3125,87.6875,205.1875,-0.4854,-0.2640,-0.1827,0.8132,
2025-03-10 20:04:53.067,7.4600,-8.4100,4.6100,6.8125,87.6875,203.6875,-0.4902,-0.2353,-0.1615,0.8235,
2025-03-10 20:04:53.067,6.8700,-9.2800,5.2500,4.6875,88.1875,206.6250,-0.4927,-0.2206,-0.1506,0.8281,
2025-03-10 20:04:53.067,6.8500,-9.2400,5.5000,8.7500,89.8750,208.6875,-0.4948,-0.2057,-0.1396,0.8327,
2025-03-10 20:04:53.079,6.9000,-9.2600,5.7200,15.2500,92.7500,212.6250,-0.4962,-0.1905,-0.1282,0.8373,
2025-03-10 20:04:53.086,5.8300,-8.2700,5.3800,24.6250,97.5625,215.1875,-0.4968,-0.1748,-0.1167,0.8420,
2025-03-10 20:04:53.117,5.5600,-7.9800,4.8900,37.3125,100.4375,212.8750,-0.4962,-0.1591,-0.1052,0.8470,
2025-03-10 20:04:53.121,5.3400,-7.8800,4.6200,50.2500,100.9375,210.5000,-0.4944,-0.1434,-0.0937,0.8522,
2025-03-10 20:04:53.122,5.2100,-7.8700,4.7100,55.3125,99.0625,208.9375,-0.4921,-0.1280,-0.0821,0.8572,
2025-03-10 20:04:53.128,5.2700,-7.7400,4.9000,55.3750,96.1250,208.4375,-0.4895,-0.1127,-0.0704,0.8618,
2025-03-10 20:04:53.138,5.0000,-7.3900,4.9800,53.1250,98.9375,208.2500,-0.4870,-0.0972,-0.0588,0.8660,
2025-03-10 20:04:53.146,4.6300,-7.0400,5.1200,52.5000,105.5000,207.3750,-0.4842,-0.0812,-0.0475,0.8699,
2025-03-10 20:04:53.159,4.0000,-7.0900,4.9700,56.6875,108.1875,203.0625,-0.4809,-0.0651,-0.0366,0.8736,
2025-03-10 20:04:53.168,3.7000,-6.9800,4.8100,62.3125,108.6875,199.1250,-0.4770,-0.0493,-0.0260,0.8771,
2025-03-10 20:04:53.177,3.1000,-6.8000,4.8700,63.7500,109.3750,196.9375,-0.4727,-0.0333,-0.0155,0.8804,
2025-03-10 20:04:53.189,2.8100,-6.6500,4.7900,61.0625,111.0625,197.0625,-0.4685,-0.0173,-0.0051,0.8833,
2025-03-10 20:04:53.196,2.3100,-6.5500,5.1000,61.0625,113.4375,197.4375,-0.4641,-0.0010,0.0052,0.8858,
2025-03-10 20:04:53.256,1.7700,-6.1900,5.4000,64.4375,116.1875,194.6875,-0.4593,0.0153,0.0152,0.8880,
2025-03-10 20:04:53.256,1.5100,-5.5700,5.5600,71.0625,117.8125,188.6250,-0.4538,0.0316,0.0247,0.8902,
2025-03-10 20:04:53.257,1.0200,-5.0700,5.1500,76.6875,119.0625,184.3125,-0.4476,0.0477,0.0338,0.8923,
2025-03-10 20:04:53.257,0.5100,-5.3100,4.9800,79.2500,122.5000,181.9375,-0.4412,0.0641,0.0425,0.8941,
2025-03-10 20:04:53.257,0.3600,-5.4000,4.9800,81.6875,124.1875,179.5625,-0.4412,0.0641,0.0425,0.8941,
2025-03-10 20:04:53.257,0.3500,-5.0300,5.1600,85.0000,122.1875,174.9375,-0.4345,0.0804,0.0510,0.8956,
2025-03-10 20:04:53.269,-0.4700,-4.3300,5.2600,83.8125,121.3125,168.5000,-0.4272,0.0964,0.0591,0.8970,
2025-03-10 20:04:53.278,-0.6700,-4.2600,5.2800,76.1250,123.3125,163.0625,-0.4200,0.1121,0.0668,0.8981,
2025-03-10 20:04:53.290,-1.2000,-4.2200,5.2400,66.7500,124.5000,160.4375,-0.4133,0.1277,0.0741,0.8985,
2025-03-10 20:04:53.296,-1.8200,-4.3100,5.2300,60.5625,121.9375,155.9375,-0.4073,0.1431,0.0812,0.8984,
2025-03-10 20:04:53.310,-2.3600,-3.8600,5.1900,63.1250,119.1875,149.4375,-0.4015,0.1581,0.0881,0.8978,
2025-03-10 20:04:53.316,-2.4500,-3.9900,5.2100,64.0625,115.1250,142.3125,-0.3956,0.1727,0.0945,0.8971,
2025-03-10 20:04:53.327,-2.6000,-4.6100,5.2000,60.5625,108.7500,131.0000,-0.3895,0.1866,0.1005,0.8963,
2025-03-10 20:04:53.340,-3.4900,-4.3300,5.1400,61.1875,106.7500,127.8750,-0.3838,0.1997,0.1059,0.8953,
2025-03-10 20:04:53.356,-3.6700,-3.9000,5.2300,69.3125,107.6875,120.1250,-0.3716,0.2252,0.1160,0.8932,
2025-03-10 20:04:53.373,-3.7300,-3.8400,5.2800,70.6875,107.6250,113.6875,-0.3651,0.2377,0.1203,0.8920,
2025-03-10 20:04:53.377,-3.9800,-3.9400,5.3800,67.2500,105.5625,108.2500,-0.3585,0.2500,0.1241,0.8908,
2025-03-10 20:04:53.388,-3.7900,-4.1900,5.2700,61.3750,103.5625,104.5625,-0.3522,0.2619,0.1276,0.8894,
2025-03-10 20:04:53.423,-4.2700,-4.4100,5.3300,59.9375,102.5625,99.6875,-0.3464,0.2734,0.1310,0.8877,
2025-03-10 20:04:53.441,-4.4000,-4.2300,5.3500,61.8750,105.3750,96.1875,-0.3407,0.2847,0.1342,0.8859,
2025-03-10 20:04:53.441,-4.7600,-5.2200,5.5400,57.3750,107.2500,94.6250,-0.3349,0.2960,0.1368,0.8840,
2025-03-10 20:04:53.441,-5.0800,-5.3800,5.7500,56.5625,105.0625,87.3750,-0.3295,0.3074,0.1394,0.8818,
2025-03-10 20:04:53.441,-5.3600,-4.9900,5.6500,63.3750,104.3125,80.5000,-0.3242,0.3182,0.1415,0.8795,
2025-03-10 20:04:53.468,-5.6500,-3.8900,4.8100,74.9375,103.7500,82.1875,-0.3185,0.3289,0.1429,0.8775,
2025-03-10 20:04:53.468,-6.1700,-3.5800,4.6200,80.1250,102.1875,83.1875,-0.3120,0.3397,0.1441,0.8755,
2025-03-10 20:04:53.469,-5.9400,-3.1200,4.1900,78.7500,101.1875,81.2500,-0.3048,0.3504,0.1453,0.8736,
2025-03-10 20:04:53.490,-6.5200,-2.2500,4.3700,72.0625,100.7500,74.7500,-0.2978,0.3609,0.1463,0.8716,
2025-03-10 20:04:53.490,-6.3300,-2.5900,4.7700,60.8750,98.1250,67.6875,-0.2915,0.3711,0.1471,0.8693,
2025-03-10 20:04:53.501,-6.4100,-2.4200,4.9900,51.6875,97.4375,63.6250,-0.2861,0.3807,0.1477,0.8668,
2025-03-10 20:04:53.506,-6.4400,-2.1400,4.8500,45.0625,98.1250,59.8125,-0.2814,0.3900,0.1483,0.8641,
2025-03-10 20:04:53.520,-6.6600,-2.0600,4.1200,38.8125,97.2500,59.3750,-0.2774,0.3991,0.1489,0.8612,
2025-03-10 20:04:53.527,-6.9500,-2.1400,3.8500,33.8125,95.3125,58.3125,-0.2738,0.4081,0.1496,0.8580,
2025-03-10 20:04:53.539,-7.5400,-2.0000,4.0600,29.4375,95.2500,53.3750,-0.2705,0.4167,0.1504,0.8547,
2025-03-10 20:04:53.547,-7.7800,-1.9500,4.0200,28.1875,91.1250,48.1875,-0.2677,0.4252,0.1511,0.8513,
2025-03-10 20:04:53.556,-7.6200,-2.0700,4.1600,27.7500,86.5000,41.8750,-0.2651,0.4332,0.1515,0.8480,
2025-03-10 20:04:53.570,-7.4900,-2.2900,4.3100,28.4375,82.8125,35.5625,-0.2627,0.4406,0.1516,0.8449,
2025-03-10 20:04:53.578,-7.3400,-2.3700,4.2500,32.0625,80.3750,29.1250,-0.2604,0.4477,0.1512,0.8420,
2025-03-10 20:04:53.589,-7.4200,-2.4700,4.0600,36.5000,80.5625,23.5625,-0.2580,0.4545,0.1503,0.8392,
2025-03-10 20:04:53.598,-7.6500,-2.4500,3.8200,40.0625,81.8125,22.6250,-0.2555,0.4611,0.1487,0.8366,
2025-03-10 20:04:53.610,-7.6600,-2.2200,3.5800,43.1250,82.0625,23.3125,-0.2528,0.4679,0.1470,0.8340,
2025-03-10 20:04:53.616,-7.8400,-2.1000,3.4500,45.2500,80.4375,23.1875,-0.2499,0.4747,0.1452,0.8314,
2025-03-10 20:04:53.628,-8.1300,-1.6800,3.3500,47.6875,77.7500,20.7500,-0.2468,0.4814,0.1433,0.8288,
2025-03-10 20:04:53.641,-8.2200,-1.4400,3.2900,48.5000,73.8750,16.7500,-0.2435,0.4878,0.1412,0.8263,
2025-03-10 20:04:53.649,-8.3200,-1.2100,3.0300,46.8750,70.6250,13.5625,-0.2403,0.4939,0.1389,0.8240,
2025-03-10 20:04:53.658,-8.4100,-1.7200,3.1300,42.2500,68.7500,10.8750,-0.2373,0.4996,0.1364,0.8219,
2025-03-10 20:04:53.668,-8.3100,-1.6900,2.7600,39.7500,67.5000,8.0000,-0.2347,0.5051,0.1340,0.8197,
2025-03-10 20:04:53.679,-8.4400,-1.9200,2.8000,38.5000,65.6250,5.2500,-0.2324,0.5103,0.1315,0.8175,
2025-03-10 20:04:53.689,-8.4500,-1.8700,2.8900,39.5625,65.8750,3.1875,-0.2302,0.5154,0.1289,0.8153,
2025-03-10 20:04:53.713,-8.5100,-1.9100,2.2500,43.3125,62.0625,2.0625,-0.2280,0.5204,0.1262,0.8132,
2025-03-10 20:04:53.721,-8.6900,-1.9000,2.1800,45.8125,59.4375,0.7500,-0.2256,0.5252,0.1232,0.8112,
2025-03-10 20:04:53.721,-8.6600,-1.7900,2.0500,46.8750,57.6250,-0.9375,-0.2230,0.5297,0.1201,0.8095,
2025-03-10 20:04:53.736,-9.0300,-1.5900,1.9900,44.6250,52.4375,-2.8125,-0.2181,0.5381,0.1136,0.8062,
2025-03-10 20:04:53.748,-9.2000,-1.5000,1.7700,41.6875,49.6875,-0.7500,-0.2156,0.5420,0.1104,0.8047,
2025-03-10 20:04:53.766,-9.3100,-1.7700,1.5400,26.1875,33.1875,3.1250,-0.2113,0.5487,0.1057,0.8019,
2025-03-10 20:04:53.790,-8.7600,-2.2100,1.6400,23.5000,32.4375,-0.9375,-0.2083,0.5537,0.1025,0.7997,
2025-03-10 20:04:53.807,-9.2200,-1.4200,1.5900,25.1250,22.6875,3.5000,-0.2056,0.5583,0.0991,0.7976,
2025-03-10 20:04:53.827,-9.9500,-0.8000,1.4800,14.0625,6.0625,7.9375,-0.2022,0.5613,0.0969,0.7967,
2025-03-10 20:04:53.856,-9.6700,-1.9900,1.4400,4.3125,8.2500,1.8125,-0.2003,0.5626,0.0966,0.7963,
2025-03-10 20:04:53.869,-9.2800,-1.7300,1.4300,8.1875,0.8125,-2.6875,-0.1997,0.5636,0.0959,0.7958,
2025-03-10 20:04:53.889,-9.0500,-0.9600,1.6400,6.4375,-18.8750,-0.1875,-0.1988,0.5632,0.0949,0.7964,
2025-03-10 20:04:53.909,-9.3700,-1.6000,2.0900,-5.5625,-24.8125,3.7500,-0.1979,0.5604,0.0955,0.7985,
2025-03-10 20:04:53.930,-9.4000,-2.0700,1.8900,-7.7500,-23.9375,-0.0625,-0.1981,0.5571,0.0974,0.8006,
2025-03-10 20:04:53.947,-8.8600,-2.0700,2.1900,-2.0000,-30.2500,-5.8125,-0.1987,0.5535,0.0987,0.8027,
2025-03-10 20:04:53.970,-8.7900,-1.4600,2.7000,7.4375,-39.1250,-7.5625,-0.1987,0.5489,0.0988,0.8059,
2025-03-10 20:04:53.987,-9.1100,-0.9700,2.8200,-0.1875,-42.8750,-1.3125,-0.1976,0.5433,0.0986,0.8100,
2025-03-10 20:04:54.022,-8.6800,-1.9000,2.3500,-14.8750,-43.2500,-2.7500,-0.1975,0.5372,0.1004,0.8138,
2025-03-10 20:04:54.031,-8.9900,-2.0500,2.5600,-14.6875,-47.6875,-6.6875,-0.1993,0.5308,0.1027,0.8173,
2025-03-10 20:04:54.049,-9.0400,-1.1400,3.0100,-14.3125,-58.9375,-5.6250,-0.2010,0.5232,0.1047,0.8215,
2025-03-10 20:04:54.068,-8.5200,-1.3300,3.2400,-23.2500,-62.7500,-0.9375,-0.2025,0.5144,0.1075,0.8263,
2025-03-10 20:04:54.091,-8.1500,-2.5100,3.3500,-32.5625,-60.0000,-6.5625,-0.2053,0.5050,0.1118,0.8308,
2025-03-10 20:04:54.108,-8.3200,-2.0900,3.4300,-21.5625,-62.4375,-7.8750,-0.2090,0.4958,0.1154,0.8350,
2025-03-10 20:04:54.129,-8.3700,-1.6400,3.7400,-18.8125,-72.0625,-8.1875,-0.2112,0.4859,0.1182,0.8398,
2025-03-10 20:04:54.147,-7.9200,-1.7700,4.1400,-25.5625,-78.0625,-9.3750,-0.2132,0.4747,0.1213,0.8453,
2025-03-10 20:04:54.170,-7.2800,-2.6500,4.0700,-31.3750,-74.6875,-17.1250,-0.2165,0.4625,0.1248,0.8507,
2025-03-10 20:04:54.190,-8.0000,-2.3300,4.6000,-19.0000,-76.2500,-20.1250,-0.2206,0.4505,0.1272,0.8557,
2025-03-10 20:04:54.211,-7.8700,-1.7300,4.6000,-12.5000,-86.4375,-21.5000,-0.2227,0.4379,0.1284,0.8615,
2025-03-10 20:04:54.229,-7.6300,-1.7800,4.8600,-21.4375,-93.8750,-28.5625,-0.2246,0.4240,0.1294,0.8678,
2025-03-10 20:04:54.242,-5.9000,-2.6200,5.2500,-26.0000,-98.5000,-34.1875,-0.2262,0.4163,0.1299,0.8710,
2025-03-10 20:04:54.262,-5.9600,-3.3000,5.7200,-21.2500,-96.1250,-38.1875,-0.2305,0.3999,0.1301,0.8775,
2025-03-10 20:04:54.277,-6.4300,-3.1400,5.5200,-9.9375,-98.3125,-34.1250,-0.2330,0.3837,0.1296,0.8841,
2025-03-10 20:04:54.293,-6.4600,-2.5500,5.1600,-0.8750,-101.4375,-29.4375,-0.2330,0.3756,0.1294,0.8876,
2025-03-10 20:04:54.316,-5.7400,-1.8800,5.5500,-19.1250,-112.9375,-43.4375,-0.2334,0.3588,0.1288,0.8945,
2025-03-10 20:04:54.329,-4.9500,-1.9900,5.4000,-31.2500,-118.9375,-51.6250,-0.2375,0.3387,0.1277,0.9014,
2025-03-10 20:04:54.348,-4.4600,-3.3800,5.6500,-34.2500,-115.8750,-56.6875,-0.2436,0.3183,0.1257,0.9075,
2025-03-10 20:04:54.369,-4.3300,-3.2900,5.8500,-37.8125,-130.5625,-60.8750,-0.2493,0.2968,0.1237,0.9135,
2025-03-10 20:04:54.389,-3.7700,-2.7300,5.9700,-47.5625,-143.4375,-77.7500,-0.2557,0.2723,0.1216,0.9196,
2025-03-10 20:04:54.410,-3.9100,-3.3800,5.6300,-39.9375,-133.4375,-97.1875,-0.2640,0.2455,0.1168,0.9254,
2025-03-10 20:04:54.427,-3.6000,-4.3300,7.4900,-28.6875,-133.8125,-96.8125,-0.2707,0.2195,0.1089,0.9309,
2025-03-10 20:04:54.441,-3.1100,-4.3800,7.7000,-14.9375,-135.5000,-94.1250,-0.2728,0.2065,0.1050,0.9338,
2025-03-10 20:04:54.466,-1.9100,-3.2000,7.5400,-9.9375,-135.4375,-112.2500,-0.2758,0.1805,0.0963,0.9392,
2025-03-10 20:04:54.476,-1.7000,-2.0500,7.5700,-11.3125,-140.5000,-124.5625,-0.2787,0.1528,0.0842,0.9444,
2025-03-10 20:04:54.488,-1.1300,-1.4100,6.9000,-23.9375,-146.6875,-129.3750,-0.2806,0.1378,0.0775,0.9467,
2025-03-10 20:04:54.508,-0.7900,-2.7000,6.4900,-54.2500,-136.9375,-124.3125,-0.2863,0.1085,0.0645,0.9498,
2025-03-10 20:04:54.529,-0.1000,-4.4400,6.9700,-75.1875,-140.9375,-128.8125,-0.2974,0.0793,0.0520,0.9500,
2025-03-10 20:04:54.539,0.5200,-4.3500,6.9800,-84.1250,-143.9375,-152.6875,-0.3046,0.0638,0.0451,0.9493,
2025-03-10 20:04:54.557,1.1500,-2.9300,6.8100,-76.0000,-144.5625,-166.0625,-0.3178,0.0319,0.0278,0.9472,
2025-03-10 20:04:54.576,2.1400,-3.7500,5.8100,-66.0000,-149.7500,-175.8750,-0.3286,-0.0017,0.0081,0.9444,
2025-03-10 20:04:54.589,2.6600,-4.8500,5.7800,-72.5000,-146.2500,-167.4375,-0.3342,-0.0181,-0.0012,0.9423,
2025-03-10 20:04:54.611,2.8800,-7.0900,6.4500,-88.0000,-140.3125,-159.5000,-0.3409,-0.0337,-0.0101,0.9394,
2025-03-10 20:04:54.619,3.1000,-7.1900,6.8300,-89.3125,-131.0000,-161.1875,-0.3549,-0.0639,-0.0283,0.9323,
2025-03-10 20:04:54.639,3.6100,-3.8400,6.5700,-50.4375,-131.7500,-180.1250,-0.3627,-0.0945,-0.0486,0.9258,
2025-03-10 20:04:54.658,5.4500,-4.1900,5.6200,-38.5625,-138.6875,-183.4375,-0.3665,-0.1270,-0.0696,0.9191,
2025-03-10 20:04:54.677,6.5000,-6.2000,5.5000,-80.7500,-134.8750,-166.3125,-0.3750,-0.1578,-0.0890,0.9091,
2025-03-10 20:04:54.689,6.5500,-6.6400,5.6900,-90.6875,-125.9375,-166.1875,-0.3806,-0.1721,-0.0990,0.9032,
2025-03-10 20:04:54.726,5.6500,-5.2200,7.0000,-49.0000,-118.4375,-186.6250,-0.3865,-0.2004,-0.1207,0.8921,
2025-03-10 20:04:54.726,8.3600,-5.3700,6.1700,-31.8125,-134.6250,-195.0000,-0.3871,-0.2323,-0.1425,0.8808,
2025-03-10 20:04:54.749,9.4900,-6.0600,5.4200,-49.5000,-129.3125,-179.4375,-0.3888,-0.2471,-0.1526,0.8743,
2025-03-10 20:04:54.772,8.9000,-6.7600,5.5600,-70.5000,-121.1250,-155.6875,-0.3953,-0.2738,-0.1707,0.8600,
2025-03-10 20:04:54.778,7.8800,-5.7800,6.8600,-41.7500,-113.9375,-174.7500,-0.3978,-0.3001,-0.1896,0.8460,
2025-03-10 20:04:54.797,7.9200,-5.6700,7.0300,-32.2500,-115.1250,-184.9375,-0.3972,-0.3140,-0.1998,0.8389,
2025-03-10 20:04:54.821,10.0700,-7.7600,5.6200,-35.5000,-105.1250,-172.5625,-0.3958,-0.3400,-0.2193,0.8244,
2025-03-10 20:04:54.829,9.1400,-7.9000,5.2800,-44.8750,-88.0000,-149.4375,-0.3963,-0.3613,-0.2372,0.8100,
2025-03-10 20:04:54.839,8.8000,-7.6600,5.1400,-26.6875,-86.7500,-141.5000,-0.3955,-0.3714,-0.2448,0.8035,
2025-03-10 20:04:54.857,8.8500,-6.1700,5.1000,26.7500,-89.1250,-139.6250,-0.3884,-0.3932,-0.2568,0.7928,
2025-03-10 20:04:54.876,8.9500,-4.2500,4.1500,32.1250,-85.0000,-138.3125,-0.3780,-0.4153,-0.2672,0.7831,
2025-03-10 20:04:54.887,8.9200,-4.0900,3.6300,13.0625,-82.5625,-137.4375,-0.3741,-0.4254,-0.2732,0.7774,
2025-03-10 20:04:54.911,9.9000,-3.3800,3.2400,-24.8750,-79.8125,-132.4375,-0.3701,-0.4436,-0.2869,0.7642,
2025-03-10 20:04:54.929,11.2200,-3.5700,3.8400,-26.8750,-69.6250,-121.8125,-0.3680,-0.4592,-0.3004,0.7506,
2025-03-10 20:04:54.937,11.4300,-3.1500,3.9000,-16.5625,-61.8750,-116.4375,-0.3662,-0.4663,-0.3065,0.7447,
2025-03-10 20:04:54.959,11.3700,-1.8100,2.8800,-2.0000,-54.1875,-107.4375,-0.3609,-0.4797,-0.3171,0.7343,
2025-03-10 20:04:54.968,11.2900,-0.7900,2.2100,1.0000,-52.5625,-105.9375,-0.3580,-0.4862,-0.3220,0.7292,
2025-03-10 20:04:54.989,11.1500,-0.2500,1.4800,-7.7500,-58.3750,-104.5625,-0.3530,-0.4991,-0.3320,0.7184,
2025-03-10 20:04:55.009,11.0100,-0.1400,1.7700,-22.3750,-67.0000,-100.8125,-0.3502,-0.5119,-0.3419,0.7060,
2025-03-10 20:04:55.027,10.6500,-0.6300,2.0200,-44.9375,-67.1250,-95.1250,-0.3503,-0.5234,-0.3527,0.6921,
2025-03-10 20:04:55.039,10.4100,-0.9800,1.8400,-60.0000,-64.1875,-90.2500,-0.3517,-0.5280,-0.3587,0.6847,
2025-03-10 20:04:55.049,10.2100,-1.1300,1.6800,-69.8750,-60.6875,-87.0000,-0.3537,-0.5320,-0.3650,0.6772,
2025-03-10 20:04:55.064,10.0700,-1.2400,1.6100,-77.4375,-58.0000,-83.1250,-0.3562,-0.5353,-0.3715,0.6697,
2025-03-10 20:04:55.069,9.9200,-1.3700,1.7000,-80.5000,-53.1250,-79.5625,-0.3588,-0.5382,-0.3780,0.6623,
2025-03-10 20:04:55.085,9.9500,-1.2300,1.7200,-77.6875,-45.7500,-75.2500,-0.3611,-0.5405,-0.3844,0.6555,
2025-03-10 20:04:55.090,9.9500,-1.3100,1.8600,-72.4375,-40.2500,-69.9375,-0.3633,-0.5425,-0.3903,0.6492,
2025-03-10 20:04:55.108,9.7700,-1.3700,1.8700,-67.7500,-34.8750,-62.8125,-0.3652,-0.5441,-0.3958,0.6434,
2025-03-10 20:04:55.112,9.7400,-1.5800,1.6400,-62.8750,-28.3125,-57.5000,-0.3669,-0.5453,-0.4009,0.6382,
2025-03-10 20:04:55.116,9.6900,-1.6500,1.4100,-56.8125,-23.1250,-52.8750,-0.3683,-0.5463,-0.4056,0.6335,
2025-03-10 20:04:55.127,9.5400,-0.8300,1.2800,-50.9375,-17.8750,-47.1250,-0.3695,-0.5469,-0.4100,0.6295,
2025-03-10 20:04:55.139,9.5800,-0.8100,1.1200,-49.6875,-14.9375,-41.6875,-0.3707,-0.5473,-0.4140,0.6258,
2025-03-10 20:04:55.151,9.4900,-0.7100,0.9800,-46.2500,-12.0000,-37.1875,-0.3719,-0.5475,-0.4177,0.6225,
2025-03-10 20:04:55.157,9.3800,-0.6400,0.9600,-44.5000,-8.8125,-32.8750,-0.3730,-0.5474,-0.4212,0.6195,
2025-03-10 20:04:55.173,9.5700,-0.6700,1.0500,-45.6875,-6.8125,-27.8750,-0.3743,-0.5470,-0.4246,0.6168,
2025-03-10 20:04:55.177,9.6500,-0.6300,1.0600,-47.1250,-5.6875,-22.4375,-0.3760,-0.5463,-0.4277,0.6142,
2025-03-10 20:04:55.187,9.7700,-0.7800,1.0300,-51.2500,-4.8750,-17.5625,-0.3760,-0.5463,-0.4277,0.6142,
2025-03-10 20:04:55.214,10.0200,-0.8900,1.1200,-54.5000,-3.5000,-13.8750,-0.3803,-0.5439,-0.4340,0.6093,
2025-03-10 20:04:55.214,10.0900,-1.0300,1.2100,-56.9375,-2.0000,-10.3125,-0.3828,-0.5422,-0.4371,0.6070,
2025-03-10 20:04:55.216,10.2000,-1.0300,1.4100,-57.7500,-1.0625,-7.8750,-0.3854,-0.5404,-0.4401,0.6047,
2025-03-10 20:04:55.235,10.1800,-1.0900,1.5100,-55.5000,0.4375,-6.0000,-0.3854,-0.5404,-0.4401,0.6047,
2025-03-10 20:04:55.239,10.1300,-1.1800,1.6800,-50.9375,0.7500,-4.0625,-0.3880,-0.5385,-0.4429,0.6027,
2025-03-10 20:04:55.248,10.0600,-1.2700,1.7200,-47.0000,-0.4375,-2.3125,-0.3904,-0.5367,-0.4454,0.6010,
2025-03-10 20:04:55.261,9.9600,-1.3400,1.7100,-41.6875,-0.6250,-0.5625,-0.3926,-0.5350,-0.4477,0.5993,
2025-03-10 20:04:55.266,9.9100,-1.3200,1.6100,-35.0625,-0.7500,1.3125,-0.3948,-0.5335,-0.4496,0.5979,
2025-03-10 20:04:55.279,9.9000,-1.2700,1.5200,-27.0625,-0.8750,2.8750,-0.3967,-0.5321,-0.4511,0.5967,
2025-03-10 20:04:55.289,9.9000,-1.2100,1.4700,-20.0000,-0.0625,4.0625,-0.3982,-0.5311,-0.4521,0.5959,
2025-03-10 20:04:55.297,9.8700,-1.0600,1.4700,-13.8750,1.3750,5.0625,-0.3994,-0.5302,-0.4528,0.5953,
2025-03-10 20:04:55.307,9.9700,-0.5700,1.3800,-8.8125,2.5625,5.9375,-0.4011,-0.5282,-0.4524,0.5961,
2025-03-10 20:04:55.319,9.9700,-0.5800,1.4300,-6.5000,3.1250,6.1250,-0.4017,-0.5276,-0.4526,0.5961,
2025-03-10 20:04:55.327,9.7900,-0.7400,1.4200,-3.3750,5.0625,6.2500,-0.4022,-0.5270,-0.4527,0.5963,
2025-03-10 20:04:55.343,9.5800,-1.0300,1.2700,1.1250,6.6250,7.1875,-0.4025,-0.5264,-0.4527,0.5967,
2025-03-10 20:04:55.348,9.4800,-1.0300,1.2000,4.5000,6.4375,8.8125,-0.4025,-0.5258,-0.4525,0.5973,
2025-03-10 20:04:55.357,9.4500,-0.9400,1.0800,6.6250,4.8125,10.5000,-0.4024,-0.5254,-0.4521,0.5980,
2025-03-10 20:04:55.366,9.4300,-0.7900,1.0300,7.8125,2.3125,11.5000,-0.4023,-0.5250,-0.4515,0.5989,
2025-03-10 20:04:55.379,9.5600,-0.4800,1.1600,9.2500,0.6250,12.0625,-0.4023,-0.5248,-0.4506,0.5997,
2025-03-10 20:04:55.388,9.6100,-0.3900,1.2600,10.5000,0.0625,12.6875,-0.4024,-0.5247,-0.4496,0.6005,
2025-03-10 20:04:55.399,9.6300,-0.3700,1.4000,12.5000,0.2500,12.5000,-0.4024,-0.5247,-0.4485,0.6013,
2025-03-10 20:04:55.409,9.5800,-0.4100,1.4100,14.1875,1.0625,12.2500,-0.4024,-0.5247,-0.4473,0.6023,
2025-03-10 20:04:55.420,9.6000,-0.4300,1.4200,14.5000,1.0625,11.7500,-0.4021,-0.5248,-0.4461,0.6032,
2025-03-10 20:04:55.426,9.6200,-0.4100,1.4100,14.7500,0.6250,11.3125,-0.4018,-0.5249,-0.4449,0.6042,
2025-03-10 20:04:55.441,9.6800,-0.2900,1.3800,16.0625,-0.1875,10.9375,-0.4016,-0.5250,-0.4437,0.6052,
2025-03-10 20:04:55.446,9.7800,0.0100,1.3200,17.7500,-1.0625,10.1875,-0.4012,-0.5253,-0.4424,0.6061,
2025-03-10 20:04:55.457,9.8500,0.1200,1.2900,18.1875,-1.9375,9.2500,-0.4008,-0.5256,-0.4410,0.6071,
2025-03-10 20:04:55.467,9.8700,0.2200,1.2900,17.1875,-2.2500,7.4375,-0.4004,-0.5261,-0.4397,0.6079,
2025-03-10 20:04:55.477,9.8800,0.2800,1.2500,14.7500,-1.7500,5.8125,-0.3999,-0.5266,-0.4385,0.6087,
2025-03-10 20:04:55.490,9.8300,0.1800,1.2100,11.6875,-1.0000,4.1875,-0.3995,-0.5270,-0.4374,0.6093,
2025-03-10 20:04:55.511,9.8300,0.0400,1.2200,9.3750,-0.3750,2.6250,-0.3991,-0.5274,-0.4366,0.6099,
2025-03-10 20:04:55.516,9.7700,-0.0400,1.2700,8.3750,-0.0625,1.8750,-0.3987,-0.5277,-0.4361,0.6102,
2025-03-10 20:04:55.516,9.7700,-0.0400,1.2100,8.3750,-0.3750,1.6875,-0.3984,-0.5279,-0.4356,0.6106,
2025-03-10 20:04:55.539,9.7900,0.0000,1.2600,8.0000,-1.2500,1.5000,-0.3980,-0.5282,-0.4352,0.6109,
2025-03-10 20:04:55.542,9.7700,0.0700,1.2500,7.0625,-2.4375,1.5000,-0.3976,-0.5286,-0.4348,0.6111,
2025-03-10 20:04:55.546,9.8100,0.1100,1.2500,6.0625,-3.1250,1.1250,-0.3973,-0.5289,-0.4345,0.6113,
2025-03-10 20:04:55.560,9.8100,0.1400,1.2600,5.0625,-3.5000,0.7500,-0.3970,-0.5294,-0.4341,0.6113,
2025-03-10 20:04:55.567,9.8000,0.1300,1.2800,4.3750,-3.6250,0.5625,-0.3968,-0.5298,-0.4338,0.6113,
2025-03-10 20:04:55.576,9.7900,0.1400,1.2500,3.6875,-3.7500,-0.1250,-0.3965,-0.5302,-0.4337,0.6112,
2025-03-10 20:04:55.586,9.7500,0.1600,1.1700,2.3125,-3.5625,-0.5000,-0.3963,-0.5307,-0.4335,0.6111,
2025-03-10 20:04:55.597,9.7600,0.1300,1.1500,0.0000,-3.3125,-1.1250,-0.3962,-0.5310,-0.4334,0.6109,
2025-03-10 20:04:55.606,9.7400,0.0200,1.2000,-3.0000,-2.8125,-1.7500,-0.3961,-0.5313,-0.4335,0.6107,
2025-03-10 20:04:55.636,9.6900,-0.0900,1.2600,-4.0625,-1.9375,-2.1250,-0.3962,-0.5315,-0.4337,0.6103,
2025-03-10 20:04:55.636,9.6400,-0.2700,1.2800,-2.6250,-0.9375,-1.9375,-0.3963,-0.5316,-0.4340,0.6099,
2025-03-10 20:04:55.637,9.6300,-0.2600,1.2400,-1.1250,-0.8125,-1.5000,-0.3964,-0.5316,-0.4342,0.6098,
2025-03-10 20:04:55.656,9.7600,-0.0700,1.2300,-0.1875,-2.5625,-1.4375,-0.3964,-0.5317,-0.4343,0.6095,
2025-03-10 20:04:55.672,9.8200,-0.0300,1.2800,-0.3125,-2.8750,-1.6250,-0.3965,-0.5319,-0.4343,0.6093,
2025-03-10 20:04:55.680,9.8300,0.0000,1.2800,-0.1875,-2.6875,-1.9375,-0.3965,-0.5322,-0.4343,0.6091,
2025-03-10 20:04:55.696,9.7500,-0.0300,1.2300,0.4375,-1.8125,-3.1250,-0.3964,-0.5326,-0.4344,0.6087,
2025-03-10 20:04:55.719,9.7300,-0.0300,1.2800,-1.2500,-2.3125,-4.5000,-0.3961,-0.5330,-0.4347,0.6083,
2025-03-10 20:04:55.727,9.7600,-0.0200,1.2800,-2.0625,-2.6875,-4.8750,-0.3960,-0.5332,-0.4350,0.6080,
2025-03-10 20:04:55.750,9.9100,0.0000,1.1600,-2.5625,-3.4375,-4.6250,-0.3959,-0.5337,-0.4355,0.6072,
2025-03-10 20:04:55.766,9.9200,-0.0600,1.1500,-3.3125,-2.7500,-4.5625,-0.3960,-0.5339,-0.4358,0.6068,
2025-03-10 20:04:55.778,9.8100,-0.2300,1.2500,-0.9375,-1.2500,-3.8125,-0.3961,-0.5342,-0.4365,0.6060,
2025-03-10 20:04:55.798,9.6500,-0.0800,1.2200,1.8125,-1.0625,-3.0625,-0.3958,-0.5345,-0.4368,0.6057,
2025-03-10 20:04:55.817,9.6700,0.1300,1.0300,0.8125,-2.1875,-2.5625,-0.3954,-0.5350,-0.4368,0.6055,
2025-03-10 20:04:55.837,9.6900,0.0300,1.0400,-0.0625,-1.5000,-2.9375,-0.3953,-0.5354,-0.4369,0.6051,
2025-03-10 20:04:55.859,9.6600,-0.0600,1.0500,0.4375,-0.3750,-3.1250,-0.3951,-0.5358,-0.4372,0.6047,
2025-03-10 20:04:55.878,9.6600,0.0100,1.0300,1.1250,-0.8125,-3.1250,-0.3948,-0.5360,-0.4375,0.6045,
2025-03-10 20:04:55.900,9.6600,0.1100,1.0400,1.5000,-1.8125,-3.0000,-0.3945,-0.5365,-0.4376,0.6042,
2025-03-10 20:04:55.933,9.7000,0.1900,1.0500,-0.8750,-2.1250,-3.5000,-0.3942,-0.5370,-0.4377,0.6039,
2025-03-10 20:04:55.937,9.6900,0.1400,1.0600,-2.1250,-1.9375,-4.0000,-0.3941,-0.5374,-0.4382,0.6033,
2025-03-10 20:04:55.953,9.7200,0.0600,1.0500,-2.0625,-2.0000,-3.9375,-0.3941,-0.5376,-0.4384,0.6029,
2025-03-10 20:04:55.969,9.7300,0.0600,1.0000,-2.0625,-2.1875,-3.5625,-0.3940,-0.5379,-0.4389,0.6023,
2025-03-10 20:04:55.998,9.7400,0.0700,1.0200,-2.9375,-2.5625,-3.5000,-0.3941,-0.5382,-0.4393,0.6016,
2025-03-10 20:04:56.002,9.7300,0.1000,1.0600,-2.9375,-2.5625,-3.5000,-0.3942,-0.5384,-0.4396,0.6013,
2025-03-10 20:04:56.017,9.7200,0.0800,1.1500,-2.1875,-2.7500,-2.7500,-0.3944,-0.5387,-0.4400,0.6006,
2025-03-10 20:04:56.039,9.7600,0.0800,1.1300,-1.5000,-2.3125,-2.1875,-0.3945,-0.5390,-0.4402,0.6000,
2025-03-10 20:04:56.050,9.7900,0.1800,1.0700,-1.2500,-2.0625,-1.8125,-0.3945,-0.5391,-0.4404,0.5998,
2025-03-10 20:04:56.068,9.8000,0.2000,1.0700,-1.2500,-1.4375,-1.9375,-0.3946,-0.5394,-0.4406,0.5994,
2025-03-10 20:04:56.089,9.8000,0.2000,1.0800,-2.5000,-1.3750,-2.9375,-0.3946,-0.5396,-0.4409,0.5990,
2025-03-10 20:04:56.099,9.8000,0.1700,1.0600,-3.5000,-1.3125,-3.2500,-0.3946,-0.5396,-0.4412,0.5987,
2025-03-10 20:04:56.119,9.7700,0.0600,1.0700,-3.7500,-1.5000,-3.4375,-0.3948,-0.5397,-0.4418,0.5980,
2025-03-10 20:04:56.137,9.7300,-0.0300,1.0800,-1.3125,-1.2500,-3.1875,-0.3949,-0.5398,-0.4424,0.5975,
2025-03-10 20:04:56.148,9.7300,-0.0600,0.9900,-0.5625,-1.3125,-3.0625,-0.3948,-0.5400,-0.4426,0.5972,
2025-03-10 20:04:56.173,9.7600,0.0100,0.9800,-0.0625,-1.8750,-2.6250,-0.3947,-0.5403,-0.4428,0.5969,
2025-03-10 20:04:56.194,9.7900,0.0300,0.9300,0.0625,-1.8750,-2.3125,-0.3947,-0.5407,-0.4429,0.5965,
2025-03-10 20:04:56.201,9.8100,0.1900,0.8800,1.3750,-1.6250,-1.0000,-0.3946,-0.5408,-0.4428,0.5964,
2025-03-10 20:04:56.231,9.8000,0.2300,0.9000,3.4375,-0.5625,-0.6250,-0.3944,-0.5412,-0.4426,0.5963,
2025-03-10 20:04:56.240,9.8000,0.2600,0.9700,4.1250,-0.7500,-0.4375,-0.3940,-0.5416,-0.4423,0.5964,
2025-03-10 20:04:56.251,9.8100,0.3700,1.0000,3.1875,-1.5625,-0.1875,-0.3939,-0.5418,-0.4421,0.5965,
2025-03-10 20:04:56.270,9.7900,0.3900,0.9500,0.1250,-1.1875,0.0625,-0.3936,-0.5422,-0.4419,0.5964,
2025-03-10 20:04:56.286,9.8600,0.5100,0.8800,-1.0000,-0.8125,-0.1250,-0.3936,-0.5425,-0.4420,0.5962,
2025-03-10 20:04:56.298,9.8100,0.2800,0.8900,-1.0000,0.3125,0.2500,-0.3936,-0.5426,-0.4421,0.5960,
2025-03-10 20:04:56.319,9.7900,0.2100,0.8900,-0.8125,0.6875,0.8125,-0.3935,-0.5427,-0.4423,0.5959,
2025-03-10 20:04:56.343,9.7500,0.2000,0.9300,-1.6875,0.7500,0.8125,-0.3937,-0.5425,-0.4424,0.5959,
2025-03-10 20:04:56.349,9.7700,0.2300,0.9800,-2.9375,0.3125,0.5000,-0.3938,-0.5424,-0.4424,0.5958,
2025-03-10 20:04:56.372,9.8100,0.1900,1.0500,-2.1250,0.8125,0.1250,-0.3941,-0.5422,-0.4427,0.5956,
2025-03-10 20:04:56.388,9.7300,0.0300,1.0200,-1.5000,0.6875,-0.2500,-0.3942,-0.5420,-0.4429,0.5956,
2025-03-10 20:04:56.402,9.7000,0.0000,1.0200,-0.1875,0.8125,-0.8125,-0.3942,-0.5419,-0.4430,0.5956,
2025-03-10 20:04:56.419,9.7600,0.1000,0.9900,1.6250,1.1250,-1.8125,-0.3941,-0.5419,-0.4431,0.5956,
2025-03-10 20:04:56.435,9.7700,0.1000,1.0300,2.2500,1.1250,-2.0000,-0.3935,-0.5420,-0.4432,0.5957,
2025-03-10 20:04:56.451,9.7900,0.1000,1.0000,3.6875,1.0625,-2.5625,-0.3933,-0.5422,-0.4432,0.5958,
2025-03-10 20:04:56.470,9.8200,0.1600,0.9300,3.1875,1.0000,-2.8750,-0.3926,-0.5425,-0.4432,0.5959,
2025-03-10 20:04:56.491,9.7700,0.2800,0.9900,2.1250,0.0625,-2.8125,-0.3921,-0.5429,-0.4433,0.5958,
2025-03-10 20:04:56.499,9.7300,0.3100,1.0100,2.1250,-0.1875,-2.1875,-0.3918,-0.5431,-0.4434,0.5958,
2025-03-10 20:04:56.536,9.7300,0.3200,0.9800,2.5625,0.1875,-1.3125,-0.3914,-0.5434,-0.4434,0.5957,
2025-03-10 20:04:56.537,9.7700,0.3900,0.9500,2.2500,0.0625,-1.1250,-0.3910,-0.5437,-0.4434,0.5958,
2025-03-10 20:04:56.550,9.8100,0.4200,0.9800,1.3750,0.3750,-1.1875,-0.3908,-0.5439,-0.4434,0.5957,
2025-03-10 20:04:56.571,9.7800,0.4800,0.9600,-0.1875,0.8750,-1.1875,-0.3905,-0.5440,-0.4437,0.5956,
2025-03-10 20:04:56.585,9.7600,0.4200,1.0000,-0.6875,0.9375,-0.6250,-0.3903,-0.5440,-0.4440,0.5955,
2025-03-10 20:04:56.601,9.7400,0.3200,1.0100,-0.9375,1.2500,-0.5000,-0.3903,-0.5439,-0.4441,0.5955,
2025-03-10 20:04:56.620,9.7200,0.2500,1.0300,-1.6250,1.0000,0.0000,-0.3903,-0.5437,-0.4444,0.5955,
2025-03-10 20:04:56.642,9.7500,0.2700,1.1400,-0.4375,1.3750,0.1875,-0.3902,-0.5436,-0.4446,0.5955,
2025-03-10 20:04:56.649,9.7800,0.3200,1.0900,-0.8125,1.2500,0.1875,-0.3902,-0.5435,-0.4447,0.5955,
2025-03-10 20:04:56.671,9.7800,0.2400,1.0500,-1.6875,1.6250,-0.3125,-0.3902,-0.5432,-0.4449,0.5956,
2025-03-10 20:04:56.686,9.7700,0.2100,1.0900,0.6250,2.1250,-0.8125,-0.3899,-0.5430,-0.4451,0.5958,
2025-03-10 20:04:56.700,9.7600,0.2000,1.1000,0.9375,1.8750,-0.8750,-0.3898,-0.5430,-0.4452,0.5958,
2025-03-10 20:04:56.719,9.8100,0.2200,1.1200,-0.0625,0.8125,-1.2500,-0.3896,-0.5430,-0.4454,0.5958,
2025-03-10 20:04:56.736,9.7700,0.1800,1.0500,0.8125,1.0000,-1.4375,-0.3893,-0.5430,-0.4456,0.5959,
2025-03-10 20:04:56.751,9.7500,0.2000,1.0800,1.7500,0.9375,-1.6250,-0.3892,-0.5430,-0.4456,0.5959,
2025-03-10 20:04:56.776,9.6600,0.2200,1.0100,2.5625,0.9375,-2.6250,-0.3886,-0.5433,-0.4456,0.5960,
2025-03-10 20:04:56.791,9.6500,0.3200,1.0000,1.6250,0.0000,-3.2500,-0.3881,-0.5436,-0.4458,0.5959,
2025-03-10 20:04:56.798,9.6800,0.3300,1.0100,1.4375,-0.1875,-3.0625,-0.3879,-0.5438,-0.4459,0.5958,
2025-03-10 20:04:56.837,9.6800,0.2600,0.9300,-0.1875,-0.3750,-2.8750,-0.3876,-0.5441,-0.4462,0.5956,
2025-03-10 20:04:56.837,9.6400,0.2400,1.0200,-0.7500,-0.9375,-3.6250,-0.3874,-0.5443,-0.4465,0.5952,
2025-03-10 20:04:56.852,9.6300,0.2600,1.1200,-1.0000,-1.3750,-4.0000,-0.3873,-0.5444,-0.4468,0.5950,
2025-03-10 20:04:56.870,9.7000,0.3200,1.1300,-0.5000,-1.5000,-3.8125,-0.3871,-0.5449,-0.4471,0.5945,
2025-03-10 20:04:56.880,9.7700,0.3400,1.0200,-0.5625,-1.3125,-3.6250,-0.3870,-0.5450,-0.4473,0.5943,
2025-03-10 20:04:56.899,9.8000,0.3600,1.0500,0.0625,-0.8750,-3.0625,-0.3868,-0.5453,-0.4476,0.5939,
2025-03-10 20:04:56.917,9.8200,0.4700,1.0500,1.0000,-1.0000,-2.5000,-0.3865,-0.5457,-0.4477,0.5937,
2025-03-10 20:04:56.929,9.8700,0.5500,1.0700,0.3125,-1.4375,-2.1250,-0.3864,-0.5458,-0.4478,0.5935,
2025-03-10 20:04:56.946,9.8900,0.6100,1.0400,-1.8125,-1.1875,-1.7500,-0.3863,-0.5461,-0.4480,0.5931,
2025-03-10 20:04:56.956,9.8700,0.6000,1.0000,-2.8125,-0.2500,-1.8750,-0.3863,-0.5461,-0.4484,0.5929,
2025-03-10 20:04:56.969,9.8500,0.5900,1.0100,-3.3125,0.6250,-2.0000,-0.3863,-0.5460,-0.4487,0.5927,
2025-03-10 20:04:56.977,9.8000,0.5800,0.9400,-4.3125,1.0000,-2.3125,-0.3863,-0.5460,-0.4491,0.5925,
2025-03-10 20:04:56.986,9.7600,0.5000,0.9300,-5.8125,1.1875,-2.1250,-0.3864,-0.5458,-0.4495,0.5922,
2025-03-10 20:04:57.000,9.7600,0.4200,0.9500,-6.8750,0.8125,-2.0000,-0.3866,-0.5456,-0.4500,0.5919,
2025-03-10 20:04:57.007,9.7700,0.3800,0.9700,-7.0000,0.7500,-1.6875,-0.3869,-0.5453,-0.4504,0.5916,
2025-03-10 20:04:57.017,9.8200,0.3200,0.9800,-6.4375,0.6250,-1.2500,-0.3871,-0.5451,-0.4508,0.5914,
2025-03-10 20:04:57.026,9.8400,0.3000,1.0600,-6.0625,0.4375,-0.8750,-0.3874,-0.5449,-0.4512,0.5911,
2025-03-10 20:04:57.035,9.8200,0.3100,1.0900,-6.0625,0.3750,-0.9375,-0.3876,-0.5447,-0.4515,0.5909,
2025-03-10 20:04:57.046,9.7900,0.3100,1.1400,-5.6250,0.3750,-0.9375,-0.3879,-0.5445,-0.4518,0.5907,
2025-03-10 20:04:57.061,9.7200,0.4100,1.1600,-5.0625,0.0625,-1.4375,-0.3881,-0.5444,-0.4521,0.5905,
2025-03-10 20:04:57.069,9.7400,0.4300,1.1200,-5.1875,-0.0625,-1.8125,-0.3882,-0.5442,-0.4525,0.5902,
2025-03-10 20:04:57.076,9.7200,0.4300,1.1300,-5.7500,-0.2500,-1.9375,-0.3884,-0.5441,-0.4528,0.5900,
2025-03-10 20:04:57.091,9.6900,0.4000,1.1300,-5.1875,-0.3125,-1.6250,-0.3886,-0.5439,-0.4532,0.5897,
2025-03-10 20:04:57.097,9.6300,0.3600,0.9900,-3.9375,0.2500,-1.2500,-0.3887,-0.5438,-0.4534,0.5895,
2025-03-10 20:04:57.106,9.5900,0.3300,0.9400,-3.0000,0.3125,-1.0625,-0.3888,-0.5438,-0.4536,0.5894,
2025-03-10 20:04:57.129,9.6000,0.3600,0.8800,-2.5000,0.8125,-0.8125,-0.3889,-0.5436,-0.4538,0.5893,
2025-03-10 20:04:57.136,9.6400,0.4400,0.9500,-2.5000,0.8125,-1.0000,-0.3889,-0.5435,-0.4540,0.5892,
2025-03-10 20:04:57.137,9.6800,0.4800,0.9800,-2.9375,0.4375,-1.1875,-0.3890,-0.5435,-0.4542,0.5891,
2025-03-10 20:04:57.152,9.7100,0.5300,0.9500,-3.5000,0.3125,-1.3125,-0.3891,-0.5434,-0.4544,0.5889,
2025-03-10 20:04:57.155,9.7200,0.5700,0.9700,-4.3750,0.1875,-1.1250,-0.3893,-0.5433,-0.4547,0.5887,
2025-03-10 20:04:57.165,9.6900,0.4800,0.9000,-6.0000,0.1250,-1.1875,-0.3895,-0.5432,-0.4550,0.5884,
2025-03-10 20:04:57.180,9.6700,0.4400,0.9200,-7.1875,0.3750,-1.0000,-0.3898,-0.5430,-0.4554,0.5881,
2025-03-10 20:04:57.187,9.6700,0.3700,0.9500,-7.4375,0.2500,-0.8750,-0.3901,-0.5427,-0.4558,0.5878,
2025-03-10 20:04:57.195,9.7300,0.3300,1.0600,-6.2500,0.1875,-0.8125,-0.3904,-0.5425,-0.4562,0.5875,
2025-03-10 20:04:57.207,9.7700,0.3600,1.1200,-5.3750,-0.0625,-1.0000,-0.3906,-0.5424,-0.4564,0.5873,
2025-03-10 20:04:57.217,9.8700,0.3800,1.1600,-5.1250,-0.6875,-1.4375,-0.3908,-0.5422,-0.4567,0.5871,
2025-03-10 20:04:57.226,9.9300,0.4300,1.1700,-4.6875,-1.3750,-1.6250,-0.3910,-0.5422,-0.4570,0.5868,
2025-03-10 20:04:57.245,9.9300,0.4900,1.0600,-4.6250,-1.7500,-1.4375,-0.3910,-0.5422,-0.4570,0.5868,
2025-03-10 20:04:57.246,9.8800,0.5000,1.0400,-5.2500,-1.5625,-1.5000,-0.3912,-0.5421,-0.4572,0.5865,
2025-03-10 20:04:57.309,9.8200,0.4900,1.0400,-5.5625,-1.1875,-1.6250,-0.3915,-0.5421,-0.4575,0.5862,
2025-03-10 20:04:57.311,9.7200,0.4700,1.1200,-5.9375,-0.7500,-2.1250,-0.3917,-0.5419,-0.4578,0.5859,
2025-03-10 20:04:57.311,9.7000,0.4600,1.1700,-6.3125,-0.8750,-2.7500,-0.3919,-0.5418,-0.4582,0.5856,
2025-03-10 20:04:57.311,9.6700,0.4700,1.2000,-6.8125,-1.2500,-3.0625,-0.3922,-0.5417,-0.4586,0.5852,
2025-03-10 20:04:57.311,9.6500,0.4300,1.1900,-7.0625,-1.6875,-3.2500,-0.3924,-0.5416,-0.4591,0.5848,
2025-03-10 20:04:57.311,9.6400,0.3300,1.0500,-6.5625,-1.9375,-3.3125,-0.3926,-0.5415,-0.4595,0.5844,
2025-03-10 20:04:57.332,9.6900,0.2200,0.9700,-5.9375,-1.7500,-3.1875,-0.3928,-0.5414,-0.4600,0.5839,
2025-03-10 20:04:57.346,9.6900,0.1100,1.0400,-5.1875,-1.0000,-2.9375,-0.3931,-0.5414,-0.4603,0.5835,
2025-03-10 20:04:57.346,9.6600,0.0200,1.1300,-4.1250,-0.8750,-3.1250,-0.3932,-0.5413,-0.4606,0.5832,
2025-03-10 20:04:57.346,9.7100,-0.0500,1.2800,-2.5625,-1.5000,-3.1250,-0.3933,-0.5413,-0.4609,0.5829,
2025-03-10 20:04:57.358,9.7500,-0.0200,1.3400,-1.3125,-3.3125,-3.0625,-0.3934,-0.5414,-0.4612,0.5826,
2025-03-10 20:04:57.368,9.8300,0.0200,1.3200,0.5000,-5.4375,-2.8125,-0.3934,-0.5416,-0.4613,0.5823,
2025-03-10 20:04:57.376,9.8900,0.2900,1.2600,2.4375,-7.0625,-2.6250,-0.3935,-0.5420,-0.4612,0.5820,
2025-03-10 20:04:57.389,9.8300,0.4100,1.2600,4.3750,-7.7500,-2.8125,-0.3936,-0.5425,-0.4610,0.5816,
2025-03-10 20:04:57.397,9.8000,0.4900,1.2500,5.0000,-7.6250,-3.3750,-0.3935,-0.5430,-0.4607,0.5814,
2025-03-10 20:04:57.407,9.7300,0.5900,1.2100,5.0625,-7.4375,-4.0000,-0.3934,-0.5437,-0.4604,0.5811,
2025-03-10 20:04:57.435,9.7000,0.6300,1.1000,4.4375,-6.8750,-4.5625,-0.3932,-0.5444,-0.4601,0.5808,
2025-03-10 20:04:57.441,9.7100,0.6300,1.0600,3.0000,-6.3125,-5.0000,-0.3931,-0.5450,-0.4599,0.5804,
2025-03-10 20:04:57.441,9.7300,0.5900,1.0300,1.6875,-5.5000,-5.1250,-0.3930,-0.5457,-0.4598,0.5800,
2025-03-10 20:04:57.448,9.8100,0.6100,0.9400,0.3125,-4.3125,-5.6250,-0.3928,-0.5462,-0.4598,0.5797,
2025-03-10 20:04:57.456,9.7800,0.6200,0.8900,-0.9375,-3.6875,-6.4375,-0.3927,-0.5466,-0.4599,0.5792,
2025-03-10 20:04:57.469,9.7600,0.6300,0.9000,-2.8750,-3.5000,-7.3125,-0.3926,-0.5469,-0.4602,0.5787,
2025-03-10 20:04:57.479,9.7200,0.6200,0.9100,-4.1250,-3.6875,-8.0000,-0.3925,-0.5473,-0.4606,0.5782,
2025-03-10 20:04:57.495,9.6200,0.6200,0.8800,-4.5625,-4.0625,-8.3125,-0.3925,-0.5475,-0.4611,0.5776,
2025-03-10 20:04:57.498,9.5800,0.5700,0.8800,-4.3125,-4.7500,-8.3750,-0.3925,-0.5478,-0.4615,0.5769,
2025-03-10 20:04:57.509,9.5800,0.5800,0.8800,-3.3125,-5.0000,-8.3750,-0.3925,-0.5482,-0.4620,0.5762,
2025-03-10 20:04:57.517,9.5900,0.6600,0.8400,-2.7500,-5.0625,-8.4375,-0.3924,-0.5486,-0.4624,0.5755,
2025-03-10 20:04:57.526,9.6400,0.7000,0.8300,-2.3125,-4.7500,-8.5625,-0.3924,-0.5490,-0.4628,0.5749,
2025-03-10 20:04:57.539,9.6700,0.7100,0.8300,-2.3125,-4.8125,-8.6250,-0.3923,-0.5494,-0.4631,0.5742,
2025-03-10 20:04:57.546,9.7100,0.6900,0.7900,-2.5000,-4.8125,-8.3750,-0.3922,-0.5499,-0.4635,0.5736,
2025-03-10 20:04:57.560,9.7900,0.6300,0.8000,-2.3750,-5.0000,-8.5625,-0.3921,-0.5503,-0.4639,0.5729,
2025-03-10 20:04:57.573,9.8400,0.6100,0.7800,-1.6250,-4.3125,-8.3750,-0.3920,-0.5507,-0.4642,0.5723,
2025-03-10 20:04:57.581,9.7900,0.5800,0.8100,-0.8125,-3.6250,-8.5000,-0.3918,-0.5511,-0.4646,0.5717,
2025-03-10 20:04:57.587,9.8000,0.6100,0.8600,0.2500,-3.1875,-8.6250,-0.3917,-0.5516,-0.4649,0.5712,
2025-03-10 20:04:57.600,9.7600,0.7300,0.9300,1.0625,-3.7500,-8.7500,-0.3914,-0.5520,-0.4652,0.5707,
2025-03-10 20:04:57.607,9.7600,0.7900,0.8900,1.5000,-4.1875,-8.3750,-0.3911,-0.5526,-0.4655,0.5702,
2025-03-10 20:04:57.617,9.7500,0.8400,0.8300,1.7500,-4.6250,-7.6875,-0.3907,-0.5531,-0.4657,0.5697,
2025-03-10 20:04:57.630,9.7300,0.8900,0.7200,1.6875,-4.3125,-7.5000,-0.3904,-0.5536,-0.4658,0.5693,
2025-03-10 20:04:57.643,9.7300,0.9200,0.6900,1.8125,-3.6875,-7.2500,-0.3902,-0.5542,-0.4660,0.5688,
2025-03-10 20:04:57.659,9.7800,0.9400,0.7100,2.3125,-3.5625,-7.1875,-0.3896,-0.5552,-0.4663,0.5680,
2025-03-10 20:04:57.666,9.8500,0.9600,0.7400,3.0625,-3.8750,-6.8125,-0.3892,-0.5557,-0.4664,0.5676,
2025-03-10 20:04:57.687,9.8700,1.0300,0.7500,3.2500,-4.2500,-6.4375,-0.3889,-0.5563,-0.4665,0.5672,
2025-03-10 20:04:57.688,9.9100,1.0500,0.6900,2.8750,-4.0000,-6.0000,-0.3886,-0.5568,-0.4666,0.5668,
2025-03-10 20:04:57.708,9.8600,1.1400,0.6800,1.4375,-2.8750,-5.8750,-0.3880,-0.5579,-0.4667,0.5661,
2025-03-10 20:04:57.735,9.8300,1.1500,0.6500,0.6875,-2.3750,-5.6875,-0.3877,-0.5583,-0.4669,0.5657,
2025-03-10 20:04:57.739,9.8400,1.1400,0.6300,0.3750,-2.2500,-5.5000,-0.3875,-0.5587,-0.4670,0.5653,
2025-03-10 20:04:57.739,9.8500,1.1100,0.5400,-0.2500,-2.0625,-5.3125,-0.3872,-0.5591,-0.4673,0.5649,
2025-03-10 20:04:57.757,9.7600,1.1400,0.5800,-0.3125,-0.6250,-5.1250,-0.3868,-0.5598,-0.4678,0.5641,
2025-03-10 20:04:57.800,9.6500,1.1800,0.6600,-0.5625,-0.3125,-5.7500,-0.3865,-0.5601,-0.4680,0.5638,
2025-03-10 20:04:57.800,9.7400,1.1100,0.6500,-1.9375,-0.6875,-6.7500,-0.3859,-0.5605,-0.4688,0.5632,
2025-03-10 20:04:57.807,9.7800,1.0300,0.5500,-4.1250,-1.0000,-6.3125,-0.3855,-0.5610,-0.4696,0.5623,
2025-03-10 20:04:57.830,9.6800,1.0600,0.5900,-3.4375,-0.5625,-5.9375,-0.3853,-0.5612,-0.4705,0.5614,
2025-03-10 20:04:57.847,9.6700,1.1300,0.6500,-1.8125,-0.8125,-6.0625,-0.3850,-0.5615,-0.4714,0.5607,
2025-03-10 20:04:57.857,9.7100,1.1100,0.6600,-1.8750,-1.0000,-6.1250,-0.3848,-0.5616,-0.4717,0.5603,
2025-03-10 20:04:57.880,9.8900,1.1000,0.5600,-3.6250,-1.0625,-5.6875,-0.3845,-0.5620,-0.4725,0.5595,
2025-03-10 20:04:57.900,9.9300,1.1100,0.6200,-4.4375,-0.6875,-5.2500,-0.3845,-0.5622,-0.4733,0.5587,
2025-03-10 20:04:57.908,9.9100,1.1100,0.6700,-4.1250,-0.6250,-5.1875,-0.3845,-0.5623,-0.4738,0.5582,
2025-03-10 20:04:57.929,9.8300,1.0900,0.7700,-4.3125,-0.9375,-6.0000,-0.3843,-0.5623,-0.4747,0.5575,
2025-03-10 20:04:57.949,9.7700,1.1000,0.6900,-5.3750,-2.0000,-5.5625,-0.3843,-0.5625,-0.4756,0.5566,
2025-03-10 20:04:57.959,9.7500,1.1200,0.7100,-5.7500,-1.8125,-5.4375,-0.3844,-0.5625,-0.4760,0.5561,
2025-03-10 20:04:57.980,9.6200,1.1200,0.6800,-3.5000,-0.1875,-5.4375,-0.3845,-0.5626,-0.4769,0.5551,
2025-03-10 20:04:57.997,9.6400,1.2200,0.6900,-1.9375,0.3750,-6.0625,-0.3842,-0.5627,-0.4778,0.5545,
2025-03-10 20:04:58.011,9.7100,1.2500,0.6800,-2.3750,-0.0625,-5.9375,-0.3840,-0.5628,-0.4782,0.5542,
2025-03-10 20:04:58.031,9.6400,1.3100,0.6200,-4.0000,-0.5000,-5.4375,-0.3837,-0.5630,-0.4790,0.5535,
2025-03-10 20:04:58.058,9.5700,1.2800,0.6500,-4.4375,-0.3750,-5.6875,-0.3835,-0.5631,-0.4800,0.5527,
2025-03-10 20:04:58.059,9.6400,1.2300,0.7100,-4.1250,0.0625,-6.0625,-0.3834,-0.5631,-0.4805,0.5523,
2025-03-10 20:04:58.081,9.8200,1.2800,0.7100,-3.5625,-0.1875,-6.1875,-0.3832,-0.5632,-0.4814,0.5515,
2025-03-10 20:04:58.103,9.9100,1.2700,0.6600,-4.3750,-1.0000,-5.9375,-0.3830,-0.5634,-0.4823,0.5507,
2025-03-10 20:04:58.123,9.8500,1.2500,0.7400,-4.6250,-1.1250,-5.6875,-0.3829,-0.5635,-0.4828,0.5503,
2025-03-10 20:04:58.133,9.8000,1.2300,0.8100,-4.8750,-1.0000,-6.1250,-0.3829,-0.5635,-0.4837,0.5494,
2025-03-10 20:04:58.151,9.7800,1.2400,0.7700,-4.5625,-1.3125,-6.1250,-0.3829,-0.5637,-0.4847,0.5485,
2025-03-10 20:04:58.168,9.7500,1.3000,0.6100,-1.4375,-0.6250,-5.2500,-0.3827,-0.5639,-0.4853,0.5477,
2025-03-10 20:04:58.189,9.6900,1.2600,0.7300,-1.0000,-0.2500,-5.7500,-0.3823,-0.5641,-0.4860,0.5472,
2025-03-10 20:04:58.208,9.6100,1.1600,0.7600,-1.1250,-1.1250,-5.6875,-0.3819,-0.5645,-0.4866,0.5466,
2025-03-10 20:04:58.230,9.6300,1.1800,0.6800,0.1875,-1.0000,-4.9375,-0.3815,-0.5648,-0.4871,0.5460,
2025-03-10 20:04:58.247,9.6700,1.3000,0.6300,2.0625,-0.6250,-4.0625,-0.3811,-0.5653,-0.4874,0.5456,
2025-03-10 20:04:58.259,9.6900,1.4400,0.6400,5.6250,-0.6875,-2.7500,-0.3807,-0.5656,-0.4872,0.5456,
2025-03-10 20:04:58.277,9.7600,1.7100,0.5700,5.8750,-0.9375,-0.8125,-0.3801,-0.5663,-0.4868,0.5458,
2025-03-10 20:04:58.297,9.7500,1.7900,0.5800,4.8125,-0.3750,-0.6875,-0.3795,-0.5669,-0.4863,0.5460,
2025-03-10 20:04:58.329,9.6500,1.7900,0.6300,1.9375,0.0000,-1.6875,-0.3791,-0.5673,-0.4860,0.5461,
2025-03-10 20:04:58.339,9.6700,1.7100,0.6300,0.3125,-0.1875,-1.7500,-0.3788,-0.5675,-0.4860,0.5462,
2025-03-10 20:04:58.357,9.6800,1.5800,0.5500,-0.1250,-0.3750,-1.1875,-0.3785,-0.5677,-0.4863,0.5458,
2025-03-10 20:04:58.378,9.6700,1.5600,0.5300,-0.6875,-0.5000,-0.6250,-0.3784,-0.5679,-0.4864,0.5456,
2025-03-10 20:04:58.412,9.7800,1.5300,0.6200,-1.2500,-0.3750,-0.6875,-0.3783,-0.5680,-0.4866,0.5454,
2025-03-10 20:04:58.414,9.7900,1.5300,0.6400,-1.6250,-0.4375,-0.5000,-0.3784,-0.5680,-0.4867,0.5453,
2025-03-10 20:04:58.441,9.8000,1.4600,0.7300,-1.6875,-0.3750,-0.5625,-0.3785,-0.5679,-0.4869,0.5452,
2025-03-10 20:04:58.448,9.7500,1.4200,0.7200,-1.4375,-0.2500,-0.5000,-0.3786,-0.5677,-0.4870,0.5451,
2025-03-10 20:04:58.460,9.6800,1.4100,0.6700,-0.5625,0.2500,-0.6250,-0.3787,-0.5677,-0.4871,0.5450,
2025-03-10 20:04:58.478,9.6200,1.4800,0.6600,-0.3750,-0.2500,-0.8125,-0.3785,-0.5678,-0.4872,0.5450,
2025-03-10 20:04:58.501,9.7000,1.4600,0.7400,-0.6250,-0.3750,-1.3125,-0.3785,-0.5678,-0.4874,0.5448,
2025-03-10 20:04:58.510,9.7100,1.4400,0.7300,-0.5625,-0.3750,-1.5000,-0.3784,-0.5679,-0.4874,0.5448,
2025-03-10 20:04:58.531,9.7400,1.4900,0.6400,-0.1875,-0.6875,-1.0625,-0.3783,-0.5680,-0.4875,0.5446,
2025-03-10 20:04:58.544,9.7300,1.5400,0.5800,0.1250,-0.0625,-0.5625,-0.3782,-0.5680,-0.4876,0.5446,
2025-03-10 20:04:58.571,9.7300,1.5600,0.5800,0.0000,-0.0625,-0.9375,-0.3782,-0.5681,-0.4877,0.5445,
2025-03-10 20:04:58.594,9.7700,1.5000,0.6700,-1.1250,-0.1875,-1.3750,-0.3781,-0.5681,-0.4879,0.5443,
2025-03-10 20:04:58.597,9.7200,1.4600,0.7800,-1.1875,-0.1875,-1.4375,-0.3781,-0.5681,-0.4881,0.5441,
2025-03-10 20:04:58.607,9.6800,1.4700,0.7500,-0.5000,-0.0625,-1.1875,-0.3780,-0.5682,-0.4882,0.5441,
2025-03-10 20:04:58.640,9.6700,1.5500,0.5800,-0.2500,0.9375,-1.1250,-0.3778,-0.5682,-0.4883,0.5440,
2025-03-10 20:04:58.649,9.6700,1.5400,0.5500,-1.2500,0.5000,-0.6250,-0.3777,-0.5682,-0.4885,0.5439,
2025-03-10 20:04:58.659,9.6500,1.5100,0.5700,-1.5625,0.3750,-0.3750,-0.3778,-0.5681,-0.4886,0.5438,
2025-03-10 20:04:58.679,9.6900,1.4600,0.6400,-1.3125,-0.3125,-0.3750,-0.3779,-0.5680,-0.4888,0.5437,
2025-03-10 20:04:58.698,9.7700,1.4300,0.6800,-1.2500,-0.4375,-0.5000,-0.3781,-0.5679,-0.4888,0.5436,
2025-03-10 20:04:58.711,9.7600,1.4600,0.6800,-1.1875,-0.3750,-0.5625,-0.3781,-0.5679,-0.4889,0.5436,
2025-03-10 20:04:58.726,9.7500,1.5200,0.6200,-1.2500,0.0000,-0.6250,-0.3782,-0.5678,-0.4891,0.5435,
2025-03-10 20:04:58.747,9.7500,1.4600,0.7200,-1.4375,0.1250,-0.8750,-0.3782,-0.5678,-0.4893,0.5433,
2025-03-10 20:04:58.759,9.7700,1.4500,0.7100,-1.1250,-0.1875,-0.8750,-0.3782,-0.5678,-0.4894,0.5432,
2025-03-10 20:04:58.777,9.7500,1.5900,0.6400,-0.7500,-0.2500,-0.6875,-0.3782,-0.5677,-0.4896,0.5431,
2025-03-10 20:04:58.812,9.7200,1.7100,0.6000,-1.0625,0.1875,-0.3750,-0.3783,-0.5677,-0.4897,0.5430,
2025-03-10 20:04:58.818,9.6700,1.6900,0.5200,-1.5625,0.5625,-0.5000,-0.3783,-0.5677,-0.4898,0.5429,
2025-03-10 20:04:58.829,9.6700,1.6000,0.6000,-3.2500,0.9375,-0.9375,-0.3784,-0.5675,-0.4902,0.5427,
2025-03-10 20:04:58.844,9.6900,1.5000,0.6800,-4.0000,0.5000,-1.1250,-0.3786,-0.5673,-0.4907,0.5423,
2025-03-10 20:04:58.863,9.7100,1.5200,0.6800,-3.7500,0.3125,-0.9375,-0.3787,-0.5672,-0.4909,0.5421,
2025-03-10 20:04:58.878,9.7100,1.4700,0.6400,-3.3750,0.5000,-0.3750,-0.3790,-0.5669,-0.4913,0.5419,
2025-03-10 20:04:58.890,9.7200,1.4400,0.6400,-3.1250,0.9375,-0.3125,-0.3791,-0.5667,-0.4915,0.5418,
2025-03-10 20:04:58.949,9.7600,1.4500,0.7000,-2.6875,0.5000,-0.2500,-0.3793,-0.5665,-0.4918,0.5416,
2025-03-10 20:04:58.949,9.7500,1.4500,0.7100,-2.5000,0.4375,-0.5000,-0.3796,-0.5663,-0.4920,0.5415,
2025-03-10 20:04:58.954,9.7500,1.4500,0.7500,-2.2500,0.6250,-0.5000,-0.3796,-0.5661,-0.4922,0.5414,
2025-03-10 20:04:58.954,9.7300,1.4300,0.7300,-1.8750,0.8125,-0.5000,-0.3797,-0.5660,-0.4922,0.5414,
2025-03-10 20:04:58.956,9.6800,1.4400,0.7500,-1.1875,0.9375,-0.3750,-0.3797,-0.5659,-0.4924,0.5414,
2025-03-10 20:04:58.966,9.6800,1.4900,0.6900,-1.0625,0.9375,-0.1250,-0.3797,-0.5659,-0.4924,0.5414,
2025-03-10 20:04:58.981,9.6800,1.4700,0.7000,-0.9375,0.8750,-0.2500,-0.3797,-0.5658,-0.4925,0.5415,
2025-03-10 20:04:58.987,9.6500,1.5100,0.6700,-0.6875,0.4375,-0.0625,-0.3798,-0.5657,-0.4925,0.5414,
2025-03-10 20:04:58.996,9.6600,1.5600,0.6400,-0.7500,0.3750,0.0625,-0.3798,-0.5657,-0.4926,0.5414,
2025-03-10 20:04:59.011,9.6400,1.5700,0.6500,-0.6250,0.3125,-0.0625,-0.3798,-0.5657,-0.4926,0.5414,
2025-03-10 20:04:59.016,9.6500,1.5700,0.6300,-0.5625,0.5000,0.0000,-0.3798,-0.5657,-0.4926,0.5413,
2025-03-10 20:04:59.027,9.6700,1.5700,0.6300,-0.8125,0.7500,-0.2500,-0.3798,-0.5657,-0.4927,0.5413,
2025-03-10 20:04:59.039,9.7000,1.5500,0.6600,-1.4375,0.6250,-0.3750,-0.3798,-0.5656,-0.4928,0.5413,
2025-03-10 20:04:59.049,9.7200,1.5300,0.6900,-1.6875,0.8125,-0.5000,-0.3798,-0.5655,-0.4929,0.5413,
2025-03-10 20:04:59.055,9.7500,1.5000,0.7200,-2.0000,0.6250,-0.5625,-0.3799,-0.5654,-0.4930,0.5413,
2025-03-10 20:04:59.074,9.7700,1.5000,0.7200,-1.8750,0.3750,-0.8750,-0.3799,-0.5653,-0.4932,0.5411,
2025-03-10 20:04:59.076,9.7800,1.4700,0.7500,-1.8125,0.1875,-1.0625,-0.3799,-0.5653,-0.4933,0.5410,
2025-03-10 20:04:59.087,9.7500,1.4600,0.7900,-1.6875,0.0625,-1.1875,-0.3800,-0.5653,-0.4935,0.5409,
2025-03-10 20:04:59.099,9.6600,1.4800,0.8000,-1.1250,0.2500,-1.1875,-0.3799,-0.5652,-0.4936,0.5408,
2025-03-10 20:04:59.106,9.6900,1.4900,0.7500,-0.6250,0.3125,-1.1875,-0.3799,-0.5653,-0.4937,0.5408,
2025-03-10 20:04:59.117,9.6700,1.5300,0.7200,-0.0625,0.3125,-1.3125,-0.3799,-0.5653,-0.4937,0.5407,
2025-03-10 20:04:59.131,9.7000,1.5600,0.6900,-0.1250,0.5000,-1.3750,-0.3798,-0.5654,-0.4938,0.5406,
2025-03-10 20:04:59.137,9.7700,1.6000,0.6700,-0.3750,-0.0625,-1.1875,-0.3797,-0.5654,-0.4939,0.5406,
2025-03-10 20:04:59.145,9.7500,1.6300,0.6700,-0.6875,-0.0625,-1.1250,-0.3797,-0.5654,-0.4939,0.5405,
2025-03-10 20:04:59.162,9.7700,1.6300,0.6600,-1.0000,-0.0625,-0.9375,-0.3797,-0.5654,-0.4941,0.5404,
2025-03-10 20:04:59.166,9.7400,1.5800,0.6000,-1.5625,0.1875,-0.9375,-0.3797,-0.5654,-0.4942,0.5403,
2025-03-10 20:04:59.177,9.6800,1.5600,0.6600,-1.8125,0.3125,-0.8750,-0.3797,-0.5654,-0.4943,0.5402,
2025-03-10 20:04:59.189,9.6200,1.5800,0.6900,-1.6250,0.2500,-1.0000,-0.3798,-0.5654,-0.4944,0.5401,
2025-03-10 20:04:59.196,9.6100,1.5500,0.7300,-1.6875,-0.0625,-1.0000,-0.3798,-0.5653,-0.4946,0.5400,
2025-03-10 20:04:59.209,9.6000,1.5300,0.7300,-1.7500,-0.0625,-1.0000,-0.3798,-0.5653,-0.4947,0.5399,
2025-03-10 20:04:59.240,9.6200,1.5100,0.6900,-1.4375,0.0000,-0.8125,-0.3798,-0.5653,-0.4948,0.5398,
2025-03-10 20:04:59.240,9.6400,1.5300,0.6700,-1.3125,0.0000,-0.5000,-0.3799,-0.5652,-0.4949,0.5397,
2025-03-10 20:04:59.242,9.6800,1.5200,0.7000,-1.3125,0.0625,-0.3750,-0.3799,-0.5651,-0.4950,0.5397,
2025-03-10 20:04:59.257,9.7000,1.5000,0.7100,-0.7500,0.1250,-0.4375,-0.3799,-0.5651,-0.4950,0.5397,
2025-03-10 20:04:59.257,9.7200,1.5200,0.7100,-0.4375,-0.0625,-0.2500,-0.3799,-0.5651,-0.4950,0.5397,
2025-03-10 20:04:59.267,9.7100,1.5100,0.7700,-0.4375,0.1250,-0.2500,-0.3799,-0.5651,-0.4950,0.5397,
2025-03-10 20:04:59.280,9.6700,1.5500,0.7500,-0.3750,-0.0625,-0.1250,-0.3799,-0.5651,-0.4950,0.5397,
2025-03-10 20:04:59.288,9.6700,1.5400,0.7500,-0.5000,0.0000,-0.0625,-0.3799,-0.5651,-0.4950,0.5397,
2025-03-10 20:04:59.296,9.6900,1.5600,0.7300,-0.1875,0.0000,-0.0625,-0.3799,-0.5651,-0.4950,0.5397,
2025-03-10 20:04:59.313,9.7100,1.6000,0.6900,-0.0625,0.1875,-0.1250,-0.3799,-0.5651,-0.4950,0.5397,
2025-03-10 20:04:59.316,9.7100,1.6100,0.7300,-0.1250,0.0625,-0.3750,-0.3799,-0.5651,-0.4951,0.5397,
2025-03-10 20:04:59.340,9.7400,1.5800,0.7300,-0.4375,0.1250,-0.5000,-0.3799,-0.5651,-0.4951,0.5396,
2025-03-10 20:04:59.341,9.7200,1.6100,0.7200,-0.3125,0.0625,-0.3750,-0.3799,-0.5651,-0.4951,0.5396,
2025-03-10 20:04:59.351,9.6800,1.5900,0.7500,-0.1250,0.1250,-0.3750,-0.3799,-0.5652,-0.4951,0.5396,
2025-03-10 20:04:59.357,9.6800,1.5800,0.7200,0.0625,0.3125,-0.5625,-0.3798,-0.5652,-0.4951,0.5396,
2025-03-10 20:04:59.371,9.6800,1.5800,0.7300,0.0000,0.5000,-0.9375,-0.3798,-0.5652,-0.4951,0.5396,
2025-03-10 20:04:59.376,9.7400,1.5700,0.7000,-0.3750,0.3750,-1.3125,-0.3798,-0.5652,-0.4952,0.5396,
2025-03-10 20:04:59.389,9.7400,1.5100,0.7300,-0.5625,0.2500,-1.3750,-0.3797,-0.5653,-0.4952,0.5395,
2025-03-10 20:04:59.399,9.7500,1.4900,0.7200,-0.6250,0.0000,-1.5625,-0.3796,-0.5653,-0.4953,0.5394,
2025-03-10 20:04:59.407,9.7000,1.4800,0.7300,-0.6250,-0.0625,-1.4375,-0.3796,-0.5653,-0.4954,0.5394,
2025-03-10 20:04:59.416,9.6500,1.4700,0.7200,-0.3125,-0.0625,-1.1875,-0.3795,-0.5654,-0.4955,0.5393,
2025-03-10 20:04:59.431,9.6200,1.5000,0.7200,0.3125,0.2500,-1.0000,-0.3795,-0.5654,-0.4956,0.5392,
2025-03-10 20:04:59.439,9.5900,1.5100,0.6900,0.8750,0.0625,-0.6250,-0.3794,-0.5654,-0.4956,0.5392,
2025-03-10 20:04:59.446,9.6000,1.5500,0.7000,1.3125,0.1875,-0.3750,-0.3793,-0.5655,-0.4956,0.5392,
2025-03-10 20:04:59.459,9.6400,1.6200,0.6600,1.6875,-0.0625,-0.4375,-0.3793,-0.5656,-0.4955,0.5392,
2025-03-10 20:04:59.466,9.6600,1.6400,0.6700,1.3750,-0.1250,-0.3125,-0.3792,-0.5656,-0.4955,0.5392,
2025-03-10 20:04:59.479,9.7000,1.6700,0.6500,1.1250,-0.2500,-0.3125,-0.3791,-0.5657,-0.4954,0.5393,
2025-03-10 20:04:59.490,9.7000,1.6600,0.7300,0.8750,-0.4375,-0.3125,-0.3791,-0.5657,-0.4954,0.5393,
2025-03-10 20:04:59.497,9.7200,1.6300,0.7400,0.6250,-0.3125,-0.4375,-0.3790,-0.5658,-0.4953,0.5393,
2025-03-10 20:04:59.506,9.7200,1.6000,0.7700,0.4375,-0.6875,-0.5625,-0.3790,-0.5659,-0.4953,0.5393,
2025-03-10 20:04:59.537,9.7100,1.6000,0.7900,0.1875,-0.5625,-0.5625,-0.3790,-0.5659,-0.4953,0.5393,
2025-03-10 20:04:59.544,9.7100,1.6300,0.7800,0.3125,-0.6875,-0.3750,-0.3790,-0.5659,-0.4953,0.5393,
2025-03-10 20:04:59.544,9.7100,1.6600,0.6900,0.4375,-0.4375,-0.2500,-0.3790,-0.5659,-0.4953,0.5392,
2025-03-10 20:04:59.549,9.6600,1.6900,0.6600,0.7500,0.0000,-0.1250,-0.3789,-0.5659,-0.4954,0.5392,
2025-03-10 20:04:59.557,9.6400,1.7200,0.6300,0.5000,0.0625,-0.0625,-0.3788,-0.5660,-0.4954,0.5392,
2025-03-10 20:04:59.566,9.6400,1.7000,0.6700,0.0000,-0.0625,-0.1250,-0.3789,-0.5660,-0.4954,0.5392,
2025-03-10 20:04:59.579,9.6500,1.6800,0.6600,-0.3125,-0.1875,-0.1875,-0.3788,-0.5660,-0.4954,0.5392,
2025-03-10 20:04:59.589,9.6700,1.6500,0.7100,-0.7500,-0.3750,-0.3750,-0.3788,-0.5660,-0.4954,0.5391,
2025-03-10 20:04:59.596,9.7200,1.5700,0.7600,-0.8750,-0.4375,-0.6250,-0.3788,-0.5660,-0.4955,0.5391,
2025-03-10 20:04:59.612,9.7300,1.5500,0.7800,-0.9375,-0.5000,-0.6875,-0.3788,-0.5660,-0.4956,0.5390,
2025-03-10 20:04:59.618,9.7300,1.5100,0.7600,-0.3750,-0.4375,-0.7500,-0.3788,-0.5661,-0.4956,0.5390,
2025-03-10 20:04:59.629,9.6600,1.5700,0.7000,0.1250,-0.5625,-0.5625,-0.3787,-0.5660,-0.4957,0.5389,
2025-03-10 20:04:59.640,9.6900,1.6100,0.6700,0.6875,-0.5625,-0.3125,-0.3787,-0.5660,-0.4957,0.5389,
2025-03-10 20:04:59.648,9.6700,1.6400,0.6800,1.0000,-0.4375,-0.3125,-0.3787,-0.5661,-0.4957,0.5389,
2025-03-10 20:04:59.656,9.7000,1.6500,0.6600,1.1250,-0.2500,-0.1875,-0.3787,-0.5662,-0.4956,0.5389,
