A1,,,,,,,,,,,
time,accx,accy,accz,gyrox,gyroy,gyroz,w1,w2,w3,w4,
2025-03-08 20:48:10.165,9.5000,0.8700,0.9600,1.5000,0.7500,0.0000,-0.2059,-0.6548,0.1353,-0.7145,
2025-03-08 20:48:10.172,9.4900,0.8500,0.9300,1.2500,0.7500,-0.1250,-0.2059,-0.6548,0.1351,-0.7146,
2025-03-08 20:48:10.180,9.5000,0.8600,0.9400,0.8125,1.0000,-0.1875,-0.2059,-0.6547,0.1351,-0.7146,
2025-03-08 20:48:10.217,9.4900,0.8100,0.9200,0.3125,0.5625,-0.1875,-0.2059,-0.6547,0.1351,-0.7146,
2025-03-08 20:48:10.217,9.4500,0.8300,0.9500,-0.1250,0.3125,-0.3125,-0.2059,-0.6548,0.1350,-0.7146,
2025-03-08 20:48:10.217,9.3800,0.8400,0.9000,0.0625,0.1250,-0.5625,-0.2059,-0.6548,0.1350,-0.7146,
2025-03-08 20:48:10.223,9.3800,0.8500,0.8800,0.3750,0.0000,-0.4375,-0.2059,-0.6548,0.1350,-0.7146,
2025-03-08 20:48:10.239,9.3600,0.8000,0.8700,0.4375,0.1250,-0.5000,-0.2060,-0.6548,0.1349,-0.7145,
2025-03-08 20:48:10.241,9.3700,0.8000,0.8800,0.4375,0.0625,-0.5000,-0.2060,-0.6549,0.1350,-0.7145,
2025-03-08 20:48:10.250,9.4200,0.7800,0.8800,0.3125,0.0000,-0.2500,-0.2060,-0.6549,0.1349,-0.7145,
2025-03-08 20:48:10.261,9.4500,0.8100,0.8800,-0.0625,0.0000,-0.1250,-0.2060,-0.6549,0.1349,-0.7145,
2025-03-08 20:48:10.272,9.4900,0.8400,0.9000,-0.5000,0.1875,-0.3750,-0.2060,-0.6549,0.1350,-0.7144,
2025-03-08 20:48:10.283,9.4700,0.8300,0.9100,-0.6250,0.0000,-0.2500,-0.2061,-0.6550,0.1349,-0.7144,
2025-03-08 20:48:10.291,9.5000,0.8700,0.9200,-0.3125,-0.1250,-0.3750,-0.2061,-0.6550,0.1349,-0.7144,
2025-03-08 20:48:10.301,9.5000,0.8300,0.9400,0.0000,-0.4375,-0.1875,-0.2090,-0.6544,0.1376,-0.7135,
2025-03-08 20:48:10.312,9.4900,0.7900,0.9600,0.3750,-0.5625,-0.1875,-0.2090,-0.6544,0.1376,-0.7135,
2025-03-08 20:48:10.322,9.4800,0.8000,0.9600,0.5000,-0.4375,-0.3125,-0.2090,-0.6544,0.1376,-0.7135,
2025-03-08 20:48:10.329,9.4600,0.7800,0.9900,0.2500,-0.1875,-0.3125,-0.2090,-0.6544,0.1376,-0.7135,
2025-03-08 20:48:10.372,9.4400,0.8100,0.9600,0.1250,-0.1250,-0.3750,-0.2090,-0.6544,0.1376,-0.7135,
2025-03-08 20:48:10.376,9.3900,0.8300,0.9000,0.1875,-0.0625,-0.3125,-0.2092,-0.6544,0.1377,-0.7135,
2025-03-08 20:48:10.376,9.4300,0.8300,0.8900,0.3125,-0.0625,-0.4375,-0.2092,-0.6545,0.1377,-0.7134,
2025-03-08 20:48:10.376,9.3800,0.8300,0.8600,0.1250,-0.0625,-0.4375,-0.2092,-0.6545,0.1377,-0.7134,
2025-03-08 20:48:10.381,9.3800,0.8100,0.8600,0.2500,0.0000,-0.5000,-0.2092,-0.6545,0.1376,-0.7134,
2025-03-08 20:48:10.387,9.4000,0.7800,0.9000,0.3125,-0.2500,-0.1250,-0.2092,-0.6545,0.1376,-0.7134,
2025-03-08 20:48:10.398,9.4300,0.7900,0.8900,-0.0625,-0.1875,0.0000,-0.2106,-0.6543,0.1389,-0.7129,
2025-03-08 20:48:10.409,9.4200,0.7800,0.9100,-0.0625,-0.0625,0.2500,-0.2106,-0.6543,0.1389,-0.7129,
2025-03-08 20:48:10.419,9.4300,0.8000,0.8900,0.0000,-0.1875,0.5000,-0.2106,-0.6543,0.1389,-0.7129,
2025-03-08 20:48:10.428,9.4700,0.8400,0.9500,0.2500,0.0000,0.4375,-0.2106,-0.6543,0.1389,-0.7129,
2025-03-08 20:48:10.439,9.5000,0.8400,0.9000,0.6875,-0.1875,0.5000,-0.2105,-0.6544,0.1388,-0.7129,
2025-03-08 20:48:10.449,9.5100,0.8500,0.9400,0.8750,-0.1250,0.4375,-0.2110,-0.6543,0.1392,-0.7128,
2025-03-08 20:48:10.459,9.5100,0.8500,0.9300,0.6875,-0.1875,0.1875,-0.2110,-0.6543,0.1392,-0.7128,
2025-03-08 20:48:10.469,9.5200,0.8600,0.9400,0.5000,0.0000,0.2500,-0.2110,-0.6543,0.1392,-0.7127,
2025-03-08 20:48:10.485,9.5000,0.8400,0.9000,0.1250,0.1250,0.0000,-0.2110,-0.6544,0.1392,-0.7127,
2025-03-08 20:48:10.485,9.4900,0.8500,0.9000,0.0000,0.3750,0.0000,-0.2110,-0.6544,0.1391,-0.7127,
2025-03-08 20:48:10.501,9.4500,0.8100,0.9100,-0.1250,0.3125,-0.0625,-0.2111,-0.6544,0.1392,-0.7127,
2025-03-08 20:48:10.501,9.4400,0.8100,0.9200,0.0625,-0.0625,-0.1250,-0.2111,-0.6544,0.1391,-0.7127,
2025-03-08 20:48:10.511,9.4400,0.8000,0.9100,0.1250,-0.2500,-0.1875,-0.2111,-0.6544,0.1391,-0.7126,
2025-03-08 20:48:10.525,9.4700,0.7600,0.9100,0.0625,-0.1250,-0.2500,-0.2111,-0.6544,0.1391,-0.7126,
2025-03-08 20:48:10.533,9.4200,0.7700,0.9100,0.2500,-0.1250,0.0000,-0.2111,-0.6544,0.1391,-0.7126,
2025-03-08 20:48:10.562,9.4300,0.7700,0.9000,0.4375,-0.3125,0.1250,-0.2111,-0.6544,0.1392,-0.7126,
2025-03-08 20:48:10.562,9.4300,0.7900,0.9100,0.8750,-0.3125,0.3750,-0.2111,-0.6544,0.1391,-0.7126,
2025-03-08 20:48:10.562,9.4400,0.8500,0.8700,1.0000,-0.1875,0.3125,-0.2110,-0.6545,0.1390,-0.7126,
2025-03-08 20:48:10.572,9.4000,0.8600,0.9000,0.8125,-0.3125,0.3750,-0.2110,-0.6545,0.1390,-0.7126,
2025-03-08 20:48:10.585,9.4100,0.8600,0.8900,0.6250,-0.4375,0.1875,-0.2109,-0.6545,0.1389,-0.7126,
2025-03-08 20:48:10.597,9.4500,0.8500,0.9000,0.0625,-0.6250,0.1875,-0.2117,-0.6545,0.1395,-0.7123,
2025-03-08 20:48:10.603,9.4600,0.8100,0.8900,-0.2500,-0.5000,0.0000,-0.2117,-0.6545,0.1395,-0.7123,
2025-03-08 20:48:10.613,9.4500,0.8300,0.8600,-0.1250,-0.5625,0.0000,-0.2117,-0.6545,0.1395,-0.7123,
2025-03-08 20:48:10.627,9.4500,0.8200,0.8500,0.0000,-0.3125,-0.1875,-0.2117,-0.6545,0.1395,-0.7123,
2025-03-08 20:48:10.663,9.4500,0.7900,0.8500,0.2500,-0.4375,-0.1250,-0.2117,-0.6546,0.1395,-0.7122,
2025-03-08 20:48:10.663,9.4300,0.8000,0.8800,0.4375,-0.4375,0.1250,-0.2117,-0.6546,0.1395,-0.7122,
2025-03-08 20:48:10.663,9.4300,0.7800,0.9100,0.3750,-0.5625,0.0000,-0.2117,-0.6546,0.1395,-0.7122,
2025-03-08 20:48:10.663,9.4700,0.7600,0.8900,0.4375,-0.7500,0.0625,-0.2117,-0.6547,0.1395,-0.7122,
2025-03-08 20:48:10.674,9.4500,0.7600,0.8700,0.8750,-0.6875,-0.0625,-0.2116,-0.6547,0.1395,-0.7121,
2025-03-08 20:48:10.685,9.5000,0.7400,0.8700,1.0625,-1.0625,0.1250,-0.2115,-0.6548,0.1394,-0.7120,
2025-03-08 20:48:10.694,9.5100,0.7600,0.8800,1.4375,-1.2500,0.0000,-0.2114,-0.6550,0.1393,-0.7120,
2025-03-08 20:48:10.705,9.5300,0.7900,0.9600,1.9375,-1.1875,-0.1250,-0.2113,-0.6550,0.1392,-0.7120,
2025-03-08 20:48:10.718,9.5700,0.8400,0.9700,2.0000,-1.0000,-0.0625,-0.2112,-0.6552,0.1391,-0.7119,
2025-03-08 20:48:10.727,9.5800,0.8900,0.9900,1.7500,-0.1250,-0.1250,-0.2111,-0.6552,0.1390,-0.7119,
2025-03-08 20:48:10.737,9.4800,0.9300,0.9900,0.8750,1.1875,-0.1875,-0.2111,-0.6552,0.1389,-0.7120,
2025-03-08 20:48:10.748,9.4500,0.9000,0.9300,0.6875,1.6875,-0.2500,-0.2111,-0.6550,0.1389,-0.7121,
2025-03-08 20:48:10.757,9.4400,0.8500,0.8800,0.6875,1.6875,-0.4375,-0.2111,-0.6550,0.1387,-0.7122,
2025-03-08 20:48:10.767,9.4400,0.7700,0.8600,1.0625,1.0625,-0.3750,-0.2111,-0.6550,0.1387,-0.7122,
2025-03-08 20:48:10.776,9.4000,0.6500,0.8200,0.8750,0.6875,-0.1250,-0.2110,-0.6549,0.1386,-0.7123,
2025-03-08 20:48:10.786,9.4200,0.6600,0.8900,1.0000,0.1875,-0.0625,-0.2109,-0.6550,0.1385,-0.7123,
2025-03-08 20:48:10.797,9.4200,0.6800,0.9200,1.1250,0.0625,0.1250,-0.2109,-0.6550,0.1385,-0.7123,
2025-03-08 20:48:10.807,9.4400,0.7200,0.9700,1.5000,0.3750,0.1875,-0.2108,-0.6550,0.1384,-0.7123,
2025-03-08 20:48:10.817,9.4400,0.8400,0.9400,1.6875,0.4375,0.1875,-0.2107,-0.6551,0.1383,-0.7123,
2025-03-08 20:48:10.838,9.3900,0.8700,0.9200,1.9375,0.2500,0.0625,-0.2106,-0.6551,0.1382,-0.7123,
2025-03-08 20:48:10.838,9.3800,0.8900,0.8600,2.0625,-0.3750,0.1875,-0.2105,-0.6552,0.1381,-0.7123,
2025-03-08 20:48:10.860,9.4000,0.9100,0.8000,2.1875,-0.8750,0.1875,-0.2105,-0.6552,0.1381,-0.7123,
2025-03-08 20:48:10.860,9.4400,0.9000,0.7700,1.8750,-1.3750,0.1250,-0.2117,-0.6550,0.1390,-0.7119,
2025-03-08 20:48:10.867,9.4600,0.8900,0.7900,1.2500,-1.5000,0.2500,-0.2115,-0.6554,0.1389,-0.7117,
2025-03-08 20:48:10.877,9.4600,0.9000,0.8400,0.3750,-1.4375,0.1875,-0.2115,-0.6555,0.1389,-0.7115,
2025-03-08 20:48:10.888,9.4900,0.8800,0.9000,-0.3750,-1.1875,0.1875,-0.2115,-0.6556,0.1389,-0.7114,
2025-03-08 20:48:10.888,9.5300,0.8600,0.9400,-0.9375,-1.0000,0.3125,-0.2120,-0.6556,0.1394,-0.7112,
2025-03-08 20:48:10.898,9.5200,0.8600,0.9600,-1.2500,-0.4375,0.3750,-0.2122,-0.6556,0.1395,-0.7112,
2025-03-08 20:48:10.920,9.4800,0.7900,0.9100,-0.9375,-0.3125,0.3125,-0.2122,-0.6556,0.1395,-0.7112,
2025-03-08 20:48:10.928,9.4600,0.7900,0.9000,-0.1875,-0.2500,0.3125,-0.2122,-0.6556,0.1395,-0.7112,
2025-03-08 20:48:10.970,9.4500,0.7700,0.8800,0.3125,-0.1875,0.2500,-0.2122,-0.6556,0.1395,-0.7112,
2025-03-08 20:48:10.970,9.4600,0.7500,0.8500,1.0000,-0.1250,0.0625,-0.2125,-0.6555,0.1397,-0.7111,
2025-03-08 20:48:10.970,9.4800,0.7600,0.8600,1.1875,-0.4375,0.1250,-0.2125,-0.6555,0.1397,-0.7111,
2025-03-08 20:48:10.986,9.4700,0.7800,0.8600,1.3750,-0.6250,0.1250,-0.2124,-0.6556,0.1396,-0.7111,
2025-03-08 20:48:10.986,9.4400,0.7900,0.8700,1.5000,-0.8125,-0.0625,-0.2123,-0.6556,0.1396,-0.7111,
2025-03-08 20:48:10.986,9.4200,0.8700,0.8900,1.8125,-1.1875,-0.0625,-0.2122,-0.6557,0.1395,-0.7110,
2025-03-08 20:48:10.991,9.4100,0.8600,0.8600,1.9375,-1.4375,-0.2500,-0.2121,-0.6558,0.1394,-0.7110,
2025-03-08 20:48:11.010,9.4100,0.9000,0.8600,1.6250,-1.2500,-0.1875,-0.2120,-0.6560,0.1393,-0.7109,
2025-03-08 20:48:11.020,9.4500,0.8500,0.8700,0.8125,-0.8750,-0.3125,-0.2119,-0.6561,0.1392,-0.7108,
2025-03-08 20:48:11.033,9.5200,0.8100,0.8400,0.3125,-0.3750,-0.3125,-0.2119,-0.6562,0.1392,-0.7108,
2025-03-08 20:48:11.041,9.5200,0.7800,0.8700,-0.1875,0.0000,-0.5000,-0.2119,-0.6562,0.1392,-0.7108,
2025-03-08 20:48:11.051,9.5200,0.7900,0.8900,-0.1250,-0.1250,-0.3125,-0.2119,-0.6563,0.1392,-0.7107,
2025-03-08 20:48:11.071,9.5200,0.8400,0.8400,-0.1250,-0.3750,-0.1875,-0.2119,-0.6562,0.1392,-0.7107,
2025-03-08 20:48:11.072,9.5100,0.8600,0.7900,0.3125,-0.6875,0.0000,-0.2119,-0.6562,0.1392,-0.7107,
2025-03-08 20:48:11.082,9.5100,0.8700,0.8000,0.9375,-1.0625,-0.0625,-0.2119,-0.6563,0.1392,-0.7106,
2025-03-08 20:48:11.086,9.5000,0.8600,0.8300,1.3125,-1.2500,-0.1250,-0.2119,-0.6564,0.1392,-0.7106,
2025-03-08 20:48:11.103,9.4600,0.8800,0.8300,1.1250,-1.1875,-0.0625,-0.2118,-0.6565,0.1391,-0.7105,
2025-03-08 20:48:11.105,9.4600,0.8800,0.8600,0.5625,-0.9375,-0.1250,-0.2117,-0.6566,0.1390,-0.7104,
2025-03-08 20:48:11.113,9.4600,0.9200,0.8500,-0.3125,-0.5625,0.0625,-0.2117,-0.6567,0.1390,-0.7103,
2025-03-08 20:48:11.143,9.4600,0.9400,0.8700,-1.2500,-0.1875,0.1875,-0.2117,-0.6567,0.1390,-0.7103,
2025-03-08 20:48:11.143,9.4900,0.9000,0.8600,-1.7500,0.0000,0.0625,-0.2118,-0.6567,0.1390,-0.7103,
2025-03-08 20:48:11.153,9.4900,0.9000,0.8600,-2.0000,0.1250,0.1875,-0.2119,-0.6567,0.1392,-0.7102,
2025-03-08 20:48:11.174,9.5000,0.8500,0.8500,-1.7500,0.0000,0.3750,-0.2119,-0.6568,0.1391,-0.7102,
2025-03-08 20:48:11.174,9.4500,0.7400,0.8200,-1.7500,-0.1250,0.4375,-0.2120,-0.6567,0.1392,-0.7102,
2025-03-08 20:48:11.174,9.4400,0.7600,0.8300,-1.1875,-0.0625,0.5625,-0.2121,-0.6567,0.1393,-0.7101,
2025-03-08 20:48:11.197,9.4300,0.7700,0.8400,-0.8750,-0.3750,0.5625,-0.2122,-0.6567,0.1394,-0.7101,
2025-03-08 20:48:11.197,9.4400,0.8100,0.8700,-0.5000,-0.5625,0.3750,-0.2122,-0.6567,0.1395,-0.7101,
2025-03-08 20:48:11.206,9.4600,0.8200,0.8700,-0.3125,-0.5625,0.2500,-0.2125,-0.6567,0.1396,-0.7100,
2025-03-08 20:48:11.220,9.4700,0.8300,0.8900,-0.1250,-0.4375,0.2500,-0.2125,-0.6567,0.1396,-0.7100,
2025-03-08 20:48:11.226,9.4800,0.8100,0.8800,0.0000,0.0000,0.0625,-0.2125,-0.6567,0.1396,-0.7100,
2025-03-08 20:48:11.267,9.5000,0.8200,0.8800,-0.3750,0.5625,-0.0625,-0.2125,-0.6567,0.1396,-0.7100,
2025-03-08 20:48:11.267,9.5000,0.8200,0.8800,-0.5625,0.9375,-0.1250,-0.2125,-0.6567,0.1396,-0.7100,
2025-03-08 20:48:11.267,9.4800,0.8100,0.8800,-1.0000,0.8125,-0.1875,-0.2125,-0.6566,0.1397,-0.7100,
2025-03-08 20:48:11.267,9.4700,0.7900,0.8600,-0.8125,0.8125,-0.4375,-0.2126,-0.6566,0.1397,-0.7101,
2025-03-08 20:48:11.278,9.4500,0.7000,0.8600,-0.5000,0.6875,-0.5000,-0.2127,-0.6565,0.1397,-0.7101,
2025-03-08 20:48:11.292,9.4500,0.6800,0.8800,0.0625,0.4375,-0.9375,-0.2126,-0.6565,0.1397,-0.7101,
2025-03-08 20:48:11.297,9.4500,0.6800,0.8800,0.3125,0.5000,-0.7500,-0.2127,-0.6565,0.1396,-0.7101,
2025-03-08 20:48:11.308,9.4800,0.7900,0.8500,0.8125,0.3125,-0.4375,-0.2128,-0.6565,0.1397,-0.7101,
2025-03-08 20:48:11.318,9.4700,0.8600,0.8600,1.1250,0.1250,-0.0625,-0.2127,-0.6566,0.1396,-0.7101,
2025-03-08 20:48:11.328,9.4800,0.8800,0.8200,1.4375,-0.0625,-0.1875,-0.2126,-0.6566,0.1395,-0.7101,
2025-03-08 20:48:11.339,9.4600,0.9000,0.8200,1.5000,0.0625,-0.2500,-0.2126,-0.6566,0.1395,-0.7101,
2025-03-08 20:48:11.349,9.4600,0.9000,0.8200,1.5000,0.0625,-0.2500,-0.2125,-0.6567,0.1393,-0.7101,
2025-03-08 20:48:11.359,9.3900,0.9200,0.8100,1.3750,-0.1875,-0.4375,-0.2125,-0.6567,0.1393,-0.7101,
2025-03-08 20:48:11.369,9.3900,0.8900,0.8000,0.0000,0.0625,-0.5000,-0.2125,-0.6567,0.1393,-0.7100,
2025-03-08 20:48:11.379,9.4500,0.8400,0.8600,-0.6875,0.1250,-0.3125,-0.2125,-0.6567,0.1392,-0.7100,
2025-03-08 20:48:11.389,9.4500,0.8200,0.8300,-0.9375,0.1250,-0.0625,-0.2126,-0.6568,0.1393,-0.7100,
2025-03-08 20:48:11.399,9.4500,0.8200,0.8300,-0.9375,0.1250,-0.0625,-0.2126,-0.6568,0.1393,-0.7099,
2025-03-08 20:48:11.409,9.4500,0.7900,0.8100,-0.7500,-0.3750,-0.0625,-0.2128,-0.6567,0.1395,-0.7099,
2025-03-08 20:48:11.419,9.4700,0.7900,0.8200,-0.1250,-0.6875,0.3125,-0.2128,-0.6568,0.1395,-0.7099,
2025-03-08 20:48:11.429,9.4600,0.8500,0.8200,-0.0625,-0.8750,0.1250,-0.2128,-0.6568,0.1395,-0.7098,
2025-03-08 20:48:11.439,9.5000,0.8600,0.8200,-0.0625,-0.9375,0.5000,-0.2128,-0.6569,0.1395,-0.7098,
2025-03-08 20:48:11.440,9.4900,0.8700,0.8400,-0.0625,-0.9375,0.5000,-0.2128,-0.6569,0.1395,-0.7097,
2025-03-08 20:48:11.460,9.4900,0.8800,0.8800,-1.0000,-0.4375,0.3125,-0.2134,-0.6569,0.1401,-0.7095,
2025-03-08 20:48:11.470,9.5000,0.8700,0.8700,-1.5000,-0.2500,0.2500,-0.2134,-0.6569,0.1401,-0.7094,
2025-03-08 20:48:11.480,9.5000,0.8500,0.8500,-1.6250,-0.1875,0.0000,-0.2136,-0.6569,0.1402,-0.7094,
2025-03-08 20:48:11.490,9.5000,0.8300,0.8900,-1.2500,0.0000,-0.0625,-0.2136,-0.6569,0.1403,-0.7094,
2025-03-08 20:48:11.500,9.4800,0.7500,0.9600,-1.2500,0.0000,-0.0625,-0.2137,-0.6569,0.1404,-0.7093,
2025-03-08 20:48:11.500,9.4700,0.7500,0.9400,-0.2500,-0.1250,-0.0625,-0.2133,-0.6569,0.1400,-0.7095,
2025-03-08 20:48:11.530,9.4500,0.7300,0.8800,0.6250,-0.1250,0.0000,-0.2133,-0.6569,0.1400,-0.7095,
2025-03-08 20:48:11.530,9.4400,0.7200,0.8800,1.1250,-0.1875,0.0000,-0.2133,-0.6569,0.1400,-0.7095,
2025-03-08 20:48:11.572,9.4100,0.8200,0.8600,1.3750,-0.1875,0.2500,-0.2133,-0.6569,0.1399,-0.7095,
2025-03-08 20:48:11.580,9.4300,0.8200,0.8000,1.3750,-0.1875,0.2500,-0.2131,-0.6570,0.1398,-0.7095,
2025-03-08 20:48:11.580,9.4500,0.8500,0.8300,0.5625,0.1875,0.1875,-0.2131,-0.6570,0.1398,-0.7095,
2025-03-08 20:48:11.580,9.4100,0.8500,0.8300,-0.1250,0.1875,0.2500,-0.2131,-0.6570,0.1398,-0.7095,
2025-03-08 20:48:11.582,9.4000,0.8400,0.8200,-0.7500,0.5625,0.0625,-0.2131,-0.6570,0.1398,-0.7095,
2025-03-08 20:48:11.591,9.3900,0.8300,0.8900,-1.3125,0.5000,-0.0625,-0.2132,-0.6570,0.1398,-0.7095,
2025-03-08 20:48:11.591,9.4000,0.8100,0.9000,-1.3125,0.5000,-0.0625,-0.2133,-0.6570,0.1399,-0.7094,
2025-03-08 20:48:11.613,9.3900,0.8300,0.9000,-0.8750,0.1250,0.0000,-0.2139,-0.6569,0.1404,-0.7093,
2025-03-08 20:48:11.621,9.4200,0.8300,0.8900,-0.5000,-0.0625,0.0000,-0.2139,-0.6569,0.1405,-0.7092,
2025-03-08 20:48:11.632,9.4600,0.8200,0.8100,-0.1875,-0.1250,0.1250,-0.2139,-0.6569,0.1405,-0.7092,
2025-03-08 20:48:11.641,9.5000,0.8200,0.8900,-0.5000,-0.0625,0.0625,-0.2139,-0.6569,0.1405,-0.7092,
2025-03-08 20:48:11.641,9.5100,0.8300,0.8800,-0.5000,-0.0625,0.0625,-0.2139,-0.6569,0.1405,-0.7092,
2025-03-08 20:48:11.661,9.5100,0.8500,0.8800,-0.3750,0.0625,0.1250,-0.2139,-0.6569,0.1405,-0.7092,
2025-03-08 20:48:11.672,9.5100,0.8400,0.8800,-0.2500,0.1250,-0.1250,-0.2139,-0.6569,0.1405,-0.7092,
2025-03-08 20:48:11.687,9.5100,0.8700,0.8300,-0.2500,0.0000,-0.1875,-0.2139,-0.6569,0.1405,-0.7092,
2025-03-08 20:48:11.692,9.5400,0.8500,0.8600,-0.2500,-0.1875,-0.1250,-0.2139,-0.6569,0.1405,-0.7092,
2025-03-08 20:48:11.692,9.5200,0.8500,0.8800,-0.2500,-0.1875,-0.1250,-0.2140,-0.6569,0.1405,-0.7092,
2025-03-08 20:48:11.702,9.4900,0.8100,0.9000,-0.1875,-0.5625,-0.4375,-0.2140,-0.6569,0.1405,-0.7092,
2025-03-08 20:48:11.733,9.4800,0.8200,0.8600,-0.2500,-0.4375,-0.3750,-0.2140,-0.6569,0.1404,-0.7092,
2025-03-08 20:48:11.734,9.4800,0.8000,0.8700,-0.0625,-0.3125,-0.3125,-0.2140,-0.6569,0.1404,-0.7092,
2025-03-08 20:48:11.734,9.4500,0.7900,0.9000,0.1875,0.0000,-0.3125,-0.2140,-0.6569,0.1404,-0.7092,
2025-03-08 20:48:11.754,9.4600,0.7800,0.8900,0.1875,0.0000,-0.3125,-0.2140,-0.6569,0.1404,-0.7092,
2025-03-08 20:48:11.754,9.4900,0.7900,0.8400,0.4375,-0.2500,-0.0625,-0.2141,-0.6569,0.1406,-0.7091,
2025-03-08 20:48:11.773,9.5300,0.7900,0.8200,0.5000,-0.4375,0.0625,-0.2141,-0.6569,0.1406,-0.7091,
2025-03-08 20:48:11.783,9.5100,0.8400,0.8500,-0.1875,-0.5000,0.0625,-0.2140,-0.6570,0.1406,-0.7091,
2025-03-08 20:48:11.788,9.4900,0.8300,0.8800,-0.5625,-0.5625,0.0000,-0.2140,-0.6570,0.1406,-0.7091,
2025-03-08 20:48:11.814,9.4200,0.8600,0.8900,-0.5000,-0.1875,-0.4375,-0.2141,-0.6570,0.1406,-0.7091,
2025-03-08 20:48:11.814,9.3900,0.8000,0.8600,-0.3750,0.0000,-0.7500,-0.2142,-0.6570,0.1405,-0.7091,
2025-03-08 20:48:11.825,9.3900,0.7300,0.8000,-0.2500,-0.0625,-0.5625,-0.2142,-0.6570,0.1405,-0.7091,
2025-03-08 20:48:11.866,9.4400,0.7300,0.8300,0.0000,0.0000,-0.5000,-0.2141,-0.6570,0.1405,-0.7091,
2025-03-08 20:48:11.876,9.5500,0.7800,0.8500,0.3750,-0.1875,0.0000,-0.2141,-0.6570,0.1406,-0.7090,
2025-03-08 20:48:11.876,9.5300,0.8200,0.8500,0.7500,-0.1875,0.0000,-0.2141,-0.6570,0.1405,-0.7090,
2025-03-08 20:48:11.876,9.5200,0.8900,0.8000,1.1250,-0.5000,0.3125,-0.2141,-0.6570,0.1404,-0.7090,
2025-03-08 20:48:11.888,9.5100,0.9100,0.7900,1.2500,-0.3750,0.1875,-0.2139,-0.6571,0.1403,-0.7091,
2025-03-08 20:48:11.916,9.4700,0.8700,0.8300,0.6875,-0.0625,0.0000,-0.2139,-0.6572,0.1403,-0.7090,
2025-03-08 20:48:11.918,9.4300,0.8400,0.8600,0.0000,-0.1250,-0.0625,-0.2139,-0.6572,0.1403,-0.7090,
2025-03-08 20:48:11.938,9.4400,0.8000,0.8100,-0.2500,-0.0625,0.0625,-0.2139,-0.6572,0.1403,-0.7090,
2025-03-08 20:48:11.960,9.4800,0.8900,0.8200,0.3750,-0.3125,0.2500,-0.2139,-0.6572,0.1403,-0.7090,
2025-03-08 20:48:11.980,9.4700,0.8700,0.7800,0.1875,-0.7500,0.3750,-0.2139,-0.6572,0.1403,-0.7090,
2025-03-08 20:48:11.992,9.4300,0.8900,0.7900,-0.1875,-0.6875,0.3750,-0.2139,-0.6572,0.1403,-0.7090,
2025-03-08 20:48:12.001,9.4400,0.8500,0.8500,-0.6875,-0.6875,0.6250,-0.2138,-0.6573,0.1403,-0.7090,
2025-03-08 20:48:12.001,9.4500,0.8300,0.8600,-0.8750,-0.5000,0.5625,-0.2139,-0.6572,0.1404,-0.7089,
2025-03-08 20:48:12.022,9.4400,0.8100,0.8300,-0.8125,-0.3125,0.5625,-0.2139,-0.6572,0.1404,-0.7089,
2025-03-08 20:48:12.032,9.4600,0.7900,0.8600,-0.6875,-0.1875,0.7500,-0.2139,-0.6572,0.1406,-0.7089,
2025-03-08 20:48:12.042,9.4800,0.8200,0.8400,-0.4375,0.0000,0.7500,-0.2139,-0.6572,0.1406,-0.7089,
2025-03-08 20:48:12.051,9.5300,0.8000,0.8300,-0.2500,-0.3125,0.6875,-0.2138,-0.6572,0.1406,-0.7089,
2025-03-08 20:48:12.062,9.5300,0.8100,0.8000,-0.3750,-0.3125,0.5625,-0.2138,-0.6572,0.1406,-0.7089,
2025-03-08 20:48:12.062,9.5200,0.8500,0.8500,-0.6250,-0.5625,0.5000,-0.2139,-0.6572,0.1406,-0.7089,
2025-03-08 20:48:12.083,9.5000,0.8600,0.8400,-0.6875,-0.6250,0.4375,-0.2139,-0.6572,0.1407,-0.7089,
2025-03-08 20:48:12.093,9.4600,0.8600,0.8400,-0.5000,-0.6875,0.2500,-0.2139,-0.6572,0.1407,-0.7089,
2025-03-08 20:48:12.094,9.5000,0.8400,0.8400,-0.3125,-0.4375,0.1250,-0.2139,-0.6572,0.1407,-0.7089,
2025-03-08 20:48:12.116,9.4800,0.8000,0.8200,-0.4375,-0.1250,0.0000,-0.2139,-0.6572,0.1407,-0.7089,
2025-03-08 20:48:12.116,9.4700,0.8100,0.8200,-0.6250,0.1250,-0.1250,-0.2139,-0.6572,0.1407,-0.7089,
2025-03-08 20:48:12.175,9.4700,0.8300,0.7900,-0.6250,0.1250,0.0000,-0.2140,-0.6572,0.1408,-0.7088,
2025-03-08 20:48:12.175,9.4700,0.8500,0.7700,-0.5625,0.3125,0.1875,-0.2140,-0.6572,0.1408,-0.7088,
2025-03-08 20:48:12.175,9.4400,0.8800,0.7700,-0.6250,0.1250,0.1875,-0.2140,-0.6572,0.1408,-0.7088,
2025-03-08 20:48:12.185,9.4300,0.8600,0.7900,-0.5625,0.1875,0.0625,-0.2140,-0.6572,0.1408,-0.7088,
2025-03-08 20:48:12.185,9.4000,0.8700,0.8300,-0.8125,0.0625,0.1875,-0.2141,-0.6572,0.1409,-0.7088,
2025-03-08 20:48:12.185,9.4100,0.7800,0.8000,-0.9375,0.0625,-0.0625,-0.2141,-0.6572,0.1409,-0.7088,
2025-03-08 20:48:12.196,9.4400,0.7600,0.8200,-1.4375,0.1875,0.1250,-0.2142,-0.6572,0.1411,-0.7088,
2025-03-08 20:48:12.197,9.4500,0.7800,0.8000,-1.4375,0.0000,0.1875,-0.2142,-0.6571,0.1411,-0.7088,
2025-03-08 20:48:12.207,9.4900,0.7900,0.8000,-1.3125,0.0000,0.0625,-0.2144,-0.6571,0.1412,-0.7087,
2025-03-08 20:48:12.217,9.4900,0.8200,0.8100,-0.6875,0.0000,0.0000,-0.2144,-0.6571,0.1412,-0.7087,
2025-03-08 20:48:12.228,9.4900,0.8200,0.8100,-0.1250,-0.1875,0.1250,-0.2144,-0.6571,0.1412,-0.7087,
2025-03-08 20:48:12.237,9.4800,0.8400,0.8100,-0.1875,-0.2500,0.1250,-0.2144,-0.6571,0.1412,-0.7087,
2025-03-08 20:48:12.247,9.4900,0.8300,0.8200,-0.3750,0.0000,0.1250,-0.2144,-0.6571,0.1412,-0.7087,
2025-03-08 20:48:12.257,9.4600,0.8100,0.8000,-0.6875,0.0625,0.0625,-0.2144,-0.6571,0.1413,-0.7087,
2025-03-08 20:48:12.268,9.4800,0.7900,0.8600,-1.2500,0.1250,0.0000,-0.2145,-0.6570,0.1414,-0.7087,
2025-03-08 20:48:12.278,9.4500,0.7400,0.8400,-1.5625,0.1250,-0.1250,-0.2145,-0.6570,0.1414,-0.7087,
2025-03-08 20:48:12.300,9.4500,0.7100,0.8700,-1.5000,0.0000,0.0000,-0.2147,-0.6570,0.1415,-0.7087,
2025-03-08 20:48:12.300,9.4500,0.7100,0.8500,-1.1875,0.0000,0.0000,-0.2147,-0.6570,0.1416,-0.7087,
2025-03-08 20:48:12.300,9.4300,0.6900,0.8300,0.4375,-0.1875,0.1875,-0.2147,-0.6570,0.1416,-0.7087,
2025-03-08 20:48:12.317,9.4600,0.7700,0.8600,0.4375,-0.1875,0.1875,-0.2147,-0.6570,0.1416,-0.7087,
2025-03-08 20:48:12.320,9.4700,0.7600,0.8400,1.3125,-0.4375,0.3125,-0.2147,-0.6570,0.1415,-0.7087,
2025-03-08 20:48:12.330,9.4900,0.8200,0.8500,1.1250,-0.1875,0.3125,-0.2146,-0.6570,0.1415,-0.7087,
2025-03-08 20:48:12.347,9.4700,0.9000,0.8600,1.0000,-0.1250,0.0000,-0.2145,-0.6570,0.1414,-0.7087,
2025-03-08 20:48:12.360,9.4700,0.8800,0.8500,0.6250,-0.0625,-0.0625,-0.2145,-0.6570,0.1414,-0.7087,
2025-03-08 20:48:12.360,9.4700,0.8900,0.8500,0.3125,0.0625,-0.1875,-0.2145,-0.6570,0.1414,-0.7087,
2025-03-08 20:48:12.383,9.4600,0.8700,0.8300,-0.1875,0.1250,-0.3125,-0.2145,-0.6570,0.1414,-0.7087,
2025-03-08 20:48:12.400,9.4700,0.8000,0.8200,-0.2500,-0.0625,-0.3125,-0.2145,-0.6570,0.1414,-0.7087,
2025-03-08 20:48:12.400,9.4700,0.7900,0.8200,-0.1875,-0.1875,-0.1250,-0.2145,-0.6570,0.1414,-0.7087,
2025-03-08 20:48:12.400,9.4600,0.7900,0.7900,-0.1875,-0.1250,-0.2500,-0.2145,-0.6570,0.1414,-0.7087,
2025-03-08 20:48:12.431,9.4800,0.8000,0.8200,0.0000,-0.1875,0.0625,-0.2145,-0.6570,0.1414,-0.7087,
2025-03-08 20:48:12.431,9.4700,0.7900,0.7900,0.1250,-0.1875,0.0625,-0.2145,-0.6570,0.1414,-0.7087,
2025-03-08 20:48:12.473,9.4700,0.8300,0.8300,0.3750,-0.1250,0.0625,-0.2145,-0.6570,0.1414,-0.7087,
2025-03-08 20:48:12.484,9.4800,0.8200,0.8300,0.4375,-0.2500,0.1875,-0.2145,-0.6570,0.1414,-0.7087,
2025-03-08 20:48:12.484,9.4900,0.8300,0.8200,0.1875,-0.3125,0.1875,-0.2145,-0.6570,0.1414,-0.7087,
2025-03-08 20:48:12.488,9.4900,0.8600,0.8600,-0.0625,-0.2500,0.0000,-0.2145,-0.6570,0.1414,-0.7087,
2025-03-08 20:48:12.488,9.4900,0.9000,0.8300,-0.3125,-0.1875,-0.1250,-0.2145,-0.6570,0.1414,-0.7087,
2025-03-08 20:48:12.488,9.5000,0.8800,0.8100,-0.5000,-0.3750,-0.2500,-0.2145,-0.6570,0.1414,-0.7087,
2025-03-08 20:48:12.503,9.4900,0.8600,0.8100,-0.8125,0.0000,-0.4375,-0.2145,-0.6570,0.1414,-0.7087,
2025-03-08 20:48:12.504,9.4500,0.8200,0.8000,-0.6875,0.0625,-0.5625,-0.2146,-0.6570,0.1415,-0.7087,
2025-03-08 20:48:12.515,9.4400,0.8200,0.8000,-0.8125,-0.0625,-0.2500,-0.2146,-0.6570,0.1415,-0.7087,
2025-03-08 20:48:12.525,9.4600,0.8100,0.7900,-1.0000,-0.1250,-0.3125,-0.2147,-0.6570,0.1415,-0.7087,
2025-03-08 20:48:12.536,9.4800,0.8000,0.8300,-1.1875,-0.1250,-0.3750,-0.2147,-0.6570,0.1416,-0.7087,
2025-03-08 20:48:12.548,9.5000,0.7900,0.8600,-1.3125,0.0000,-0.6250,-0.2148,-0.6569,0.1417,-0.7087,
2025-03-08 20:48:12.556,9.5000,0.8000,0.8700,-1.3125,-0.1250,-0.5000,-0.2149,-0.6569,0.1418,-0.7086,
2025-03-08 20:48:12.566,9.4400,0.8000,0.8700,-0.8750,-0.3125,-0.2500,-0.2150,-0.6569,0.1418,-0.7086,
2025-03-08 20:48:12.575,9.4200,0.8000,0.8400,-0.6250,-0.1875,-0.3125,-0.2150,-0.6569,0.1418,-0.7086,
2025-03-08 20:48:12.588,9.3900,0.8200,0.8500,0.1250,0.0000,-0.3750,-0.2150,-0.6569,0.1418,-0.7086,
2025-03-08 20:48:12.596,9.4100,0.8000,0.8000,0.3750,0.0000,-0.6250,-0.2150,-0.6569,0.1418,-0.7086,
2025-03-08 20:48:12.606,9.4400,0.8200,0.8000,0.2500,0.2500,-0.8125,-0.2151,-0.6569,0.1418,-0.7086,
2025-03-08 20:48:12.616,9.4500,0.7700,0.8100,-0.1250,0.3125,-0.8125,-0.2152,-0.6569,0.1417,-0.7086,
2025-03-08 20:48:12.626,9.4900,0.7400,0.8000,-0.3750,0.3750,-0.8125,-0.2152,-0.6569,0.1417,-0.7086,
2025-03-08 20:48:12.636,9.4900,0.8400,0.7900,-0.0625,0.0625,-0.6875,-0.2152,-0.6569,0.1417,-0.7086,
2025-03-08 20:48:12.646,9.4800,0.8100,0.7700,0.3750,-0.1250,-0.5625,-0.2152,-0.6569,0.1417,-0.7086,
2025-03-08 20:48:12.656,9.4600,0.8000,0.7300,0.9375,-0.3125,-0.4375,-0.2152,-0.6570,0.1416,-0.7085,
2025-03-08 20:48:12.666,9.5000,0.7900,0.7600,1.6250,-0.8125,-0.1875,-0.2151,-0.6570,0.1415,-0.7085,
2025-03-08 20:48:12.676,9.5200,0.8300,0.7800,1.6250,-1.0625,0.0625,-0.2151,-0.6570,0.1415,-0.7085,
2025-03-08 20:48:12.689,9.5300,0.8900,0.8700,1.1250,-1.0000,-0.0625,-0.2150,-0.6571,0.1414,-0.7085,
2025-03-08 20:48:12.706,9.5200,0.9400,0.9000,0.0625,-0.6875,-0.3125,-0.2149,-0.6572,0.1414,-0.7084,
2025-03-08 20:48:12.706,9.5200,0.9100,0.9600,-0.8125,-0.1875,-0.6875,-0.2149,-0.6572,0.1414,-0.7084,
2025-03-08 20:48:12.716,9.5000,0.8600,0.9300,-1.0000,0.5625,-0.5000,-0.2150,-0.6572,0.1414,-0.7084,
2025-03-08 20:48:12.726,9.4800,0.8500,0.9000,-1.0625,1.2500,-0.1875,-0.2150,-0.6572,0.1415,-0.7084,
2025-03-08 20:48:12.766,9.4400,0.7600,0.7900,-0.5000,1.1875,0.1875,-0.2151,-0.6572,0.1415,-0.7084,
2025-03-08 20:48:12.766,9.4300,0.7400,0.7600,0.1875,1.0000,0.3750,-0.2152,-0.6571,0.1415,-0.7085,
2025-03-08 20:48:12.766,9.4100,0.7500,0.7100,0.7500,0.5625,0.6250,-0.2152,-0.6570,0.1415,-0.7086,
2025-03-08 20:48:12.766,9.4000,0.7800,0.7100,0.9375,0.1875,0.7500,-0.2151,-0.6570,0.1414,-0.7086,
2025-03-08 20:48:12.789,9.4300,0.8600,0.7200,0.7500,-0.1875,0.7500,-0.2150,-0.6570,0.1414,-0.7086,
2025-03-08 20:48:12.789,9.4200,0.8500,0.7700,0.1875,-0.5000,0.5625,-0.2148,-0.6570,0.1414,-0.7086,
2025-03-08 20:48:12.797,9.4300,0.8700,0.8100,-0.1250,-0.3125,0.5625,-0.2148,-0.6570,0.1414,-0.7086,
2025-03-08 20:48:12.817,9.4700,0.8700,0.8600,-0.5000,-0.3125,0.1875,-0.2148,-0.6570,0.1414,-0.7086,
2025-03-08 20:48:12.817,9.4700,0.8400,0.8700,-0.6875,-0.2500,0.1875,-0.2148,-0.6570,0.1414,-0.7086,
2025-03-08 20:48:12.867,9.5000,0.8400,0.8500,-0.5000,-0.5000,0.1875,-0.2149,-0.6570,0.1415,-0.7086,
2025-03-08 20:48:12.867,9.4700,0.8400,0.8500,-0.1250,-0.5000,0.3125,-0.2149,-0.6570,0.1415,-0.7086,
2025-03-08 20:48:12.867,9.4800,0.8600,0.8400,0.3125,-0.3750,0.3750,-0.2149,-0.6570,0.1415,-0.7086,
2025-03-08 20:48:12.867,9.5000,0.8700,0.8100,0.1875,-0.3750,0.1875,-0.2149,-0.6570,0.1415,-0.7086,
2025-03-08 20:48:12.867,9.5000,0.8500,0.8000,0.1250,-0.0625,0.0000,-0.2149,-0.6570,0.1415,-0.7086,
2025-03-08 20:48:12.877,9.4800,0.8200,0.8300,-0.3750,0.0000,-0.2500,-0.2149,-0.6570,0.1415,-0.7086,
2025-03-08 20:48:12.889,9.4600,0.8000,0.8500,-0.6875,-0.1250,-0.3125,-0.2149,-0.6570,0.1415,-0.7086,
2025-03-08 20:48:12.897,9.4800,0.7800,0.8800,-1.0000,0.0000,-0.4375,-0.2150,-0.6570,0.1415,-0.7086,
2025-03-08 20:48:12.910,9.4700,0.7600,0.8500,-0.5625,-0.2500,-0.3750,-0.2150,-0.6570,0.1415,-0.7086,
2025-03-08 20:48:12.918,9.4500,0.7800,0.8100,-0.3125,0.0625,-0.3125,-0.2150,-0.6570,0.1415,-0.7086,
2025-03-08 20:48:12.928,9.4600,0.8200,0.7700,0.3125,-0.2500,-0.1250,-0.2150,-0.6570,0.1415,-0.7086,
2025-03-08 20:48:12.938,9.4500,0.8300,0.7700,0.9375,-0.3750,0.1875,-0.2150,-0.6570,0.1415,-0.7086,
2025-03-08 20:48:12.948,9.4800,0.8300,0.7800,0.8125,-0.6250,0.1250,-0.2150,-0.6570,0.1415,-0.7086,
2025-03-08 20:48:12.958,9.4800,0.8700,0.7800,0.4375,-0.4375,0.1875,-0.2149,-0.6571,0.1415,-0.7086,
2025-03-08 20:48:12.968,9.4600,0.8700,0.8000,0.0000,-0.0625,0.0625,-0.2149,-0.6571,0.1415,-0.7086,
2025-03-08 20:48:12.978,9.4300,0.8800,0.8000,0.0000,0.2500,-0.1250,-0.2149,-0.6571,0.1415,-0.7086,
2025-03-08 20:48:12.989,9.4600,0.9000,0.8000,-0.1250,0.3750,-0.2500,-0.2149,-0.6571,0.1415,-0.7086,
2025-03-08 20:48:12.999,9.4800,0.8800,0.7700,-0.6875,0.1250,-0.4375,-0.2149,-0.6571,0.1415,-0.7086,
2025-03-08 20:48:13.009,9.4600,0.8400,0.7700,-1.1875,0.2500,-0.3125,-0.2150,-0.6570,0.1415,-0.7086,
2025-03-08 20:48:13.019,9.4900,0.8000,0.8100,-1.4375,0.1250,-0.2500,-0.2150,-0.6570,0.1416,-0.7085,
2025-03-08 20:48:13.030,9.4800,0.7700,0.7900,-1.2500,0.0625,-0.0625,-0.2151,-0.6570,0.1417,-0.7086,
2025-03-08 20:48:13.080,9.4800,0.7800,0.8000,-0.8750,-0.3125,0.1875,-0.2151,-0.6570,0.1417,-0.7085,
2025-03-08 20:48:13.090,9.4600,0.7900,0.8400,-0.6875,-0.3125,0.0625,-0.2152,-0.6569,0.1418,-0.7085,
2025-03-08 20:48:13.090,9.4700,0.8000,0.8300,-0.3750,-0.3750,0.2500,-0.2153,-0.6569,0.1418,-0.7085,
2025-03-08 20:48:13.090,9.4600,0.8100,0.8100,-0.2500,-0.3750,0.0625,-0.2153,-0.6569,0.1418,-0.7085,
2025-03-08 20:48:13.090,9.4700,0.8100,0.8100,0.1250,-0.3125,0.1250,-0.2153,-0.6569,0.1418,-0.7085,
2025-03-08 20:48:13.090,9.4700,0.7900,0.8300,0.3125,-0.3750,-0.1250,-0.2153,-0.6569,0.1418,-0.7085,
2025-03-08 20:48:13.100,9.4700,0.8000,0.8400,0.1250,-0.5000,0.0625,-0.2153,-0.6569,0.1418,-0.7085,
2025-03-08 20:48:13.110,9.4700,0.8000,0.8400,0.1250,-0.6250,0.1250,-0.2153,-0.6569,0.1418,-0.7085,
2025-03-08 20:48:13.120,9.5000,0.8500,0.8400,0.1875,-0.5625,0.3125,-0.2152,-0.6570,0.1418,-0.7085,
2025-03-08 20:48:13.130,9.5000,0.8500,0.8400,0.1875,-0.5000,0.1250,-0.2152,-0.6570,0.1418,-0.7085,
2025-03-08 20:48:13.141,9.5000,0.9000,0.8400,0.0625,-0.6250,0.0000,-0.2152,-0.6570,0.1418,-0.7085,
2025-03-08 20:48:13.141,9.5500,0.8700,0.8600,-0.1875,-0.6875,-0.2500,-0.2152,-0.6570,0.1418,-0.7085,
2025-03-08 20:48:13.151,9.5800,0.8900,0.8900,-0.7500,-0.4375,-0.3750,-0.2152,-0.6571,0.1419,-0.7084,
2025-03-08 20:48:13.170,9.6000,0.8700,0.8500,-1.3125,-0.1250,-0.8125,-0.2153,-0.6571,0.1419,-0.7084,
2025-03-08 20:48:13.180,9.5500,0.8100,0.8700,-1.6250,-0.0625,-0.8125,-0.2154,-0.6570,0.1420,-0.7084,
2025-03-08 20:48:13.180,9.5400,0.7900,0.8400,-1.8125,0.1875,-1.1875,-0.2155,-0.6570,0.1420,-0.7083,
2025-03-08 20:48:13.200,9.5000,0.7900,0.8300,-1.3750,0.0625,-1.5000,-0.2157,-0.6570,0.1420,-0.7083,
2025-03-08 20:48:13.200,9.4900,0.7800,0.8300,-1.3750,0.0625,-1.5000,-0.2159,-0.6570,0.1420,-0.7082,
2025-03-08 20:48:13.210,9.4600,0.7900,0.7300,-0.3750,-0.2500,-2.0625,-0.2160,-0.6570,0.1419,-0.7082,
2025-03-08 20:48:13.230,9.5000,0.8200,0.6800,1.5000,-0.1250,-2.3750,-0.2161,-0.6570,0.1417,-0.7082,
2025-03-08 20:48:13.230,9.4600,0.9200,0.6600,1.6875,0.1875,-2.5000,-0.2162,-0.6572,0.1415,-0.7081,
2025-03-08 20:48:13.251,9.4100,1.0200,0.6900,1.0000,0.2500,-3.1250,-0.2162,-0.6573,0.1412,-0.7080,
2025-03-08 20:48:13.261,9.4100,1.0200,0.7300,1.0000,0.2500,-3.1250,-0.2164,-0.6574,0.1410,-0.7079,
2025-03-08 20:48:13.262,9.3900,0.9600,0.8000,0.5625,-0.3750,-3.8125,-0.2167,-0.6575,0.1407,-0.7078,
2025-03-08 20:48:13.281,9.5200,0.9100,0.9000,5.0625,2.4375,-5.7500,-0.2169,-0.6576,0.1404,-0.7077,
2025-03-08 20:48:13.291,9.7200,1.0200,0.5900,7.7500,9.2500,-9.2500,-0.2170,-0.6577,0.1397,-0.7077,
2025-03-08 20:48:13.302,9.7500,0.9200,0.6500,3.0625,12.8750,-15.0625,-0.2172,-0.6575,0.1385,-0.7081,
2025-03-08 20:48:13.312,9.8100,1.0500,0.6600,3.0625,12.8750,-15.0625,-0.2181,-0.6569,0.1373,-0.7086,
2025-03-08 20:48:13.322,9.6000,1.8300,1.1200,-3.4375,14.4375,-20.5000,-0.2197,-0.6562,0.1361,-0.7089,
2025-03-08 20:48:13.322,9.7000,2.1100,1.2500,-8.6875,10.0000,-18.0000,-0.2215,-0.6555,0.1351,-0.7092,
2025-03-08 20:48:13.382,9.9500,2.1300,1.3000,-11.7500,9.0000,-12.3750,-0.2232,-0.6550,0.1344,-0.7093,
2025-03-08 20:48:13.382,10.1500,1.8400,1.3100,-17.8125,13.3125,-8.8750,-0.2247,-0.6543,0.1342,-0.7095,
2025-03-08 20:48:13.382,10.4000,0.9900,1.4600,-17.8125,13.3125,-8.8750,-0.2264,-0.6533,0.1346,-0.7098,
2025-03-08 20:48:13.382,10.2300,0.7600,1.5900,-22.0000,21.5000,-8.9375,-0.2283,-0.6517,0.1349,-0.7106,
2025-03-08 20:48:13.382,10.0700,0.5700,1.7300,-20.8125,35.8125,-12.8750,-0.2306,-0.6496,0.1351,-0.7117,
2025-03-08 20:48:13.392,9.9600,0.9900,1.8800,-20.5000,41.0625,-13.0625,-0.2329,-0.6472,0.1349,-0.7132,
2025-03-08 20:48:13.402,9.8800,1.2700,2.1200,-21.8750,45.8750,-11.1250,-0.2353,-0.6445,0.1346,-0.7150,
2025-03-08 20:48:13.402,9.9800,1.4100,2.2600,-21.8750,45.8750,-11.1250,-0.2377,-0.6414,0.1345,-0.7170,
2025-03-08 20:48:13.415,10.2000,1.4900,2.4500,-25.6250,52.1250,-7.9375,-0.2405,-0.6377,0.1349,-0.7192,
2025-03-08 20:48:13.434,10.7300,1.2600,2.6800,-35.1875,67.6875,-1.0625,-0.2432,-0.6335,0.1353,-0.7220,
2025-03-08 20:48:13.434,10.7300,1.0900,2.9000,-38.7500,75.2500,1.1250,-0.2459,-0.6286,0.1361,-0.7252,
2025-03-08 20:48:13.444,10.8400,0.9800,3.1100,-43.1250,83.1250,2.3750,-0.2487,-0.6232,0.1369,-0.7287,
2025-03-08 20:48:13.454,11.0900,1.0200,3.6000,-43.1250,83.1250,2.3750,-0.2518,-0.6171,0.1379,-0.7326,
2025-03-08 20:48:13.464,11.1600,1.0800,3.8700,-48.6875,91.9375,2.9375,-0.2555,-0.6103,0.1394,-0.7368,
2025-03-08 20:48:13.474,11.2600,1.1900,4.1200,-64.0625,110.3125,3.1875,-0.2593,-0.6027,0.1408,-0.7414,
2025-03-08 20:48:13.494,11.2100,1.3200,4.3600,-64.0625,110.3125,3.1875,-0.2637,-0.5943,0.1426,-0.7463,
2025-03-08 20:48:13.500,10.9200,1.7200,4.7900,-72.5625,120.5000,4.0625,-0.2686,-0.5850,0.1447,-0.7515,
2025-03-08 20:48:13.505,10.9700,1.7100,4.9400,-82.0625,130.8750,4.8125,-0.2739,-0.5748,0.1472,-0.7570,
2025-03-08 20:48:13.525,10.8500,1.4900,5.2000,-92.8125,141.2500,3.8750,-0.2803,-0.5634,0.1504,-0.7625,
2025-03-08 20:48:13.530,10.7300,1.0100,5.5800,-103.2500,150.6875,2.6875,-0.2870,-0.5511,0.1536,-0.7683,
2025-03-08 20:48:13.536,10.7900,0.6800,5.7600,-111.6250,158.5000,3.5625,-0.2940,-0.5380,0.1571,-0.7743,
2025-03-08 20:48:13.546,10.8000,0.5400,5.8800,-117.1875,164.4375,5.3125,-0.3011,-0.5242,0.1609,-0.7802,
2025-03-08 20:48:13.566,10.5600,0.5600,6.3300,-121.8125,175.8125,9.2500,-0.3152,-0.4946,0.1687,-0.7922,
2025-03-08 20:48:13.578,10.5200,0.4700,6.4500,-122.8125,181.0625,10.3125,-0.3221,-0.4791,0.1725,-0.7981,
2025-03-08 20:48:13.587,10.3000,0.3700,6.5500,-126.1875,186.5000,12.4375,-0.3291,-0.4628,0.1764,-0.8040,
2025-03-08 20:48:13.609,10.3300,-0.2500,6.9000,-138.1250,197.5625,24.1875,-0.3423,-0.4278,0.1853,-0.8158,
2025-03-08 20:48:13.617,10.2900,-0.6700,6.9600,-148.3125,202.3750,30.8125,-0.3486,-0.4090,0.1907,-0.8215,
2025-03-08 20:48:13.629,9.9900,-1.0800,7.2000,-155.2500,208.3750,33.4375,-0.3550,-0.3893,0.1965,-0.8269,
2025-03-08 20:48:13.668,8.6000,-2.2700,7.5700,-149.9375,218.0000,37.4375,-0.3669,-0.3483,0.2072,-0.8373,
2025-03-08 20:48:13.692,7.6800,-2.9000,7.6700,-116.8750,224.7500,51.1875,-0.3751,-0.3069,0.2137,-0.8482,
2025-03-08 20:48:13.692,7.7800,-3.1000,7.5700,-90.9375,223.5625,63.7500,-0.3769,-0.2867,0.2148,-0.8542,
2025-03-08 20:48:13.699,8.0200,-2.2500,7.5800,-37.9375,218.3125,78.2500,-0.3760,-0.2488,0.2117,-0.8671,
2025-03-08 20:48:13.720,8.0700,-1.6900,7.5900,-18.1250,217.5000,78.8125,-0.3745,-0.2309,0.2077,-0.8737,
2025-03-08 20:48:13.720,7.6500,-1.4800,7.4200,-4.7500,218.6250,79.0000,-0.3725,-0.2132,0.2026,-0.8802,
2025-03-08 20:48:13.730,7.1200,-1.3300,7.2500,-0.7500,219.0000,78.0625,-0.3704,-0.1955,0.1972,-0.8864,
2025-03-08 20:48:13.751,6.7500,-1.0800,7.0300,-0.1250,218.8125,76.0000,-0.3682,-0.1778,0.1915,-0.8922,
2025-03-08 20:48:13.751,5.8000,-0.5600,6.7700,-0.2500,216.7500,71.5000,-0.3640,-0.1426,0.1801,-0.9026,
2025-03-08 20:48:13.770,5.6300,-0.6100,6.8200,-3.7500,214.7500,66.3125,-0.3622,-0.1251,0.1746,-0.9070,
2025-03-08 20:48:13.770,4.7400,-0.9000,7.0600,-8.6875,212.5000,59.8125,-0.3608,-0.1076,0.1693,-0.9108,
2025-03-08 20:48:13.792,4.3400,-1.5900,7.0100,-17.1875,210.1875,54.0000,-0.3598,-0.0902,0.1647,-0.9140,
2025-03-08 20:48:13.800,3.8100,-2.3000,6.8200,-24.1250,208.3125,50.3750,-0.3589,-0.0726,0.1606,-0.9166,
2025-03-08 20:48:13.800,3.2500,-2.9300,6.7400,-25.4375,207.0625,49.3125,-0.3580,-0.0551,0.1566,-0.9189,
2025-03-08 20:48:13.820,2.0700,-3.3000,6.6500,-18.0000,201.4375,51.6250,-0.3566,-0.0383,0.1521,-0.9210,
2025-03-08 20:48:13.830,1.9200,-2.7800,6.5600,-3.5000,190.8125,56.7500,-0.3546,-0.0226,0.1468,-0.9231,
2025-03-08 20:48:13.830,1.9200,-2.0500,6.3500,10.3125,178.8750,62.5625,-0.3519,-0.0081,0.1407,-0.9254,
2025-03-08 20:48:13.850,1.9300,-0.7400,6.1200,17.4375,169.3750,64.5000,-0.3488,0.0054,0.1343,-0.9275,
2025-03-08 20:48:13.860,1.5300,-0.3300,6.2900,12.5000,163.5000,62.0625,-0.3458,0.0185,0.1285,-0.9293,
2025-03-08 20:48:13.860,0.9800,-0.4000,6.3100,-2.7500,160.0000,55.6250,-0.3433,0.0317,0.1239,-0.9305,
2025-03-08 20:48:13.870,0.5600,-0.9000,6.2200,-20.5000,156.0625,50.0625,-0.3409,0.0452,0.1208,-0.9312,
2025-03-08 20:48:13.890,-0.4700,-2.0900,5.9900,-34.2500,150.9375,45.6875,-0.3387,0.0585,0.1190,-0.9315,
2025-03-08 20:48:13.892,-0.7200,-2.1200,6.1200,-43.6250,141.5000,43.1250,-0.3364,0.0713,0.1182,-0.9315,
2025-03-08 20:48:13.908,-0.6900,-2.2400,6.4600,-48.6875,130.6875,43.8750,-0.3340,0.0834,0.1180,-0.9314,
2025-03-08 20:48:13.921,-0.7600,-1.9300,6.9100,-50.2500,122.5000,44.3750,-0.3321,0.0950,0.1182,-0.9310,
2025-03-08 20:48:13.921,-0.8900,-2.0700,7.0300,-50.0000,116.8750,43.8750,-0.3294,0.1060,0.1184,-0.9307,
2025-03-08 20:48:13.971,-1.2300,-2.3500,7.0900,-49.5000,113.5625,43.9375,-0.3266,0.1168,0.1188,-0.9304,
2025-03-08 20:48:13.981,-1.4200,-2.7500,6.8400,-49.3125,107.5000,44.8125,-0.3237,0.1270,0.1192,-0.9300,
2025-03-08 20:48:13.981,-1.7300,-2.6400,6.8400,-45.8125,97.5625,47.7500,-0.3204,0.1364,0.1196,-0.9298,
2025-03-08 20:48:13.981,-1.6900,-2.3300,6.8100,-41.8750,85.0000,50.1250,-0.3187,0.1450,0.1198,-0.9290,
2025-03-08 20:48:13.981,-1.6900,-2.0400,6.9400,-40.3750,76.1250,50.3750,-0.3150,0.1525,0.1202,-0.9290,
2025-03-08 20:48:13.981,-1.8500,-2.1600,7.1300,-38.8125,75.1250,47.4375,-0.3115,0.1599,0.1207,-0.9289,
2025-03-08 20:48:14.001,-2.4600,-3.1600,6.6900,-35.7500,78.3125,42.3750,-0.3085,0.1674,0.1209,-0.9285,
2025-03-08 20:48:14.011,-2.7900,-3.4000,6.4500,-29.0625,77.1875,40.7500,-0.3057,0.1746,0.1205,-0.9282,
2025-03-08 20:48:14.021,-3.0900,-3.1400,6.3400,-18.3750,69.1875,41.8125,-0.3051,0.1813,0.1191,-0.9273,
2025-03-08 20:48:14.021,-2.8400,-2.1200,6.2000,-10.3750,56.8125,44.6875,-0.3020,0.1864,0.1178,-0.9275,
2025-03-08 20:48:14.051,-2.8200,-1.9200,6.2700,-9.3125,48.4375,46.0000,-0.2987,0.1909,0.1166,-0.9278,
2025-03-08 20:48:14.051,-2.9500,-2.0800,6.2500,-12.1875,46.4375,43.5625,-0.2955,0.1953,0.1157,-0.9280,
2025-03-08 20:48:14.061,-3.3000,-2.4300,6.0600,-17.6250,45.8750,39.5625,-0.2926,0.1997,0.1152,-0.9280,
2025-03-08 20:48:14.081,-3.6800,-2.7100,5.8700,-20.0000,43.3750,36.5000,-0.2900,0.2040,0.1151,-0.9279,
2025-03-08 20:48:14.081,-3.6900,-2.9200,5.9400,-20.5625,38.0000,32.7500,-0.2874,0.2078,0.1152,-0.9279,
2025-03-08 20:48:14.081,-3.7400,-2.8600,6.1700,-20.5000,31.3750,30.6250,-0.2850,0.2111,0.1155,-0.9279,
2025-03-08 20:48:14.101,-3.6300,-2.4200,6.5500,-19.6875,24.5625,29.6875,-0.2825,0.2137,0.1159,-0.9279,
2025-03-08 20:48:14.101,-3.6600,-2.2800,6.5800,-19.8125,18.6250,29.5625,-0.2800,0.2159,0.1165,-0.9281,
2025-03-08 20:48:14.111,-3.7600,-2.4100,6.5300,-21.8125,14.7500,28.4375,-0.2785,0.2180,0.1171,-0.9280,
2025-03-08 20:48:14.121,-3.8400,-2.8300,6.3500,-23.4375,12.1250,26.5625,-0.2761,0.2198,0.1182,-0.9282,
2025-03-08 20:48:14.141,-4.1300,-3.4400,6.3700,-22.8125,12.0000,22.8125,-0.2741,0.2215,0.1193,-0.9282,
2025-03-08 20:48:14.141,-4.0800,-3.2900,6.4400,-18.2500,11.1875,17.8750,-0.2724,0.2230,0.1201,-0.9282,
2025-03-08 20:48:14.161,-4.1500,-3.1200,6.5800,-11.3750,5.3750,14.7500,-0.2711,0.2238,0.1206,-0.9284,
2025-03-08 20:48:14.161,-3.6500,-2.6000,6.0600,-4.4375,-2.5625,13.7500,-0.2701,0.2239,0.1207,-0.9286,
2025-03-08 20:48:14.171,-4.0900,-2.5300,6.2600,1.1250,-8.6875,14.0625,-0.2689,0.2233,0.1205,-0.9291,
2025-03-08 20:48:14.182,-4.0300,-2.3100,6.5100,1.1250,-9.4375,10.8750,-0.2680,0.2227,0.1205,-0.9296,
2025-03-08 20:48:14.192,-3.8800,-2.4100,6.8700,-3.6875,-13.3125,6.3125,-0.2673,0.2218,0.1209,-0.9299,
2025-03-08 20:48:14.203,-3.6900,-3.1000,6.8400,-5.8125,-15.0000,1.6875,-0.2668,0.2208,0.1217,-0.9302,
2025-03-08 20:48:14.212,-3.6100,-3.3400,6.5500,5.0000,-13.7500,-4.6875,-0.2679,0.2196,0.1216,-0.9302,
2025-03-08 20:48:14.226,-3.6900,-3.2600,6.3500,5.0000,-13.7500,-4.6875,-0.2682,0.2183,0.1216,-0.9304,
2025-03-08 20:48:14.263,-3.9200,-2.5400,6.5500,14.6250,-17.0000,-4.9375,-0.2687,0.2166,0.1209,-0.9307,
2025-03-08 20:48:14.283,-3.4600,-2.0800,6.5600,17.9375,-26.5000,-3.6875,-0.2690,0.2141,0.1201,-0.9313,
2025-03-08 20:48:14.283,-3.2800,-2.0200,6.4700,10.7500,-43.6250,-6.2500,-0.2693,0.2103,0.1204,-0.9321,
2025-03-08 20:48:14.283,-3.7100,-2.1700,6.7200,6.4375,-45.1250,-13.3750,-0.2700,0.2065,0.1212,-0.9326,
2025-03-08 20:48:14.283,-3.6500,-2.5500,6.7800,3.7500,-47.1875,-18.3125,-0.2700,0.2065,0.1212,-0.9326,
2025-03-08 20:48:14.283,-3.6100,-2.9700,6.6000,3.7500,-46.6875,-19.1875,-0.2721,0.1985,0.1233,-0.9335,
2025-03-08 20:48:14.293,-3.6900,-3.3600,6.3400,8.5625,-48.3750,-18.4375,-0.2732,0.1943,0.1241,-0.9339,
2025-03-08 20:48:14.306,-3.6600,-3.4000,6.0500,16.1250,-55.0625,-15.8125,-0.2741,0.1895,0.1243,-0.9346,
2025-03-08 20:48:14.316,-3.4000,-2.9200,6.7600,14.9375,-67.1875,-14.5000,-0.2741,0.1895,0.1243,-0.9346,
2025-03-08 20:48:14.325,-1.9900,-2.8900,6.6500,7.7500,-80.0625,-15.6875,-0.2753,0.1769,0.1265,-0.9364,
2025-03-08 20:48:14.343,-1.8600,-2.8400,6.7100,7.6250,-86.2500,-17.5000,-0.2759,0.1697,0.1281,-0.9374,
2025-03-08 20:48:14.345,-2.6200,-2.1200,6.6300,6.8125,-90.1875,-21.1250,-0.2767,0.1622,0.1299,-0.9382,
2025-03-08 20:48:14.356,-2.6900,-1.6900,6.8700,1.9375,-91.3125,-27.5000,-0.2779,0.1546,0.1323,-0.9388,
2025-03-08 20:48:14.365,-2.6500,-1.7000,7.0400,-5.6250,-87.5000,-33.5625,-0.2795,0.1475,0.1353,-0.9391,
2025-03-08 20:48:14.376,-2.6500,-2.4300,6.9700,-10.1250,-82.3750,-34.3750,-0.2795,0.1475,0.1353,-0.9391,
2025-03-08 20:48:14.385,-2.4300,-3.7800,6.5600,-5.8750,-82.3750,-30.8125,-0.2826,0.1340,0.1412,-0.9393,
2025-03-08 20:48:14.396,-2.3400,-3.7700,6.8100,4.6250,-90.6250,-25.8125,-0.2836,0.1263,0.1433,-0.9397,
2025-03-08 20:48:14.408,-1.6900,-3.5500,7.1200,11.1875,-105.1250,-22.6250,-0.2836,0.1263,0.1433,-0.9397,
2025-03-08 20:48:14.422,-0.0200,-3.4800,7.0800,14.4375,-112.8750,-25.3125,-0.2842,0.1175,0.1451,-0.9404,
2025-03-08 20:48:14.427,-0.0700,-2.8100,7.1200,19.3750,-120.0000,-29.8750,-0.2850,0.1078,0.1470,-0.9410,
2025-03-08 20:48:14.438,-0.5900,-2.0400,7.1900,19.6875,-126.8750,-32.0625,-0.2860,0.0975,0.1486,-0.9416,
2025-03-08 20:48:14.447,-0.8400,-1.4900,7.3500,11.0000,-131.5000,-38.1875,-0.2871,0.0865,0.1503,-0.9421,
2025-03-08 20:48:14.457,-0.5500,-1.6600,7.2400,0.8125,-130.8125,-45.2500,-0.2886,0.0753,0.1529,-0.9422,
2025-03-08 20:48:14.467,-0.4500,-2.1600,7.0700,-5.0625,-131.0625,-45.7500,-0.2905,0.0643,0.1563,-0.9418,
2025-03-08 20:48:14.480,-0.3600,-2.4700,7.1600,-7.6875,-139.0625,-41.5000,-0.2924,0.0533,0.1602,-0.9413,
2025-03-08 20:48:14.488,1.7800,-3.1600,6.0800,-12.8750,-150.9375,-39.0000,-0.2938,0.0419,0.1644,-0.9407,
2025-03-08 20:48:14.497,2.7500,-3.4300,6.1200,-13.3750,-148.9375,-42.1250,-0.2947,0.0297,0.1693,-0.9400,
2025-03-08 20:48:14.507,2.8800,-3.2600,6.6000,-8.4375,-148.0000,-45.0625,-0.2958,0.0176,0.1741,-0.9391,
2025-03-08 20:48:14.518,2.8800,-3.2600,6.6000,-6.8125,-152.1875,-45.8125,-0.2972,0.0054,0.1786,-0.9380,
2025-03-08 20:48:14.528,2.2300,-2.5300,6.9300,-16.9375,-157.6250,-51.5000,-0.2984,-0.0072,0.1829,-0.9367,
2025-03-08 20:48:14.568,1.8900,-1.1900,7.2300,-31.8125,-158.7500,-62.2500,-0.3001,-0.0200,0.1882,-0.9350,
2025-03-08 20:48:14.568,2.0400,-1.5000,7.0500,-42.0625,-158.7500,-69.3125,-0.3024,-0.0328,0.1946,-0.9325,
2025-03-08 20:48:14.568,2.5000,-1.9300,7.1900,-49.8125,-164.6250,-72.1250,-0.3054,-0.0453,0.2018,-0.9295,
2025-03-08 20:48:14.568,2.5000,-1.9300,7.1900,-56.3125,-175.0625,-73.7500,-0.3084,-0.0582,0.2097,-0.9260,
2025-03-08 20:48:14.579,3.5300,-2.5500,6.5800,-53.6875,-173.6250,-75.4375,-0.3113,-0.0717,0.2182,-0.9221,
2025-03-08 20:48:14.589,5.7300,-3.8900,5.7200,-43.1875,-169.1250,-77.0000,-0.3143,-0.0852,0.2264,-0.9180,
2025-03-08 20:48:14.599,5.1900,-3.9900,7.1800,-31.9375,-177.4375,-79.2500,-0.3173,-0.0986,0.2337,-0.9138,
2025-03-08 20:48:14.609,4.8500,-3.4700,7.4100,-26.8125,-190.3750,-83.4375,-0.3201,-0.1130,0.2402,-0.9094,
2025-03-08 20:48:14.609,4.8500,-3.4700,7.4100,-25.3125,-198.5000,-89.9375,-0.3229,-0.1286,0.2466,-0.9046,
2025-03-08 20:48:14.619,4.8500,-2.9700,7.2800,-25.7500,-204.6250,-94.5000,-0.3258,-0.1449,0.2529,-0.8994,
2025-03-08 20:48:14.640,6.5000,-2.2500,6.8400,-30.5000,-213.5625,-95.3750,-0.3289,-0.1617,0.2593,-0.8936,
2025-03-08 20:48:14.650,8.1800,-3.0500,5.0700,-37.9375,-212.6875,-95.3750,-0.3317,-0.1791,0.2662,-0.8871,
2025-03-08 20:48:14.650,8.4700,-3.9400,4.7700,-38.6250,-193.8125,-97.1875,-0.3346,-0.1961,0.2735,-0.8802,
2025-03-08 20:48:14.671,8.4700,-3.9400,4.7700,-26.3750,-186.1250,-97.1875,-0.3379,-0.2116,0.2802,-0.8732,
2025-03-08 20:48:14.671,7.1200,-4.9400,6.5600,-8.2500,-188.3125,-99.7500,-0.3411,-0.2268,0.2857,-0.8663,
2025-03-08 20:48:14.716,6.5400,-4.2600,7.4400,7.6250,-192.2500,-102.4375,-0.3440,-0.2427,0.2898,-0.8595,
2025-03-08 20:48:14.716,7.0800,-4.2000,7.2900,23.0000,-195.5625,-95.9375,-0.3465,-0.2594,0.2927,-0.8526,
2025-03-08 20:48:14.716,7.7900,-3.2000,7.7300,32.4375,-196.4375,-81.8750,-0.3480,-0.2765,0.2946,-0.8460,
2025-03-08 20:48:14.716,7.7900,-3.2000,7.7300,39.0000,-194.1250,-69.6250,-0.3482,-0.2934,0.2961,-0.8396,
2025-03-08 20:48:14.723,9.0000,-2.7100,6.9000,39.0000,-194.1250,-69.6250,-0.3472,-0.3101,0.2972,-0.8336,
2025-03-08 20:48:14.742,8.7200,-3.3000,5.4300,60.4375,-163.1875,-65.0000,-0.3461,-0.3257,0.2974,-0.8281,
2025-03-08 20:48:14.754,8.2000,-2.7900,5.9500,77.4375,-161.8750,-60.2500,-0.3448,-0.3405,0.2961,-0.8231,
2025-03-08 20:48:14.763,8.5200,-2.2400,6.2600,97.3750,-171.5000,-55.6250,-0.3427,-0.3555,0.2937,-0.8185,
2025-03-08 20:48:14.763,8.5200,-2.2400,6.2600,97.3750,-171.5000,-55.6250,-0.3393,-0.3715,0.2902,-0.8140,
2025-03-08 20:48:14.774,9.0300,-2.1800,6.3200,108.2500,-176.9375,-57.4375,-0.3354,-0.3882,0.2860,-0.8093,
2025-03-08 20:48:14.794,9.2600,-1.9600,6.6000,106.2500,-173.5000,-56.7500,-0.3314,-0.4047,0.2817,-0.8044,
2025-03-08 20:48:14.795,10.3800,-1.4700,6.2800,107.4375,-175.5625,-54.4375,-0.3275,-0.4208,0.2773,-0.7993,
2025-03-08 20:48:14.814,13.6000,-0.8100,4.7100,116.6250,-178.8750,-42.1250,-0.3232,-0.4368,0.2730,-0.7939,
2025-03-08 20:48:14.814,13.6000,-0.8100,4.7100,116.6250,-178.8750,-42.1250,-0.3175,-0.4529,0.2684,-0.7887,
2025-03-08 20:48:14.827,13.7500,-0.9500,4.2900,128.1875,-178.6250,-33.8750,-0.3107,-0.4689,0.2633,-0.7838,
2025-03-08 20:48:14.868,11.1000,-1.3000,4.2100,142.9375,-164.0000,-36.0625,-0.3036,-0.4846,0.2574,-0.7790,
2025-03-08 20:48:14.876,11.1000,-1.3000,4.2100,137.4375,-162.4375,-37.5000,-0.2965,-0.4997,0.2507,-0.7743,
2025-03-08 20:48:14.876,9.9200,-1.3700,4.2700,119.9375,-162.3750,-33.6250,-0.2897,-0.5145,0.2441,-0.7693,
2025-03-08 20:48:14.876,9.6700,-1.3400,4.0500,119.9375,-162.3750,-33.6250,-0.2832,-0.5286,0.2388,-0.7637,
2025-03-08 20:48:14.876,9.2100,-1.2900,4.0800,101.1875,-156.5625,-25.5000,-0.2767,-0.5417,0.2345,-0.7583,
2025-03-08 20:48:14.887,8.9400,-0.9400,4.6700,96.6875,-145.0000,-15.0625,-0.2706,-0.5537,0.2312,-0.7528,
2025-03-08 20:48:14.896,9.8400,-0.7900,4.5200,108.5000,-144.3125,-12.6875,-0.2642,-0.5654,0.2277,-0.7475,
2025-03-08 20:48:14.906,11.5000,-0.7700,3.9100,121.3750,-137.9375,-11.0625,-0.2570,-0.5771,0.2234,-0.7423,
2025-03-08 20:48:14.916,12.9900,-0.8700,2.8800,121.3750,-137.9375,-11.0625,-0.2492,-0.5885,0.2182,-0.7375,
2025-03-08 20:48:14.927,12.2200,-0.3700,2.0900,124.6250,-121.6875,-13.8750,-0.2412,-0.5990,0.2120,-0.7335,
2025-03-08 20:48:14.938,11.2000,0.5600,2.1400,120.8125,-95.0000,-12.7500,-0.2341,-0.6083,0.2058,-0.7300,
2025-03-08 20:48:14.947,10.9100,1.3600,2.1500,116.3125,-89.3750,-11.6250,-0.2270,-0.6167,0.1995,-0.7269,
2025-03-08 20:48:14.957,10.3100,1.8900,2.5100,100.7500,-86.8750,-12.3750,-0.2202,-0.6245,0.1935,-0.7239,
2025-03-08 20:48:14.977,9.8900,1.7200,2.5100,100.7500,-86.8750,-12.3750,-0.2141,-0.6319,0.1883,-0.7207,
2025-03-08 20:48:14.977,9.5600,1.5000,2.3100,73.8750,-83.8125,-14.5625,-0.2087,-0.6388,0.1837,-0.7174,
2025-03-08 20:48:14.993,9.4400,1.2300,1.8300,27.2500,-65.9375,-14.8125,-0.2059,-0.6445,0.1813,-0.7137,
2025-03-08 20:48:15.007,9.0500,0.7400,0.9300,13.3125,-54.7500,-12.1875,-0.2043,-0.6492,0.1800,-0.7102,
2025-03-08 20:48:15.007,8.9000,0.4500,0.8100,2.5625,-47.0625,-8.6250,-0.2035,-0.6529,0.1794,-0.7072,
2025-03-08 20:48:15.017,9.0200,0.0300,0.7900,2.5625,-47.0625,-8.6250,-0.2032,-0.6558,0.1796,-0.7045,
2025-03-08 20:48:15.030,9.8200,-0.8600,0.9900,-4.1250,-40.6875,-5.0625,-0.2031,-0.6583,0.1803,-0.7021,
2025-03-08 20:48:15.037,10.1300,-0.9300,1.0300,-1.4375,-25.6250,2.8750,-0.2028,-0.6601,0.1811,-0.7002,
2025-03-08 20:48:15.047,10.4200,-0.9000,0.9700,5.0625,-19.8125,4.6250,-0.2023,-0.6616,0.1818,-0.6988,
2025-03-08 20:48:15.057,10.5800,-0.4800,0.8200,10.0000,-16.5000,4.8125,-0.2015,-0.6628,0.1821,-0.6978,
2025-03-08 20:48:15.067,10.2000,0.7500,0.2000,10.0000,-16.5000,4.8125,-0.2004,-0.6639,0.1821,-0.6971,
2025-03-08 20:48:15.077,9.9500,1.1900,-0.0900,10.4375,-15.3125,3.4375,-0.1990,-0.6650,0.1816,-0.6966,
2025-03-08 20:48:15.087,9.7000,1.4300,-0.4400,6.3750,-18.2500,-3.0625,-0.1982,-0.6661,0.1813,-0.6958,
2025-03-08 20:48:15.097,9.5700,1.4100,-0.6000,1.9375,-18.5000,-3.6875,-0.1977,-0.6673,0.1811,-0.6948,
2025-03-08 20:48:15.107,9.8000,1.0000,0.0700,-8.3125,-15.7500,-1.3750,-0.1976,-0.6685,0.1811,-0.6937,
2025-03-08 20:48:15.117,10.0400,0.7100,0.5600,-8.3125,-15.7500,-1.3750,-0.1979,-0.6693,0.1818,-0.6927,
2025-03-08 20:48:15.127,10.0700,0.4900,0.8100,-18.8750,-9.5625,-0.7500,-0.1989,-0.6696,0.1830,-0.6918,
2025-03-08 20:48:15.167,9.8300,-0.0300,0.3300,-16.6250,-2.2500,-3.8750,-0.2001,-0.6695,0.1841,-0.6912,
2025-03-08 20:48:15.167,9.6300,-0.2300,0.0300,-10.1875,-3.1875,-4.0625,-0.2013,-0.6694,0.1849,-0.6908,
2025-03-08 20:48:15.167,9.5000,-0.2700,-0.1700,-6.8125,-4.2500,-2.8750,-0.2020,-0.6695,0.1854,-0.6904,
2025-03-08 20:48:15.167,9.4000,-0.2300,-0.1000,-6.8125,-4.2500,-2.8750,-0.2025,-0.6697,0.1857,-0.6900,
2025-03-08 20:48:15.177,9.4000,-0.2000,0.3200,-5.5000,-3.3750,-0.3125,-0.2029,-0.6697,0.1861,-0.6897,
2025-03-08 20:48:15.187,9.4600,-0.2000,0.5400,-5.5625,4.0000,6.2500,-0.2030,-0.6696,0.1866,-0.6896,
2025-03-08 20:48:15.198,9.5600,-0.2100,0.6000,-5.5625,4.0000,6.2500,-0.2030,-0.6692,0.1872,-0.6899,
2025-03-08 20:48:15.208,9.6100,-0.1100,0.5000,-3.9375,7.8125,7.7500,-0.2029,-0.6685,0.1877,-0.6904,
2025-03-08 20:48:15.218,9.5800,-0.0300,0.1500,-2.0625,10.1875,7.0000,-0.2028,-0.6678,0.1881,-0.6911,
2025-03-08 20:48:15.228,9.6200,0.0600,-0.1200,-0.3125,12.3750,5.1875,-0.2026,-0.6670,0.1881,-0.6919,
2025-03-08 20:48:15.238,9.6800,0.0300,-0.2000,2.6875,17.0000,2.8125,-0.2025,-0.6660,0.1878,-0.6929,
2025-03-08 20:48:15.248,9.8400,0.6700,0.0900,3.4375,21.9375,0.7500,-0.2026,-0.6647,0.1873,-0.6943,
2025-03-08 20:48:15.258,9.9400,0.7300,0.5400,-1.8750,26.1875,1.4375,-0.2031,-0.6631,0.1870,-0.6957,
2025-03-08 20:48:15.278,10.1500,0.1100,1.2400,-11.6875,33.9375,4.1250,-0.2047,-0.6589,0.1875,-0.6991,
2025-03-08 20:48:15.293,10.3800,-0.0200,1.1700,-14.0625,38.0000,3.7500,-0.2059,-0.6564,0.1879,-0.7011,
2025-03-08 20:48:15.298,10.5600,-0.0100,1.1400,-18.5000,45.4375,1.6250,-0.2075,-0.6533,0.1882,-0.7033,
2025-03-08 20:48:15.310,10.6700,0.0800,1.1700,-23.5000,54.4375,-1.3125,-0.2098,-0.6497,0.1886,-0.7059,
2025-03-08 20:48:15.339,10.9300,0.9500,2.4300,-31.1875,71.9375,3.4375,-0.2152,-0.6404,0.1900,-0.7123,
2025-03-08 20:48:15.341,11.4500,1.0400,2.8300,-33.3125,81.9375,9.4375,-0.2178,-0.6347,0.1910,-0.7164,
2025-03-08 20:48:15.370,11.8500,0.9100,3.1000,-39.2500,94.5000,13.0000,-0.2206,-0.6280,0.1923,-0.7210,
2025-03-08 20:48:15.370,12.2500,0.6100,4.0200,-71.4375,123.3125,16.4375,-0.2290,-0.6109,0.1972,-0.7318,
2025-03-08 20:48:15.370,11.9900,0.6500,4.2400,-86.1250,137.1875,20.5000,-0.2346,-0.6003,0.2010,-0.7377,
2025-03-08 20:48:15.390,12.0300,0.5800,4.4500,-94.8750,149.9375,24.9375,-0.2404,-0.5886,0.2052,-0.7441,
2025-03-08 20:48:15.400,11.9700,0.3600,4.6400,-103.4375,160.3125,26.6875,-0.2466,-0.5759,0.2098,-0.7507,
2025-03-08 20:48:15.421,11.6600,-0.0600,5.2000,-126.6875,180.5625,25.9375,-0.2611,-0.5474,0.2202,-0.7640,
2025-03-08 20:48:15.421,11.5600,-0.8200,5.4100,-138.5625,192.2500,24.8750,-0.2693,-0.5314,0.2260,-0.7707,
2025-03-08 20:48:15.481,11.3000,-1.1300,5.5400,-147.6875,203.3125,24.8750,-0.2782,-0.5142,0.2320,-0.7775,
2025-03-08 20:48:15.481,11.0200,-1.4700,5.6100,-152.6250,214.3125,28.6250,-0.2871,-0.4958,0.2382,-0.7843,
2025-03-08 20:48:15.481,10.6700,-2.0700,6.2400,-155.1875,224.1250,33.6875,-0.2958,-0.4764,0.2444,-0.7911,
2025-03-08 20:48:15.481,10.4000,-2.2400,6.6300,-157.8125,231.6875,37.6250,-0.3043,-0.4561,0.2505,-0.7979,
2025-03-08 20:48:15.481,10.1400,-2.2700,6.8700,-161.1250,236.8750,42.2500,-0.3126,-0.4349,0.2569,-0.8044,
2025-03-08 20:48:15.491,9.9800,-2.2800,7.0100,-163.3750,240.8125,49.8125,-0.3203,-0.4130,0.2634,-0.8108,
2025-03-08 20:48:15.512,9.9100,-2.7100,7.0600,-160.6250,243.3125,58.5000,-0.3272,-0.3906,0.2698,-0.8171,
2025-03-08 20:48:15.512,9.5900,-2.8500,7.0600,-152.7500,247.0625,64.6250,-0.3333,-0.3677,0.2755,-0.8233,
2025-03-08 20:48:15.522,9.4000,-3.2700,7.1100,-145.2500,249.1875,68.7500,-0.3387,-0.3446,0.2806,-0.8293,
2025-03-08 20:48:15.532,9.4400,-3.8000,7.0200,-132.8125,249.2500,73.7500,-0.3433,-0.3215,0.2849,-0.8352,
2025-03-08 20:48:15.532,9.0000,-3.8800,7.2300,-116.7500,249.4375,83.8750,-0.3464,-0.2984,0.2881,-0.8414,
2025-03-08 20:48:15.543,8.4000,-3.6400,7.3400,-96.3750,249.5000,94.0000,-0.3481,-0.2755,0.2899,-0.8478,
2025-03-08 20:48:15.563,8.4000,-4.2200,7.3900,-75.6875,247.6875,98.6875,-0.3488,-0.2530,0.2903,-0.8544,
2025-03-08 20:48:15.572,7.2400,-4.6900,7.6000,-51.1875,247.5000,95.1250,-0.3490,-0.2313,0.2886,-0.8610,
2025-03-08 20:48:15.573,6.8600,-4.9100,7.6500,-24.2500,246.6875,90.2500,-0.3488,-0.2104,0.2848,-0.8677,
2025-03-08 20:48:15.594,6.6200,-4.8300,7.7300,6.5625,247.1250,98.3750,-0.3474,-0.1900,0.2788,-0.8750,
2025-03-08 20:48:15.594,7.5000,-3.9700,7.1000,37.5625,249.7500,111.5625,-0.3443,-0.1700,0.2704,-0.8829,
2025-03-08 20:48:15.605,7.7000,-3.2500,6.7700,66.3125,253.0625,120.4375,-0.3400,-0.1503,0.2597,-0.8913,
2025-03-08 20:48:15.614,7.4500,-2.4100,6.5200,85.3125,254.3750,116.6250,-0.3356,-0.1310,0.2474,-0.8994,
2025-03-08 20:48:15.627,6.9000,-1.9500,6.2200,91.8750,252.6875,106.9375,-0.3317,-0.1121,0.2344,-0.9069,
2025-03-08 20:48:15.636,5.8100,-2.1200,5.9000,90.1250,248.7500,99.3750,-0.3281,-0.0936,0.2214,-0.9136,
2025-03-08 20:48:15.645,5.5300,-1.5700,5.7600,84.6875,243.3750,96.6875,-0.3244,-0.0753,0.2088,-0.9195,
2025-03-08 20:48:15.665,5.4400,-1.0200,5.7800,68.5000,236.3125,96.5625,-0.3206,-0.0571,0.1976,-0.9246,
2025-03-08 20:48:15.665,5.1700,-0.3800,5.5300,42.1250,228.6250,90.3750,-0.3170,-0.0389,0.1885,-0.9287,
2025-03-08 20:48:15.675,4.4100,-0.4900,5.3900,11.9375,224.3750,76.6875,-0.3144,-0.0204,0.1817,-0.9315,
2025-03-08 20:48:15.687,3.2600,-1.1100,5.3900,-20.0625,221.1250,62.6875,-0.3129,-0.0015,0.1775,-0.9331,
2025-03-08 20:48:15.699,2.0400,-1.7700,5.3000,-42.0625,215.2500,56.1250,-0.3116,0.0175,0.1751,-0.9338,
2025-03-08 20:48:15.708,0.8400,-2.9700,5.0100,-50.0000,205.4375,60.5625,-0.3098,0.0358,0.1735,-0.9342,
2025-03-08 20:48:15.718,0.4400,-3.4000,5.5000,-54.7500,194.6875,65.4375,-0.3072,0.0536,0.1725,-0.9343,
2025-03-08 20:48:15.726,0.2600,-3.4100,6.0200,-56.6875,184.0625,64.5625,-0.3046,0.0706,0.1719,-0.9342,
2025-03-08 20:48:15.767,0.2600,-3.4400,6.2000,-50.3750,173.6250,62.1875,-0.3018,0.0864,0.1710,-0.9339,
2025-03-08 20:48:15.778,-0.1900,-3.8800,5.9400,-35.8125,168.6875,62.3125,-0.2991,0.1016,0.1691,-0.9336,
2025-03-08 20:48:15.778,-0.2400,-4.0300,5.6300,-18.6875,161.8750,65.7500,-0.2960,0.1157,0.1659,-0.9335,
2025-03-08 20:48:15.778,-0.5900,-3.8400,5.6100,-1.8125,150.5625,69.7500,-0.2925,0.1286,0.1616,-0.9337,
2025-03-08 20:48:15.778,-1.3200,-2.4600,5.5900,13.5625,134.7500,70.7500,-0.2905,0.1401,0.1561,-0.9336,
2025-03-08 20:48:15.787,-1.8700,-1.8500,5.5400,23.9375,118.5000,65.8125,-0.2871,0.1497,0.1506,-0.9341,
2025-03-08 20:48:15.798,-1.8500,-1.6600,5.3500,26.1250,105.0625,61.7500,-0.2839,0.1581,0.1451,-0.9345,
2025-03-08 20:48:15.809,-2.5400,-1.6100,5.4300,22.7500,98.0625,57.3125,-0.2809,0.1660,0.1403,-0.9348,
2025-03-08 20:48:15.809,-3.1100,-2.2100,5.2600,16.6250,94.7500,49.3750,-0.2783,0.1737,0.1360,-0.9348,
2025-03-08 20:48:15.820,-2.9700,-2.4900,4.9600,10.1875,88.6875,44.1250,-0.2775,0.1812,0.1321,-0.9342,
2025-03-08 20:48:15.839,-2.5800,-2.6700,4.4200,3.6875,80.1250,45.2500,-0.2749,0.1879,0.1293,-0.9340,
2025-03-08 20:48:15.839,-3.2800,-2.1400,4.7800,-1.2500,72.1250,48.0625,-0.2719,0.1942,0.1269,-0.9340,
2025-03-08 20:48:15.858,-3.1600,-1.4200,4.8200,-8.8750,57.5000,50.5625,-0.2684,0.1995,0.1255,-0.9341,
2025-03-08 20:48:15.870,-3.5600,-1.2400,5.0100,-19.7500,42.5000,48.6875,-0.2646,0.2037,0.1252,-0.9342,
2025-03-08 20:48:15.881,-3.9600,-1.8000,5.0900,-34.8125,36.6250,44.5625,-0.2613,0.2079,0.1263,-0.9341,
2025-03-08 20:48:15.881,-4.2600,-3.3900,5.1800,-46.1250,35.3125,37.5000,-0.2579,0.2122,0.1285,-0.9338,
2025-03-08 20:48:15.901,-4.0400,-3.9700,5.3100,-48.6875,32.4375,31.1875,-0.2549,0.2161,0.1311,-0.9333,
2025-03-08 20:48:15.901,-3.6700,-4.4200,5.3600,-43.5625,24.3750,27.7500,-0.2522,0.2193,0.1335,-0.9330,
2025-03-08 20:48:15.911,-3.6700,-3.7100,5.3400,-31.7500,14.5000,27.8750,-0.2496,0.2214,0.1351,-0.9330,
2025-03-08 20:48:15.931,-3.9700,-2.9500,5.2700,-18.0625,4.8125,28.7500,-0.2471,0.2225,0.1359,-0.9332,
2025-03-08 20:48:15.936,-4.0900,-2.2800,5.0400,-8.3125,-3.6875,27.2500,-0.2447,0.2227,0.1362,-0.9338,
2025-03-08 20:48:15.941,-4.2900,-1.9200,5.1200,-5.7500,-11.6250,24.1875,-0.2426,0.2222,0.1364,-0.9345,
2025-03-08 20:48:15.961,-3.9400,-2.1400,5.3600,-10.0625,-17.0000,18.4375,-0.2407,0.2212,0.1372,-0.9350,
2025-03-08 20:48:15.972,-3.8400,-2.6300,5.4200,-13.2500,-19.3750,14.0000,-0.2391,0.2201,0.1384,-0.9355,
2025-03-08 20:48:15.982,-3.7300,-2.8600,5.4700,-14.0625,-20.6875,11.3750,-0.2377,0.2189,0.1397,-0.9360,
2025-03-08 20:48:15.982,-3.7000,-2.7200,5.6800,-13.5625,-25.0625,8.8750,-0.2365,0.2173,0.1411,-0.9364,
2025-03-08 20:48:15.995,-3.4500,-2.6800,5.6800,-12.3750,-33.1250,7.3125,-0.2353,0.2150,0.1426,-0.9370,
2025-03-08 20:48:16.012,-3.3900,-2.5700,5.8300,-12.3750,-41.8125,5.8750,-0.2341,0.2120,0.1444,-0.9378,
2025-03-08 20:48:16.012,-3.4600,-2.5000,5.9200,-11.3750,-49.0000,2.3750,-0.2331,0.2084,0.1462,-0.9385,
2025-03-08 20:48:16.022,-3.5800,-2.5700,6.4000,-12.0000,-53.8750,-3.2500,-0.2325,0.2043,0.1483,-0.9393,
2025-03-08 20:48:16.062,-3.3900,-2.9000,6.6300,-15.5625,-57.4375,-9.4375,-0.2325,0.2043,0.1483,-0.9393,
2025-03-08 20:48:16.072,-3.1800,-3.2400,6.7100,-16.3750,-60.8125,-14.6250,-0.2324,0.1953,0.1535,-0.9404,
2025-03-08 20:48:16.072,-3.4500,-3.3500,6.6700,-11.5000,-63.8125,-18.2500,-0.2328,0.1902,0.1559,-0.9409,
2025-03-08 20:48:16.072,-3.5700,-2.8600,6.7400,-4.8750,-71.6875,-19.3750,-0.2333,0.1843,0.1581,-0.9416,
2025-03-08 20:48:16.082,-3.4900,-2.5000,6.7800,1.0000,-84.4375,-15.1875,-0.2333,0.1843,0.1581,-0.9416,
2025-03-08 20:48:16.082,-1.8100,-2.6900,5.9600,0.1250,-100.3750,-12.6875,-0.2332,0.1774,0.1599,-0.9427,
2025-03-08 20:48:16.096,-1.5100,-2.7900,6.0500,0.7500,-102.3125,-14.9375,-0.2326,0.1608,0.1642,-0.9450,
2025-03-08 20:48:16.103,-1.7200,-2.5600,6.2200,-0.0625,-98.4375,-24.5000,-0.2332,0.1526,0.1665,-0.9458,
2025-03-08 20:48:16.113,-1.7000,-2.4300,6.2800,-4.1250,-100.6250,-36.3125,-0.2346,0.1441,0.1693,-0.9463,
2025-03-08 20:48:16.123,-1.4600,-2.5000,6.3700,-11.6250,-104.8125,-47.1250,-0.2346,0.1441,0.1693,-0.9463,
2025-03-08 20:48:16.133,-1.4600,-2.8100,6.4200,-16.6250,-110.4375,-55.8125,-0.2366,0.1353,0.1729,-0.9465,
2025-03-08 20:48:16.144,-1.8200,-2.8500,6.6000,-15.4375,-117.6250,-60.1875,-0.2393,0.1259,0.1771,-0.9463,
2025-03-08 20:48:16.153,-1.9000,-2.5400,6.9000,-16.6250,-130.5000,-61.3750,-0.2421,0.1159,0.1813,-0.9461,
2025-03-08 20:48:16.174,0.4300,-2.3200,5.3200,-21.7500,-151.0625,-59.8125,-0.2449,0.1049,0.1858,-0.9458,
2025-03-08 20:48:16.174,1.7600,-3.0100,5.0900,-41.2500,-157.6875,-56.8125,-0.2471,0.0923,0.1912,-0.9454,
2025-03-08 20:48:16.184,1.8100,-3.5100,5.8900,-44.3750,-148.0000,-68.2500,-0.2487,0.0797,0.1982,-0.9447,
2025-03-08 20:48:16.196,1.2100,-3.3900,6.3800,-48.0625,-145.2500,-81.6250,-0.2513,0.0676,0.2054,-0.9434,
2025-03-08 20:48:16.204,0.0600,-3.3100,6.7400,-53.3125,-148.2500,-90.2500,-0.2550,0.0557,0.2127,-0.9416,
2025-03-08 20:48:16.224,0.2500,-3.8500,6.7400,-51.7500,-156.4375,-92.1250,-0.2593,0.0434,0.2206,-0.9393,
2025-03-08 20:48:16.234,0.7200,-4.6200,6.8800,-42.1250,-169.2500,-87.8125,-0.2634,0.0304,0.2284,-0.9368,
2025-03-08 20:48:16.234,1.8200,-4.7900,6.7500,-31.2500,-187.4375,-81.3125,-0.2670,0.0162,0.2357,-0.9343,
2025-03-08 20:48:16.244,3.3300,-4.7300,5.0100,-20.0625,-196.5625,-71.1875,-0.2696,0.0005,0.2424,-0.9320,
2025-03-08 20:48:16.264,4.4700,-4.8800,4.2000,0.5625,-179.0000,-64.0625,-0.2711,-0.0159,0.2485,-0.9298,
2025-03-08 20:48:16.264,4.4800,-4.6500,5.0400,26.3750,-169.1250,-68.0625,-0.2723,-0.0314,0.2524,-0.9280,
2025-03-08 20:48:16.274,3.1900,-2.9300,6.8700,40.3125,-172.7500,-81.8125,-0.2740,-0.0467,0.2541,-0.9264,
2025-03-08 20:48:16.284,2.9800,-2.2600,6.9700,45.0625,-178.6875,-90.7500,-0.2764,-0.0629,0.2546,-0.9246,
2025-03-08 20:48:16.297,3.3700,-2.4700,6.6800,46.1250,-183.3125,-90.1250,-0.2794,-0.0798,0.2547,-0.9223,
2025-03-08 20:48:16.305,4.6000,-3.4500,6.7600,50.1875,-191.3125,-82.2500,-0.2822,-0.0971,0.2548,-0.9198,
2025-03-08 20:48:16.325,5.4100,-3.6500,6.4400,55.8750,-205.0000,-71.5000,-0.2840,-0.1149,0.2547,-0.9172,
2025-03-08 20:48:16.325,6.4900,-3.6100,5.1300,63.8125,-205.8125,-62.6875,-0.2845,-0.1337,0.2546,-0.9145,
2025-03-08 20:48:16.365,7.0300,-3.4500,4.7600,77.6250,-194.8125,-58.6875,-0.2842,-0.1524,0.2538,-0.9119,
2025-03-08 20:48:16.365,6.6500,-2.7200,6.8100,89.2500,-196.1250,-66.3125,-0.2835,-0.1705,0.2517,-0.9095,
2025-03-08 20:48:16.375,6.4300,-2.2700,7.3900,88.3750,-205.3125,-79.0625,-0.2830,-0.1891,0.2485,-0.9069,
2025-03-08 20:48:16.375,6.4600,-2.1600,7.1900,80.6875,-213.6250,-84.5000,-0.2833,-0.2086,0.2454,-0.9033,
2025-03-08 20:48:16.375,6.4600,-2.1600,7.1900,74.5625,-219.0625,-79.5625,-0.2839,-0.2285,0.2428,-0.8990,
2025-03-08 20:48:16.385,6.7200,-2.3700,6.6600,70.8125,-225.6875,-69.8750,-0.2839,-0.2485,0.2408,-0.8942,
2025-03-08 20:48:16.397,8.1200,-2.2900,5.5000,61.9375,-228.9375,-61.6250,-0.2831,-0.2686,0.2393,-0.8891,
2025-03-08 20:48:16.405,8.9300,-2.4100,4.4800,52.5000,-216.5625,-57.5000,-0.2816,-0.2884,0.2387,-0.8835,
2025-03-08 20:48:16.415,9.9500,-1.8900,5.5300,49.8125,-206.9375,-52.8750,-0.2802,-0.3070,0.2385,-0.8777,
2025-03-08 20:48:16.435,9.9500,-1.8900,5.5300,48.3750,-208.0625,-49.3125,-0.2786,-0.3245,0.2383,-0.8720,
2025-03-08 20:48:16.435,10.5000,-1.8500,6.0400,43.0625,-211.8125,-48.1875,-0.2767,-0.3419,0.2382,-0.8659,
2025-03-08 20:48:16.445,10.7000,-2.1200,6.6900,36.9375,-214.0000,-43.6875,-0.2747,-0.3593,0.2386,-0.8594,
2025-03-08 20:48:16.456,10.6600,-2.4800,6.7600,33.1250,-215.3750,-38.6250,-0.2723,-0.3765,0.2395,-0.8525,
2025-03-08 20:48:16.471,10.7700,-2.5800,6.9100,30.6875,-215.6250,-35.9375,-0.2696,-0.3935,0.2408,-0.8452,
2025-03-08 20:48:16.479,10.7700,-2.5800,6.9100,30.6875,-215.6250,-35.9375,-0.2668,-0.4103,0.2422,-0.8378,
2025-03-08 20:48:16.486,11.2900,-2.5800,6.2200,30.3125,-192.5625,-33.6250,-0.2639,-0.4265,0.2437,-0.8301,
2025-03-08 20:48:16.497,9.7800,-2.3800,6.5200,40.1250,-179.4375,-31.7500,-0.2611,-0.4413,0.2446,-0.8230,
2025-03-08 20:48:16.513,9.6800,-1.6200,7.4300,60.5000,-176.8125,-28.8125,-0.2581,-0.4552,0.2446,-0.8163,
2025-03-08 20:48:16.517,10.0600,-0.8900,7.7100,86.7500,-179.8750,-29.4375,-0.2540,-0.4693,0.2431,-0.8100,
2025-03-08 20:48:16.529,10.0600,-0.8900,7.7100,86.7500,-179.8750,-29.4375,-0.2489,-0.4840,0.2398,-0.8039,
2025-03-08 20:48:16.537,11.4200,-1.1400,6.6900,105.2500,-179.7500,-27.6250,-0.2428,-0.4989,0.2353,-0.7980,
2025-03-08 20:48:16.547,11.7300,-1.0800,5.3000,93.4375,-159.1875,-27.4375,-0.2367,-0.5131,0.2306,-0.7921,
2025-03-08 20:48:16.559,11.1200,-0.1800,4.6300,84.0625,-146.9375,-27.8750,-0.2313,-0.5261,0.2263,-0.7864,
2025-03-08 20:48:16.568,11.2000,-0.1200,4.3900,81.8750,-142.4375,-26.6250,-0.2266,-0.5380,0.2223,-0.7809,
2025-03-08 20:48:16.580,11.2000,-0.1200,4.3900,81.8750,-142.4375,-26.6250,-0.2220,-0.5494,0.2184,-0.7753,
2025-03-08 20:48:16.588,11.3800,-0.4300,4.1600,82.5625,-143.1875,-27.8750,-0.2163,-0.5611,0.2136,-0.7699,
2025-03-08 20:48:16.599,11.0700,-0.7000,4.1100,62.8125,-131.1875,-37.6875,-0.2122,-0.5722,0.2095,-0.7640,
2025-03-08 20:48:16.609,10.5200,-1.3300,3.1700,36.3125,-111.7500,-37.1250,-0.2092,-0.5825,0.2060,-0.7580,
2025-03-08 20:48:16.629,10.5900,-1.4000,2.5100,10.3750,-87.9375,-29.2500,-0.2078,-0.5908,0.2039,-0.7524,
2025-03-08 20:48:16.690,10.5400,-1.3200,2.2300,10.3750,-87.9375,-29.2500,-0.2076,-0.5971,0.2032,-0.7477,
2025-03-08 20:48:16.690,10.6600,-0.6600,2.7300,-2.6875,-69.9375,-20.2500,-0.2057,-0.6024,0.2018,-0.7443,
2025-03-08 20:48:16.690,10.9300,-0.3200,3.2100,-1.6250,-55.8125,-18.4375,-0.2059,-0.6064,0.2024,-0.7408,
2025-03-08 20:48:16.700,11.0700,-0.0900,3.6000,3.5000,-45.7500,-21.6250,-0.2062,-0.6102,0.2025,-0.7376,
2025-03-08 20:48:16.700,11.0900,-0.2200,3.5500,4.5625,-33.1250,-22.4375,-0.2066,-0.6135,0.2020,-0.7350,
2025-03-08 20:48:16.700,10.3900,-0.6900,2.6700,4.5625,-33.1250,-22.4375,-0.2072,-0.6160,0.2011,-0.7329,
2025-03-08 20:48:16.700,10.0100,-0.8800,2.0400,2.8125,-23.5000,-20.1250,-0.2079,-0.6179,0.2003,-0.7314,
2025-03-08 20:48:16.700,9.5900,-0.8300,1.4700,5.5625,-16.3750,-12.3750,-0.2084,-0.6193,0.1996,-0.7302,
2025-03-08 20:48:16.720,9.3400,-0.4400,0.7600,9.6250,-17.0625,-9.6875,-0.2087,-0.6206,0.1989,-0.7292,
2025-03-08 20:48:16.720,9.5300,-0.2200,0.7100,11.7500,-16.1250,-8.1875,-0.2084,-0.6220,0.1981,-0.7283,
2025-03-08 20:48:16.720,9.8000,-0.0200,0.8300,11.7500,-16.1250,-8.1875,-0.2081,-0.6233,0.1972,-0.7275,
2025-03-08 20:48:16.740,10.0200,0.0600,1.0400,9.4375,-10.3125,-7.6875,-0.2077,-0.6243,0.1962,-0.7270,
2025-03-08 20:48:16.750,10.0200,0.0000,1.1300,-3.6875,3.5625,-8.2500,-0.2080,-0.6246,0.1957,-0.7268,
2025-03-08 20:48:16.762,9.8400,-0.0800,1.0400,-6.5000,5.1875,-7.8125,-0.2087,-0.6245,0.1954,-0.7268,
2025-03-08 20:48:16.770,9.6200,-0.1100,0.8400,-5.6875,2.1875,-7.1250,-0.2097,-0.6241,0.1953,-0.7269,
2025-03-08 20:48:16.770,9.3800,0.0200,0.6400,-5.6875,2.1875,-7.1250,-0.2105,-0.6240,0.1953,-0.7268,
2025-03-08 20:48:16.791,9.1700,0.3500,0.3800,-3.7500,-3.3750,-6.7500,-0.2110,-0.6243,0.1952,-0.7264,
2025-03-08 20:48:16.801,9.1500,0.3900,0.4400,-4.6875,-7.8750,-7.1875,-0.2115,-0.6248,0.1951,-0.7258,
2025-03-08 20:48:16.811,9.1600,0.3700,0.5200,-7.8125,-4.8750,-6.4375,-0.2120,-0.6253,0.1952,-0.7252,
2025-03-08 20:48:16.821,9.1600,0.1200,0.7700,-12.2500,-0.7500,-5.8750,-0.2128,-0.6256,0.1954,-0.7247,
2025-03-08 20:48:16.831,9.1300,-0.0400,0.8300,-12.2500,-0.7500,-5.8750,-0.2138,-0.6255,0.1959,-0.7244,
2025-03-08 20:48:16.831,9.0700,-0.2200,0.8300,-16.1250,2.3750,-5.4375,-0.2150,-0.6252,0.1965,-0.7241,
2025-03-08 20:48:16.851,9.0600,-0.4000,0.9000,-15.1875,1.8750,-3.2500,-0.2162,-0.6248,0.1973,-0.7239,
2025-03-08 20:48:16.862,9.2300,-0.4300,0.7900,-11.1250,0.1250,-1.1875,-0.2173,-0.6244,0.1979,-0.7237,
2025-03-08 20:48:16.862,9.3000,-0.4300,0.7700,-6.6250,-0.9375,0.6250,-0.2180,-0.6242,0.1986,-0.7235,
2025-03-08 20:48:16.871,9.3500,-0.3500,0.7000,-6.6250,-0.9375,0.6250,-0.2183,-0.6241,0.1990,-0.7233,
2025-03-08 20:48:16.884,9.4900,-0.3700,0.6000,-3.0625,-0.6250,2.1875,-0.2180,-0.6242,0.1992,-0.7233,
2025-03-08 20:48:16.901,9.6000,-0.3800,0.6000,-1.2500,0.4375,3.9375,-0.2179,-0.6241,0.1995,-0.7234,
2025-03-08 20:48:16.912,9.6400,-0.3600,0.6700,-1.5625,0.4375,4.3750,-0.2178,-0.6240,0.1997,-0.7234,
2025-03-08 20:48:16.922,9.6500,-0.3300,0.7900,-1.2500,0.4375,4.5000,-0.2175,-0.6239,0.2001,-0.7235,
2025-03-08 20:48:16.922,9.5700,-0.2900,0.9800,-1.2500,0.4375,4.5000,-0.2173,-0.6238,0.2004,-0.7236,
2025-03-08 20:48:16.974,9.4900,-0.2500,1.0400,-0.6875,0.1250,4.0000,-0.2166,-0.6238,0.2002,-0.7238,
2025-03-08 20:48:16.982,9.4700,-0.2700,1.0800,0.0000,-0.8750,3.8125,-0.2164,-0.6238,0.2004,-0.7238,
2025-03-08 20:48:16.982,9.4200,-0.3200,1.0100,1.1875,-2.1250,3.6875,-0.2161,-0.6239,0.2006,-0.7238,
2025-03-08 20:48:16.982,9.4100,-0.3800,0.9800,2.9375,-2.7500,3.8125,-0.2156,-0.6241,0.2006,-0.7237,
2025-03-08 20:48:16.982,9.4200,-0.4800,0.9300,4.7500,-3.0625,4.1875,-0.2150,-0.6243,0.2006,-0.7237,
2025-03-08 20:48:16.986,9.4300,-0.4700,0.9100,6.1250,-3.0625,4.6875,-0.2141,-0.6247,0.2006,-0.7236,
2025-03-08 20:48:16.998,9.4600,-0.5600,0.9000,6.3750,-2.8750,5.1875,-0.2132,-0.6251,0.2008,-0.7235,
2025-03-08 20:48:17.002,9.4700,-0.6100,0.8900,6.7500,-2.3750,5.3750,-0.2122,-0.6255,0.2010,-0.7234,
2025-03-08 20:48:17.022,9.4200,-0.6300,0.9500,8.3125,-1.4375,5.5000,-0.2112,-0.6258,0.2011,-0.7234,
2025-03-08 20:48:17.023,9.3000,-0.6200,1.0100,9.8750,-1.0000,5.6250,-0.2101,-0.6260,0.2010,-0.7236,
2025-03-08 20:48:17.042,9.2500,-0.6200,1.0500,10.4375,-0.7500,5.3750,-0.2093,-0.6262,0.2012,-0.7236,
2025-03-08 20:48:17.042,9.1800,-0.6300,1.1000,10.4375,-1.3125,5.2500,-0.2083,-0.6263,0.2010,-0.7238,
2025-03-08 20:48:17.062,9.1800,-0.6500,1.1000,11.3125,-1.8750,5.2500,-0.2072,-0.6266,0.2008,-0.7240,
2025-03-08 20:48:17.062,9.2500,-0.8000,1.1600,13.8125,-3.5000,5.9375,-0.2058,-0.6270,0.2006,-0.7241,
2025-03-08 20:48:17.074,9.3200,-0.8900,1.1700,16.8125,-6.0625,6.6250,-0.2041,-0.6275,0.2003,-0.7242,
2025-03-08 20:48:17.083,9.3700,-0.9100,1.1700,20.2500,-8.1250,7.7500,-0.2019,-0.6282,0.1999,-0.7243,
2025-03-08 20:48:17.098,9.3800,-0.8200,1.1500,24.0625,-9.3125,9.0625,-0.1996,-0.6290,0.1993,-0.7244,
2025-03-08 20:48:17.104,9.3700,-0.5600,1.1000,27.8750,-9.1250,10.0625,-0.1973,-0.6298,0.1985,-0.7246,
2025-03-08 20:48:17.125,9.3200,-0.3800,1.0800,31.4375,-9.0625,10.9375,-0.1947,-0.6307,0.1974,-0.7248,
2025-03-08 20:48:17.136,9.2700,-0.1700,0.9400,34.0000,-8.5000,11.6250,-0.1894,-0.6325,0.1947,-0.7254,
2025-03-08 20:48:17.154,9.2500,-0.1600,0.9000,32.5000,-7.8125,11.8750,-0.1868,-0.6333,0.1935,-0.7257,
2025-03-08 20:48:17.162,9.1900,-0.2100,0.8300,29.4375,-7.2500,12.1875,-0.1844,-0.6340,0.1924,-0.7260,
2025-03-08 20:48:17.177,9.1900,-0.5100,0.6500,22.7500,-7.8750,12.5000,-0.1799,-0.6353,0.1910,-0.7263,
2025-03-08 20:48:17.186,9.2100,-0.6100,0.6100,20.0000,-8.3750,12.2500,-0.1769,-0.6362,0.1897,-0.7266,
2025-03-08 20:48:17.199,9.2200,-0.7200,0.6100,18.9375,-8.9375,12.1250,-0.1750,-0.6368,0.1893,-0.7267,
2025-03-08 20:48:17.213,9.3100,-0.9400,0.5900,19.1250,-9.5000,11.1875,-0.1732,-0.6375,0.1888,-0.7266,
2025-03-08 20:48:17.215,9.3700,-1.0600,0.6000,19.6250,-10.4375,10.0000,-0.1713,-0.6382,0.1884,-0.7265,
2025-03-08 20:48:17.226,9.4300,-1.1700,0.5800,19.9375,-11.2500,8.7500,-0.1696,-0.6391,0.1877,-0.7263,
2025-03-08 20:48:17.256,9.4600,-1.2700,0.6400,20.3750,-12.5625,8.0000,-0.1668,-0.6403,0.1863,-0.7263,
2025-03-08 20:48:17.276,9.5300,-1.4000,0.5600,22.2500,-13.2500,7.8125,-0.1649,-0.6413,0.1855,-0.7260,
2025-03-08 20:48:17.276,9.5600,-1.3700,0.4500,25.9375,-13.5000,7.3750,-0.1628,-0.6423,0.1845,-0.7258,
2025-03-08 20:48:17.276,9.6600,-1.2900,0.4000,31.3125,-13.7500,7.0000,-0.1605,-0.6435,0.1832,-0.7257,
2025-03-08 20:48:17.276,9.7900,-0.9800,0.2400,37.0000,-14.6250,6.8750,-0.1578,-0.6448,0.1815,-0.7255,
2025-03-08 20:48:17.286,9.8600,-0.7200,0.1100,42.6875,-15.8750,6.8750,-0.1546,-0.6463,0.1792,-0.7255,
2025-03-08 20:48:17.299,9.8900,-0.4900,0.0100,46.6250,-17.1875,7.0000,-0.1514,-0.6478,0.1770,-0.7253,
2025-03-08 20:48:17.310,9.8900,-0.2700,-0.0100,49.6250,-17.8750,7.1875,-0.1479,-0.6495,0.1746,-0.7251,
2025-03-08 20:48:17.317,9.7400,0.0900,0.0000,50.3125,-17.1250,6.8125,-0.1445,-0.6510,0.1721,-0.7251,
2025-03-08 20:48:17.327,9.6000,0.2400,0.0800,48.8125,-15.0625,6.6250,-0.1412,-0.6525,0.1696,-0.7250,
2025-03-08 20:48:17.339,9.4700,0.3500,0.0900,46.3750,-13.6250,6.6875,-0.1379,-0.6538,0.1672,-0.7250,
2025-03-08 20:48:17.349,9.4000,0.6000,-0.0100,44.3125,-13.5625,7.2500,-0.1348,-0.6550,0.1650,-0.7250,
2025-03-08 20:48:17.359,9.4800,0.7100,-0.1400,42.5625,-14.3750,7.9375,-0.1318,-0.6562,0.1630,-0.7248,
2025-03-08 20:48:17.369,9.6200,0.8400,-0.2800,40.8750,-14.6875,8.9375,-0.1287,-0.6575,0.1612,-0.7247,
2025-03-08 20:48:17.379,9.7400,0.9800,-0.3700,38.9375,-13.6250,9.3750,-0.1258,-0.6586,0.1595,-0.7245,
2025-03-08 20:48:17.379,9.8000,1.1500,-0.5300,36.1875,-11.6250,9.2500,-0.1220,-0.6598,0.1569,-0.7247,
2025-03-08 20:48:17.399,9.6600,1.1600,-0.4400,32.1875,-9.1250,8.2500,-0.1196,-0.6606,0.1555,-0.7247,
2025-03-08 20:48:17.409,9.5000,1.1700,-0.3900,27.5000,-7.2500,7.0625,-0.1175,-0.6612,0.1543,-0.7247,
2025-03-08 20:48:17.419,9.2700,0.9700,-0.1500,22.0625,-5.8750,5.5625,-0.1158,-0.6617,0.1533,-0.7247,
2025-03-08 20:48:17.429,9.2400,0.9000,-0.0300,16.8125,-5.5625,4.4375,-0.1146,-0.6622,0.1526,-0.7247,
2025-03-08 20:48:17.439,9.2600,0.7400,0.0800,12.4375,-5.6250,3.6875,-0.1135,-0.6626,0.1520,-0.7245,
2025-03-08 20:48:17.439,9.2900,0.6600,0.1500,9.3750,-6.3750,3.3125,-0.1127,-0.6630,0.1517,-0.7243,
2025-03-08 20:48:17.459,9.5200,0.5200,0.0400,8.3750,-7.3125,3.0625,-0.1119,-0.6635,0.1514,-0.7241,
2025-03-08 20:48:17.459,9.6700,0.5400,-0.0600,8.8125,-7.9375,2.8125,-0.1112,-0.6641,0.1511,-0.7238,
2025-03-08 20:48:17.480,9.7600,0.5700,-0.1400,9.0625,-7.4375,1.8750,-0.1105,-0.6646,0.1508,-0.7234,
2025-03-08 20:48:17.480,9.8300,0.6000,-0.1700,8.6875,-6.2500,0.3125,-0.1097,-0.6651,0.1501,-0.7232,
2025-03-08 20:48:17.502,9.8200,0.7000,-0.0900,7.8125,-5.2500,-1.5000,-0.1093,-0.6655,0.1497,-0.7230,
2025-03-08 20:48:17.503,9.8100,0.7600,-0.0300,6.0000,-5.6250,-2.9375,-0.1091,-0.6659,0.1492,-0.7228,
2025-03-08 20:48:17.530,9.8000,0.8100,-0.0200,4.1875,-6.2500,-3.3750,-0.1090,-0.6664,0.1487,-0.7224,
2025-03-08 20:48:17.530,9.9200,0.8600,-0.1400,1.9375,-6.6875,-4.0625,-0.1091,-0.6669,0.1485,-0.7220,
2025-03-08 20:48:17.573,9.9500,0.8900,-0.1900,-1.0000,-6.5625,-4.6875,-0.1106,-0.6686,0.1467,-0.7206,
2025-03-08 20:48:17.573,9.9900,0.8700,-0.1900,-4.1875,-6.0000,-5.6875,-0.1125,-0.6702,0.1453,-0.7191,
2025-03-08 20:48:17.573,10.0200,0.8400,-0.2400,-7.1250,-5.0625,-6.8750,-0.1146,-0.6716,0.1441,-0.7177,
2025-03-08 20:48:17.594,9.8300,0.8000,-0.2700,-8.0625,-3.4375,-8.5000,-0.1168,-0.6730,0.1429,-0.7162,
2025-03-08 20:48:17.594,9.6800,0.7200,-0.2400,-9.3750,-1.6250,-10.3750,-0.1190,-0.6742,0.1417,-0.7149,
2025-03-08 20:48:17.594,9.4900,0.6700,-0.2100,-13.1250,-0.3750,-11.8750,-0.1205,-0.6743,0.1418,-0.7147,
2025-03-08 20:48:17.596,9.2300,0.4500,-0.1700,-19.3750,-0.3125,-12.7500,-0.1224,-0.6742,0.1423,-0.7143,
2025-03-08 20:48:17.614,9.2400,0.2500,-0.1900,-25.0000,-1.5000,-12.8125,-0.1246,-0.6742,0.1431,-0.7138,
2025-03-08 20:48:17.614,9.2300,0.1000,-0.2200,-27.7500,-2.6250,-12.6250,-0.1269,-0.6742,0.1440,-0.7132,
2025-03-08 20:48:17.634,9.3300,-0.0600,-0.2500,-28.2500,-3.3750,-12.3750,-0.1292,-0.6743,0.1451,-0.7125,
2025-03-08 20:48:17.639,9.3600,-0.4900,-0.2800,-27.1250,-2.5625,-12.6875,-0.1326,-0.6740,0.1471,-0.7116,
2025-03-08 20:48:17.654,9.3000,-0.6300,-0.2700,-25.2500,-0.9375,-13.1250,-0.1348,-0.6740,0.1479,-0.7111,
2025-03-08 20:48:17.654,9.2100,-0.7500,-0.2200,-22.7500,0.5625,-13.3750,-0.1369,-0.6739,0.1484,-0.7107,
2025-03-08 20:48:17.664,9.2500,-0.6800,-0.1800,-19.8750,0.6875,-13.0625,-0.1389,-0.6738,0.1489,-0.7103,
2025-03-08 20:48:17.674,9.3100,-0.6000,-0.1400,-17.5625,0.0625,-12.2500,-0.1406,-0.6737,0.1492,-0.7100,
2025-03-08 20:48:17.684,9.4200,-0.4500,-0.1400,-16.3750,-0.7500,-11.2500,-0.1423,-0.6737,0.1497,-0.7095,
2025-03-08 20:48:17.700,9.4700,-0.3100,-0.0900,-15.8125,-1.9375,-10.1250,-0.1437,-0.6738,0.1501,-0.7091,
2025-03-08 20:48:17.706,9.5100,-0.1400,-0.2500,-14.5625,-2.8750,-9.0000,-0.1451,-0.6739,0.1504,-0.7087,
2025-03-08 20:48:17.715,9.5800,-0.1100,-0.2700,-13.1250,-3.5000,-7.9375,-0.1463,-0.6740,0.1509,-0.7082,
2025-03-08 20:48:17.725,9.6400,-0.1100,-0.3000,-13.0625,-4.1250,-7.1250,-0.1474,-0.6742,0.1513,-0.7077,
2025-03-08 20:48:17.735,9.7400,-0.2700,-0.2000,-14.8125,-3.3750,-6.5625,-0.1484,-0.6743,0.1517,-0.7073,
2025-03-08 20:48:17.745,9.7300,-0.3600,-0.1100,-17.9375,-1.8750,-6.1250,-0.1498,-0.6743,0.1525,-0.7068,
2025-03-08 20:48:17.755,9.7600,-0.4500,0.0000,-20.6250,-0.2500,-6.1250,-0.1511,-0.6744,0.1536,-0.7062,
2025-03-08 20:48:17.765,9.7900,-0.5500,0.1400,-22.3750,0.4375,-6.1875,-0.1528,-0.6742,0.1546,-0.7058,
2025-03-08 20:48:17.775,9.7700,-0.6700,0.4000,-22.5000,0.3750,-6.3750,-0.1544,-0.6740,0.1556,-0.7054,
2025-03-08 20:48:17.785,9.7300,-0.6800,0.4100,-20.7500,-0.1875,-6.1875,-0.1560,-0.6738,0.1564,-0.7051,
2025-03-08 20:48:17.796,9.7200,-0.6600,0.4200,-17.6250,-0.4375,-5.9375,-0.1573,-0.6737,0.1572,-0.7048,
2025-03-08 20:48:17.806,9.7200,-0.6300,0.4100,-14.3750,-1.0000,-5.4375,-0.1585,-0.6736,0.1577,-0.7044,
2025-03-08 20:48:17.816,9.7300,-0.5300,0.3500,-11.8750,-0.3750,-4.8750,-0.1595,-0.6735,0.1581,-0.7042,
2025-03-08 20:48:17.826,9.7300,-0.5000,0.3000,-9.7500,0.8750,-4.5000,-0.1603,-0.6734,0.1585,-0.7041,
2025-03-08 20:48:17.866,9.6200,-0.4900,0.2000,-8.5000,2.3750,-4.3125,-0.1603,-0.6734,0.1585,-0.7041,
2025-03-08 20:48:17.866,9.4800,-0.4500,0.0900,-9.0000,3.9375,-4.3750,-0.1608,-0.6732,0.1589,-0.7040,
2025-03-08 20:48:17.866,9.4000,-0.4700,0.0900,-11.0000,4.5625,-4.5625,-0.1622,-0.6727,0.1600,-0.7040,
2025-03-08 20:48:17.866,9.3800,-0.4800,0.1400,-12.5000,4.0625,-4.4375,-0.1632,-0.6724,0.1604,-0.7040,
2025-03-08 20:48:17.887,9.3600,-0.4600,0.1700,-13.1875,3.0000,-4.0625,-0.1642,-0.6720,0.1609,-0.7039,
2025-03-08 20:48:17.887,9.4500,-0.4100,0.1300,-12.6250,1.7500,-3.5625,-0.1642,-0.6720,0.1609,-0.7039,
2025-03-08 20:48:17.950,9.4100,-0.4400,0.0900,-11.8750,1.5000,-3.3125,-0.1652,-0.6718,0.1615,-0.7038,
2025-03-08 20:48:17.950,9.3600,-0.4500,0.0800,-11.0000,1.6875,-2.8750,-0.1661,-0.6716,0.1620,-0.7036,
2025-03-08 20:48:17.950,9.2700,-0.5100,0.1100,-10.1875,2.2500,-2.0625,-0.1666,-0.6715,0.1627,-0.7034,
2025-03-08 20:48:17.950,9.3100,-0.5300,0.1300,-9.6875,2.6250,-0.9375,-0.1671,-0.6714,0.1635,-0.7033,
2025-03-08 20:48:17.950,9.3600,-0.5800,0.1100,-9.6250,3.6250,0.2500,-0.1674,-0.6713,0.1643,-0.7031,
2025-03-08 20:48:17.950,9.4000,-0.6500,0.1200,-8.7500,4.8750,1.7500,-0.1680,-0.6709,0.1654,-0.7030,
2025-03-08 20:48:17.958,9.3500,-0.6500,0.1400,-5.8750,6.5625,3.4375,-0.1681,-0.6706,0.1663,-0.7031,
2025-03-08 20:48:17.968,9.4400,-0.6700,0.1300,-2.5625,8.0625,4.5000,-0.1679,-0.6702,0.1672,-0.7034,
2025-03-08 20:48:17.978,9.5500,-0.6800,0.1800,-1.6250,8.6875,4.9375,-0.1675,-0.6697,0.1678,-0.7037,
2025-03-08 20:48:18.001,9.8600,-0.5300,0.3600,-2.8125,8.5625,5.3125,-0.1671,-0.6692,0.1685,-0.7042,
2025-03-08 20:48:18.001,9.9500,-0.4300,0.4300,-4.8750,7.3125,5.9375,-0.1671,-0.6686,0.1688,-0.7047,
2025-03-08 20:48:18.001,9.9300,-0.3600,0.4400,-6.3125,5.4375,6.2500,-0.1671,-0.6680,0.1694,-0.7051,
2025-03-08 20:48:18.030,9.8100,-0.3300,0.4000,-6.5000,4.4375,5.7500,-0.1672,-0.6675,0.1700,-0.7054,
2025-03-08 20:48:18.030,9.5100,-0.4600,0.3100,-6.5625,4.8750,4.2500,-0.1673,-0.6670,0.1707,-0.7057,
2025-03-08 20:48:18.030,9.3600,-0.5300,0.3400,-6.3750,5.4375,2.8750,-0.1675,-0.6666,0.1713,-0.7059,
2025-03-08 20:48:18.040,9.3100,-0.5500,0.3900,-6.1875,5.1875,1.7500,-0.1681,-0.6660,0.1721,-0.7061,
2025-03-08 20:48:18.062,9.2800,-0.5900,0.3300,-5.8125,4.0625,1.4375,-0.1684,-0.6656,0.1725,-0.7063,
2025-03-08 20:48:18.062,9.3600,-0.6000,0.3600,-5.3125,3.2500,1.5000,-0.1687,-0.6652,0.1729,-0.7065,
2025-03-08 20:48:18.072,9.3700,-0.5700,0.3600,-5.5625,2.8125,2.0625,-0.1690,-0.6650,0.1732,-0.7066,
2025-03-08 20:48:18.093,9.2900,-0.5700,0.3900,-6.5000,3.5000,2.2500,-0.1692,-0.6647,0.1736,-0.7067,
2025-03-08 20:48:18.093,9.0700,-0.6400,0.3600,-7.2500,4.2500,2.2500,-0.1695,-0.6643,0.1741,-0.7069,
2025-03-08 20:48:18.101,8.9700,-0.7300,0.3600,-7.5625,4.4375,1.9375,-0.1696,-0.6640,0.1748,-0.7070,
2025-03-08 20:48:18.121,8.9200,-0.8400,0.3900,-6.8750,3.7500,1.5625,-0.1700,-0.6636,0.1753,-0.7071,
2025-03-08 20:48:18.132,8.9600,-0.8700,0.4000,-4.8750,2.0625,1.6250,-0.1703,-0.6632,0.1758,-0.7073,
2025-03-08 20:48:18.175,8.9600,-0.8700,0.4000,0.3750,-0.6250,1.9375,-0.1706,-0.6630,0.1761,-0.7073,
2025-03-08 20:48:18.175,9.1700,-0.8200,0.4200,0.3750,-0.6250,1.9375,-0.1705,-0.6630,0.1763,-0.7073,
2025-03-08 20:48:18.175,9.4500,-0.6600,0.4200,3.9375,-1.5625,3.1250,-0.1704,-0.6630,0.1764,-0.7073,
2025-03-08 20:48:18.175,9.6300,-0.5100,0.4200,4.1875,-1.0625,3.1875,-0.1699,-0.6631,0.1764,-0.7073,
2025-03-08 20:48:18.175,9.6000,-0.4600,0.4500,4.5000,-0.5625,3.0000,-0.1695,-0.6631,0.1763,-0.7074,
2025-03-08 20:48:18.184,9.6000,-0.4600,0.4500,4.6875,-0.3125,2.8750,-0.1691,-0.6632,0.1762,-0.7075,
2025-03-08 20:48:18.205,9.5000,-0.4500,0.4800,4.5000,-0.5000,2.6875,-0.1686,-0.6632,0.1761,-0.7076,
2025-03-08 20:48:18.208,9.5400,-0.6200,0.4800,4.3125,-0.5625,2.8750,-0.1682,-0.6633,0.1760,-0.7077,
2025-03-08 20:48:18.214,9.5500,-0.7200,0.5000,4.4375,0.1875,2.9375,-0.1678,-0.6633,0.1758,-0.7078,
2025-03-08 20:48:18.234,9.6100,-0.8000,0.5000,4.5000,0.7500,3.0625,-0.1672,-0.6633,0.1760,-0.7079,
2025-03-08 20:48:18.234,9.6100,-0.8000,0.5000,4.5000,0.7500,3.0625,-0.1665,-0.6632,0.1761,-0.7081,
2025-03-08 20:48:18.244,9.6900,-1.0000,0.5900,6.1250,2.0625,3.0000,-0.1660,-0.6631,0.1758,-0.7084,
2025-03-08 20:48:18.254,9.7000,-1.1700,0.8600,15.4375,5.7500,4.1875,-0.1653,-0.6630,0.1754,-0.7088,
2025-03-08 20:48:18.269,9.7000,-1.2400,1.0000,19.3750,7.4375,6.1875,-0.1642,-0.6628,0.1746,-0.7094,
2025-03-08 20:48:18.275,9.5400,-1.5900,0.9500,22.3125,9.5000,8.2500,-0.1629,-0.6625,0.1737,-0.7102,
2025-03-08 20:48:18.285,9.5400,-1.5900,0.9500,22.3125,9.5000,8.2500,-0.1613,-0.6621,0.1727,-0.7112,
2025-03-08 20:48:18.297,9.5100,-1.7900,0.8800,26.0625,11.4375,10.8750,-0.1599,-0.6615,0.1720,-0.7122,
2025-03-08 20:48:18.306,9.2900,-2.3100,0.6900,38.2500,17.5000,17.1250,-0.1575,-0.6609,0.1707,-0.7136,
2025-03-08 20:48:18.336,9.1200,-2.4100,0.6200,46.1875,20.6250,19.6875,-0.1545,-0.6601,0.1691,-0.7154,
2025-03-08 20:48:18.336,9.0600,-2.5000,0.5100,53.3750,22.6875,22.3750,-0.1511,-0.6591,0.1672,-0.7175,
2025-03-08 20:48:18.336,9.0600,-2.5000,0.5100,53.3750,22.6875,22.3750,-0.1470,-0.6581,0.1649,-0.7198,
2025-03-08 20:48:18.366,9.1200,-2.6800,0.5400,57.2500,24.0625,25.6875,-0.1426,-0.6570,0.1626,-0.7222,
2025-03-08 20:48:18.366,9.3300,-3.3200,0.9000,63.8750,29.1875,35.0625,-0.1379,-0.6557,0.1603,-0.7248,
2025-03-08 20:48:18.366,9.3200,-3.6100,1.1300,70.5000,31.0625,41.0000,-0.1326,-0.6541,0.1580,-0.7277,
2025-03-08 20:48:18.376,9.2900,-3.6900,1.2600,75.2500,33.1875,47.7500,-0.1266,-0.6524,0.1556,-0.7308,
2025-03-08 20:48:18.393,9.3700,-3.4300,1.6700,75.2500,33.1875,47.7500,-0.1199,-0.6506,0.1532,-0.7341,
2025-03-08 20:48:18.417,9.3800,-3.2400,1.7300,79.0625,36.5000,54.2500,-0.1127,-0.6484,0.1509,-0.7377,
2025-03-08 20:48:18.417,9.4300,-3.2200,1.6200,84.8125,39.9375,66.2500,-0.1050,-0.6459,0.1486,-0.7414,
2025-03-08 20:48:18.417,9.5900,-3.2400,1.5100,83.7500,40.1875,74.3750,-0.0967,-0.6433,0.1465,-0.7452,
2025-03-08 20:48:18.427,10.2800,-3.8700,1.5500,81.1875,43.5000,85.2500,-0.0879,-0.6405,0.1450,-0.7490,
2025-03-08 20:48:18.437,10.6500,-4.1400,1.7500,81.1875,43.5000,85.2500,-0.0787,-0.6373,0.1442,-0.7529,
2025-03-08 20:48:18.488,10.9800,-4.1000,2.0500,76.0000,51.5625,98.5625,-0.0682,-0.6334,0.1436,-0.7573,
2025-03-08 20:48:18.488,11.1400,-3.7300,2.3600,52.3125,78.1875,118.1250,-0.0584,-0.6282,0.1450,-0.7622,
2025-03-08 20:48:18.488,11.0300,-2.9800,2.8000,35.3750,87.0625,126.2500,-0.0489,-0.6220,0.1475,-0.7674,
2025-03-08 20:48:18.488,11.3400,-2.9100,2.8300,16.7500,91.5000,134.6875,-0.0400,-0.6149,0.1514,-0.7729,
2025-03-08 20:48:18.488,11.6500,-3.3300,2.9000,16.7500,91.5000,134.6875,-0.0315,-0.6072,0.1570,-0.7783,
2025-03-08 20:48:18.495,12.2000,-4.5200,3.2200,-2.8750,94.9375,146.6250,-0.0233,-0.5989,0.1644,-0.7834,
2025-03-08 20:48:18.511,12.0500,-4.8500,3.4000,-18.8125,105.5625,169.4375,-0.0148,-0.5900,0.1733,-0.7885,
2025-03-08 20:48:18.519,11.6600,-4.8900,3.5800,-16.7500,112.4375,176.8125,-0.0060,-0.5803,0.1829,-0.7936,
2025-03-08 20:48:18.539,11.3600,-4.9100,3.7900,-10.9375,121.0625,183.3125,0.0032,-0.5700,0.1926,-0.7988,
2025-03-08 20:48:18.539,10.8400,-5.0400,3.8200,-10.9375,121.0625,183.3125,0.0131,-0.5587,0.2021,-0.8042,
2025-03-08 20:48:18.550,10.7900,-4.9200,3.8400,-10.0000,127.1875,191.8125,0.0235,-0.5467,0.2120,-0.8097,
2025-03-08 20:48:18.561,10.8200,-5.0000,4.1900,-38.5000,131.4375,219.5625,0.0341,-0.5341,0.2232,-0.8147,
2025-03-08 20:48:18.571,11.2300,-6.3200,4.6000,-40.6875,134.8750,233.6250,0.0450,-0.5209,0.2361,-0.8191,
2025-03-08 20:48:18.580,11.0100,-6.6200,4.7200,-36.3125,137.9375,242.1875,0.0566,-0.5070,0.2496,-0.8231,
2025-03-08 20:48:18.582,10.4100,-6.4600,4.8800,-36.3125,137.9375,242.1875,0.0690,-0.4923,0.2631,-0.8268,
2025-03-08 20:48:18.596,9.9600,-6.3200,5.0100,-28.3125,138.0625,245.2500,0.0818,-0.4772,0.2760,-0.8303,
2025-03-08 20:48:18.611,9.2300,-6.8900,4.7700,-21.3750,134.9375,245.0000,0.0949,-0.4619,0.2881,-0.8334,
2025-03-08 20:48:18.621,8.6800,-6.8500,4.7700,-32.6250,134.3750,253.3750,0.1080,-0.4465,0.3001,-0.8360,
2025-03-08 20:48:18.631,8.3500,-7.2000,4.9100,-38.9375,135.8125,259.2500,0.1213,-0.4307,0.3131,-0.8377,
2025-03-08 20:48:18.631,7.4200,-7.1200,5.3300,-38.9375,135.8125,259.2500,0.1345,-0.4145,0.3266,-0.8387,
2025-03-08 20:48:18.643,7.1800,-6.9400,5.2900,-32.5625,134.5000,258.2500,0.1480,-0.3981,0.3394,-0.8393,
2025-03-08 20:48:18.662,6.8200,-7.2900,5.3200,14.6875,124.8750,245.6875,0.1616,-0.3818,0.3503,-0.8399,
2025-03-08 20:48:18.662,6.5000,-7.6100,5.0300,32.3125,121.1250,241.1875,0.1758,-0.3654,0.3588,-0.8408,
2025-03-08 20:48:18.682,5.9700,-7.3900,4.4900,45.2500,119.1250,238.6250,0.1902,-0.3489,0.3656,-0.8417,
2025-03-08 20:48:18.682,5.7400,-7.3100,4.3000,45.2500,119.1250,238.6250,0.2048,-0.3322,0.3713,-0.8425,
2025-03-08 20:48:18.692,5.4200,-7.4900,4.4400,63.2500,118.5625,236.0625,0.2196,-0.3152,0.3753,-0.8436,
2025-03-08 20:48:18.712,5.3400,-6.8900,3.8900,107.0625,116.2500,238.9375,0.2351,-0.2975,0.3774,-0.8449,
2025-03-08 20:48:18.712,5.3500,-6.3700,3.7400,120.0625,115.5000,230.6875,0.2510,-0.2794,0.3780,-0.8462,
2025-03-08 20:48:18.772,5.1400,-5.8000,3.5600,120.0625,115.5000,230.6875,0.2666,-0.2612,0.3771,-0.8476,
2025-03-08 20:48:18.772,4.4200,-5.1500,3.4900,127.5000,115.5000,216.2500,0.2812,-0.2431,0.3753,-0.8491,
2025-03-08 20:48:18.772,3.2600,-4.6300,2.9200,129.5000,114.2500,203.9375,0.2947,-0.2253,0.3728,-0.8505,
2025-03-08 20:48:18.772,2.5400,-4.1500,2.8300,121.2500,110.7500,193.2500,0.3074,-0.2082,0.3705,-0.8514,
2025-03-08 20:48:18.772,1.9500,-3.8800,2.8600,106.3125,105.6250,185.2500,0.3192,-0.1920,0.3687,-0.8516,
2025-03-08 20:48:18.772,1.0300,-3.0200,3.2400,91.5000,101.2500,181.5000,0.3305,-0.1765,0.3678,-0.8511,
2025-03-08 20:48:18.796,0.2700,-2.0400,3.4700,58.3125,92.8125,165.0000,0.3510,-0.1483,0.3682,-0.8481,
2025-03-08 20:48:18.822,0.1100,-1.6900,3.6100,35.3125,86.9375,149.7500,0.3594,-0.1363,0.3700,-0.8457,
2025-03-08 20:48:18.822,-0.1100,-1.7300,3.5200,17.2500,82.1250,134.9375,0.3666,-0.1257,0.3729,-0.8431,
2025-03-08 20:48:18.843,-0.4300,-1.9000,3.5000,1.9375,79.0000,125.7500,0.3731,-0.1161,0.3765,-0.8400,
2025-03-08 20:48:18.843,-1.1700,-2.6500,3.6200,-19.4375,63.1250,113.2500,0.3845,-0.0998,0.3852,-0.8330,
2025-03-08 20:48:18.873,-1.6900,-3.1200,4.6700,-19.5625,52.7500,105.2500,0.3900,-0.0933,0.3892,-0.8293,
2025-03-08 20:48:18.873,-1.5700,-3.0900,4.9200,-12.0625,41.8125,95.1250,0.3952,-0.0876,0.3922,-0.8261,
2025-03-08 20:48:18.873,-1.7600,-3.4600,5.1000,0.1250,36.0000,81.2500,0.3997,-0.0824,0.3939,-0.8236,
2025-03-08 20:48:18.893,-2.5700,-4.4500,4.9600,23.9375,35.4375,60.6250,0.4065,-0.0718,0.3947,-0.8209,
2025-03-08 20:48:18.913,-2.9100,-4.8700,4.8200,30.2500,30.9375,53.1875,0.4093,-0.0668,0.3940,-0.8202,
2025-03-08 20:48:18.923,-3.0800,-4.9300,4.9100,32.3750,24.0625,49.8125,0.4122,-0.0623,0.3928,-0.8197,
2025-03-08 20:48:18.933,-3.3100,-3.4500,5.1000,28.8125,11.9375,38.5000,0.4173,-0.0554,0.3900,-0.8190,
2025-03-08 20:48:18.943,-3.4900,-3.2300,5.2200,19.0000,10.6875,29.4375,0.4183,-0.0527,0.3892,-0.8190,
2025-03-08 20:48:18.953,-3.5800,-3.3500,5.1100,8.1250,9.3750,21.5000,0.4195,-0.0510,0.3891,-0.8185,
2025-03-08 20:48:18.973,-3.6500,-4.0900,5.1000,-1.3750,8.0000,14.3750,0.4203,-0.0500,0.3895,-0.8180,
2025-03-08 20:48:18.973,-3.6100,-4.8200,5.2000,-8.1250,7.0625,9.1250,0.4207,-0.0496,0.3904,-0.8174,
2025-03-08 20:48:18.983,-3.7300,-5.3300,5.3600,-11.3125,4.2500,5.3125,0.4208,-0.0495,0.3913,-0.8169,
2025-03-08 20:48:18.993,-3.2900,-5.3500,5.1800,-12.6250,-2.1250,4.2500,0.4210,-0.0499,0.3921,-0.8164,
2025-03-08 20:48:19.013,-3.1900,-4.9900,5.2000,-11.7500,-6.8125,1.1875,0.4213,-0.0507,0.3927,-0.8159,
2025-03-08 20:48:19.013,-3.1000,-4.7300,5.2900,-10.3125,-9.2500,-3.8125,0.4213,-0.0519,0.3931,-0.8157,
2025-03-08 20:48:19.023,-2.9300,-4.7500,5.5900,-10.6875,-11.8750,-10.7500,0.4209,-0.0534,0.3934,-0.8156,
2025-03-08 20:48:19.063,-2.8500,-4.8600,5.8500,-12.8750,-15.6875,-18.5625,0.4200,-0.0556,0.3936,-0.8158,
2025-03-08 20:48:19.073,-2.7900,-4.9400,6.0400,-13.6875,-20.3750,-25.0625,0.4182,-0.0580,0.3937,-0.8165,
2025-03-08 20:48:19.073,-2.7800,-4.9900,6.0300,-10.4375,-24.5625,-29.9375,0.4169,-0.0610,0.3935,-0.8171,
2025-03-08 20:48:19.073,-2.7200,-4.9400,5.5800,-4.6875,-27.5000,-32.8750,0.4155,-0.0642,0.3926,-0.8179,
2025-03-08 20:48:19.082,-2.6700,-4.9100,5.3400,1.1250,-28.2500,-35.3125,0.4140,-0.0673,0.3914,-0.8191,
2025-03-08 20:48:19.083,-2.5400,-4.8000,5.1100,5.9375,-28.2500,-38.7500,0.4123,-0.0703,0.3898,-0.8204,
2025-03-08 20:48:19.093,-2.0300,-4.2000,4.8700,7.6875,-29.5000,-44.0000,0.4102,-0.0735,0.3879,-0.8221,
2025-03-08 20:48:19.113,-1.8300,-3.9100,4.9100,4.3125,-32.1875,-50.6250,0.4078,-0.0773,0.3862,-0.8237,
2025-03-08 20:48:19.113,-1.6700,-3.7000,5.0200,-3.1875,-35.8750,-57.6875,0.4049,-0.0817,0.3848,-0.8254,
2025-03-08 20:48:19.123,-1.4800,-3.6600,5.0600,-15.8125,-40.9375,-64.8750,0.4016,-0.0873,0.3840,-0.8268,
2025-03-08 20:48:19.135,-1.4300,-4.3800,5.2900,-30.8750,-44.5625,-72.1875,0.3978,-0.0938,0.3842,-0.8279,
2025-03-08 20:48:19.144,-1.4000,-5.0100,5.1000,-42.8750,-43.8125,-79.1250,0.3933,-0.1008,0.3851,-0.8288,
2025-03-08 20:48:19.154,-1.2800,-5.5500,4.8100,-46.8125,-40.3750,-82.8750,0.3884,-0.1079,0.3862,-0.8297,
2025-03-08 20:48:19.178,-1.0400,-5.7300,4.5500,-43.2500,-38.9375,-83.7500,0.3833,-0.1147,0.3872,-0.8306,
2025-03-08 20:48:19.178,-0.3300,-5.0700,4.4000,-39.3125,-41.3125,-85.3750,0.3783,-0.1217,0.3878,-0.8317,
2025-03-08 20:48:19.186,0.1700,-4.3200,4.6800,-44.0000,-45.3125,-91.1875,0.3729,-0.1293,0.3885,-0.8326,
2025-03-08 20:48:19.205,0.7600,-3.4600,4.9200,-61.0625,-50.1875,-103.1875,0.3666,-0.1381,0.3901,-0.8333,
2025-03-08 20:48:19.205,1.2600,-2.4600,5.2700,-89.8750,-54.7500,-119.9375,0.3589,-0.1487,0.3933,-0.8333,
2025-03-08 20:48:19.217,1.2000,-2.6500,5.3000,-120.9375,-58.3125,-137.3750,0.3496,-0.1610,0.3982,-0.8326,
2025-03-08 20:48:19.226,1.0600,-3.3000,5.1200,-146.0000,-62.0000,-152.0000,0.3389,-0.1748,0.4045,-0.8312,
2025-03-08 20:48:19.237,0.9000,-4.4300,4.8600,-160.6875,-64.3125,-161.6875,0.3273,-0.1894,0.4115,-0.8292,
2025-03-08 20:48:19.246,0.7800,-6.9800,4.4500,-163.9375,-64.3125,-165.9375,0.3153,-0.2042,0.4185,-0.8269,
2025-03-08 20:48:19.258,1.1200,-7.8400,4.4700,-156.8125,-63.8750,-167.0000,0.3031,-0.2186,0.4247,-0.8246,
2025-03-08 20:48:19.268,1.6200,-8.2000,4.6000,-140.2500,-63.0625,-168.1250,0.2910,-0.2326,0.4297,-0.8225,
2025-03-08 20:48:19.277,2.7200,-7.8900,4.6600,-118.4375,-61.6250,-172.8750,0.2789,-0.2460,0.4330,-0.8211,
2025-03-08 20:48:19.287,3.2700,-7.6900,4.4700,-96.2500,-57.1250,-180.9375,0.2664,-0.2588,0.4344,-0.8206,
2025-03-08 20:48:19.297,3.4400,-7.7600,4.1700,-74.0000,-48.6875,-188.4375,0.2534,-0.2708,0.4343,-0.8209,
2025-03-08 20:48:19.308,3.5300,-8.1000,3.7500,-54.6875,-45.5000,-192.6250,0.2404,-0.2821,0.4327,-0.8218,
2025-03-08 20:48:19.321,3.6000,-8.8200,3.3900,-44.5625,-50.0000,-191.0625,0.2279,-0.2935,0.4301,-0.8228,
2025-03-08 20:48:19.328,3.5500,-8.9100,3.5500,-43.6250,-55.1250,-186.5000,0.2158,-0.3049,0.4274,-0.8233,
2025-03-08 20:48:19.370,3.4900,-8.6900,3.6800,-42.1875,-56.8125,-184.2500,0.2040,-0.3162,0.4245,-0.8235,
2025-03-08 20:48:19.380,3.4400,-7.4400,4.0000,-32.6250,-55.3750,-186.1250,0.1921,-0.3272,0.4208,-0.8240,
2025-03-08 20:48:19.380,3.5300,-6.6700,3.8000,-21.5000,-51.8125,-192.9375,0.1799,-0.3380,0.4161,-0.8248,
2025-03-08 20:48:19.380,3.7800,-6.2200,3.3300,-14.6875,-49.3750,-201.8750,0.1671,-0.3487,0.4105,-0.8258,
2025-03-08 20:48:19.380,4.2100,-6.2900,2.6700,-15.2500,-52.6250,-209.7500,0.1538,-0.3598,0.4046,-0.8265,
2025-03-08 20:48:19.380,5.9200,-7.2700,2.3000,-16.5625,-59.5000,-210.3750,0.1407,-0.3713,0.3985,-0.8268,
2025-03-08 20:48:19.390,6.4000,-7.2900,2.8100,-21.1875,-65.2500,-199.1875,0.1282,-0.3828,0.3929,-0.8262,
2025-03-08 20:48:19.410,6.5300,-7.2700,3.4500,-36.8125,-67.3125,-186.1250,0.1163,-0.3940,0.3887,-0.8247,
2025-03-08 20:48:19.410,6.0500,-6.9600,4.0900,-43.3125,-61.5625,-183.0000,0.1041,-0.4047,0.3849,-0.8229,
2025-03-08 20:48:19.421,6.0300,-6.6200,4.3700,-33.1250,-54.1875,-190.8125,0.0915,-0.4148,0.3802,-0.8216,
2025-03-08 20:48:19.441,6.2500,-6.0000,4.1300,-18.4375,-52.5625,-205.8125,0.0782,-0.4252,0.3738,-0.8206,
2025-03-08 20:48:19.451,6.6100,-5.9300,3.4500,-5.8125,-57.0625,-220.8750,0.0645,-0.4361,0.3658,-0.8197,
2025-03-08 20:48:19.451,7.3100,-7.3500,2.5500,1.0625,-66.7500,-226.5625,0.0509,-0.4476,0.3569,-0.8183,
2025-03-08 20:48:19.471,8.0100,-7.7700,2.8200,4.6250,-75.4375,-215.5000,0.0385,-0.4592,0.3481,-0.8164,
2025-03-08 20:48:19.471,8.5200,-7.9800,3.4200,2.6250,-78.6875,-192.3750,0.0276,-0.4702,0.3401,-0.8139,
2025-03-08 20:48:19.481,8.5400,-7.7300,3.8300,6.5625,-76.3750,-176.9375,0.0179,-0.4805,0.3325,-0.8114,
2025-03-08 20:48:19.501,8.2500,-5.6800,3.7800,28.0625,-70.7500,-179.3750,0.0089,-0.4903,0.3230,-0.8094,
2025-03-08 20:48:19.504,8.6700,-4.4200,3.4000,54.9375,-68.9375,-195.5625,-0.0004,-0.5002,0.3110,-0.8081,
2025-03-08 20:48:19.513,9.1700,-3.1800,3.0600,70.8750,-74.0625,-213.6875,-0.0100,-0.5108,0.2971,-0.8067,
2025-03-08 20:48:19.535,9.5300,-1.3500,2.2800,69.3750,-80.3125,-223.4375,-0.0203,-0.5218,0.2828,-0.8046,
2025-03-08 20:48:19.535,9.7900,-1.2000,1.9200,50.5625,-84.6875,-227.3125,-0.0314,-0.5330,0.2694,-0.8015,
2025-03-08 20:48:19.553,10.4000,-1.4100,1.7300,25.2500,-87.0000,-222.2500,-0.0433,-0.5439,0.2578,-0.7974,
2025-03-08 20:48:19.562,11.3800,-1.8000,1.7100,-4.1875,-86.5625,-210.0625,-0.0558,-0.5542,0.2487,-0.7924,
2025-03-08 20:48:19.565,13.5100,-3.7000,2.3800,-29.1875,-83.7500,-193.5000,-0.0684,-0.5637,0.2420,-0.7868,
2025-03-08 20:48:19.574,13.3700,-4.2600,2.9200,-36.3750,-76.5625,-175.9375,-0.0802,-0.5720,0.2365,-0.7813,
2025-03-08 20:48:19.590,12.9100,-4.6300,3.2400,-28.7500,-67.7500,-166.1250,-0.0912,-0.5796,0.2308,-0.7762,
2025-03-08 20:48:19.595,11.5100,-3.8400,3.1700,-12.4375,-60.8750,-168.1875,-0.0912,-0.5796,0.2308,-0.7762,
2025-03-08 20:48:19.606,10.9200,-2.8400,2.8100,2.9375,-57.1875,-170.6250,-0.1015,-0.5867,0.2237,-0.7717,
2025-03-08 20:48:19.616,10.6000,-2.0500,2.4000,3.9375,-57.8125,-169.8125,-0.1212,-0.6004,0.2073,-0.7628,
2025-03-08 20:48:19.625,10.3900,-1.4300,1.6900,-10.7500,-61.6875,-164.3750,-0.1312,-0.6071,0.2003,-0.7577,
2025-03-08 20:48:19.666,10.6100,-0.9500,0.3800,-29.0000,-64.0000,-156.7500,-0.1416,-0.6135,0.1948,-0.7521,
2025-03-08 20:48:19.666,11.0900,-0.6700,0.2200,-39.9375,-61.8125,-148.3750,-0.1416,-0.6135,0.1948,-0.7521,
2025-03-08 20:48:19.666,11.6500,-0.4500,0.3300,-44.1250,-57.3125,-138.0625,-0.1620,-0.6245,0.1865,-0.7409,
2025-03-08 20:48:19.666,11.8800,-0.4200,0.4400,-43.3750,-49.9375,-128.9375,-0.1716,-0.6290,0.1830,-0.7358,
2025-03-08 20:48:19.676,11.4100,-0.4200,0.3800,-44.4375,-40.2500,-123.6875,-0.1810,-0.6328,0.1798,-0.7311,
2025-03-08 20:48:19.687,11.0300,-0.4400,0.2100,-52.1875,-33.8125,-119.8750,-0.1810,-0.6328,0.1798,-0.7311,
2025-03-08 20:48:19.697,10.7600,-0.1600,0.2800,-67.3750,-31.6250,-113.9375,-0.1907,-0.6359,0.1771,-0.7266,
2025-03-08 20:48:19.707,10.4500,-0.5200,0.6300,-86.1250,-31.9375,-107.6875,-0.2007,-0.6384,0.1756,-0.7220,
2025-03-08 20:48:19.717,10.2400,-0.7200,0.9100,-98.1250,-33.0000,-103.3750,-0.2115,-0.6404,0.1756,-0.7171,
2025-03-08 20:48:19.727,9.9600,-1.1300,0.9300,-101.1250,-33.3125,-94.7500,-0.2225,-0.6422,0.1765,-0.7120,
2025-03-08 20:48:19.737,9.7300,-1.4000,0.9800,-100.0625,-30.3750,-85.3125,-0.2332,-0.6436,0.1781,-0.7069,
2025-03-08 20:48:19.747,9.9400,-1.4400,1.0300,-100.5625,-23.0625,-77.8125,-0.2433,-0.6447,0.1800,-0.7020,
2025-03-08 20:48:19.757,10.0600,-1.4600,1.0400,-96.5625,-14.1875,-72.0000,-0.2529,-0.6452,0.1821,-0.6976,
2025-03-08 20:48:19.767,10.1000,-1.6600,1.0500,-81.1875,-6.5625,-63.9375,-0.2622,-0.6450,0.1842,-0.6937,
2025-03-08 20:48:19.777,9.5900,-1.9300,1.1400,-60.0625,-1.0000,-58.3750,-0.2703,-0.6446,0.1856,-0.6907,
2025-03-08 20:48:19.787,9.4000,-2.1100,1.2000,-39.6875,3.3750,-52.5625,-0.2769,-0.6442,0.1859,-0.6883,
2025-03-08 20:48:19.807,9.2000,-1.8600,1.0900,-22.0625,6.5000,-45.3125,-0.2822,-0.6439,0.1853,-0.6866,
2025-03-08 20:48:19.807,8.9800,-1.8900,0.6800,-11.4375,7.5000,-37.5000,-0.2864,-0.6436,0.1842,-0.6855,
2025-03-08 20:48:19.817,9.0200,-1.2300,0.4000,-6.3125,3.3125,-30.2500,-0.2893,-0.6434,0.1827,-0.6848,
2025-03-08 20:48:19.837,9.2700,-0.8800,0.3500,0.1250,-4.5000,-22.6875,-0.2914,-0.6436,0.1813,-0.6841,
2025-03-08 20:48:19.837,9.4700,-0.7400,0.3400,5.8750,-6.1250,-14.2500,-0.2927,-0.6442,0.1802,-0.6833,
2025-03-08 20:48:19.847,9.4700,-0.5000,0.2700,4.5625,-1.8750,-6.4375,-0.2931,-0.6449,0.1792,-0.6827,
2025-03-08 20:48:19.858,9.3300,-0.3700,0.3700,-2.5000,3.8750,-0.6875,-0.2930,-0.6453,0.1785,-0.6826,
2025-03-08 20:48:19.869,9.1800,-0.3800,0.5600,-11.1875,8.2500,3.8125,-0.2932,-0.6450,0.1785,-0.6827,
2025-03-08 20:48:19.884,9.0300,-0.3500,0.7900,-15.0000,9.0625,6.4375,-0.2937,-0.6442,0.1791,-0.6831,
2025-03-08 20:48:19.889,9.0500,-0.2900,1.0800,-11.3750,5.8750,8.6250,-0.2943,-0.6432,0.1801,-0.6835,
2025-03-08 20:48:19.889,9.0800,-0.4300,1.0600,-3.1250,1.2500,9.6875,-0.2945,-0.6425,0.1811,-0.6839,
2025-03-08 20:48:19.905,9.0100,-0.4600,0.9700,7.9375,-2.3125,9.8125,-0.2941,-0.6422,0.1817,-0.6842,
2025-03-08 20:48:19.919,9.0300,0.0000,0.7000,20.1875,-3.4375,10.4375,-0.2930,-0.6423,0.1818,-0.6845,
2025-03-08 20:48:19.930,9.1000,0.3000,0.6100,28.7500,-2.5625,12.1875,-0.2913,-0.6429,0.1813,-0.6848,
2025-03-08 20:48:20.005,9.2200,0.4900,0.5300,31.5000,-1.8750,14.6875,-0.2889,-0.6436,0.1804,-0.6854,
2025-03-08 20:48:20.005,9.2200,0.4900,0.5300,32.2500,-0.5625,17.2500,-0.2864,-0.6442,0.1794,-0.6862,
2025-03-08 20:48:20.005,9.3100,0.6100,0.6100,33.8125,2.3125,19.7500,-0.2835,-0.6447,0.1783,-0.6871,
2025-03-08 20:48:20.005,9.6400,0.3900,0.9100,36.1250,6.1875,22.1875,-0.2806,-0.6451,0.1774,-0.6882,
2025-03-08 20:48:20.005,9.7100,0.1600,0.9500,37.8750,9.7500,23.9375,-0.2774,-0.6453,0.1764,-0.6896,
2025-03-08 20:48:20.005,9.5300,-0.4200,0.8500,39.3750,12.4375,25.0625,-0.2741,-0.6452,0.1752,-0.6913,
2025-03-08 20:48:20.005,9.5300,-0.4200,0.8500,40.3125,14.1250,26.0000,-0.2706,-0.6450,0.1740,-0.6931,
2025-03-08 20:48:20.005,9.4400,-0.6700,0.7500,41.2500,13.3125,27.6875,-0.2670,-0.6448,0.1727,-0.6951,
2025-03-08 20:48:20.020,9.2900,-1.0600,0.6200,44.3750,11.2500,29.9375,-0.2634,-0.6445,0.1715,-0.6970,
2025-03-08 20:48:20.020,9.1300,-1.4000,0.9400,52.0625,10.0625,33.1250,-0.2593,-0.6444,0.1702,-0.6990,
2025-03-08 20:48:20.040,9.1100,-1.6600,1.0300,63.3750,11.3750,37.9375,-0.2547,-0.6444,0.1688,-0.7010,
2025-03-08 20:48:20.040,9.1100,-1.6600,1.0300,63.3750,11.3750,37.9375,-0.2491,-0.6446,0.1668,-0.7033,
2025-03-08 20:48:20.050,9.1500,-1.9800,1.1000,74.5000,15.5000,44.5625,-0.2427,-0.6445,0.1645,-0.7061,
2025-03-08 20:48:20.090,9.4800,-2.4900,1.2500,87.6250,28.0000,67.0000,-0.2352,-0.6442,0.1620,-0.7095,
2025-03-08 20:48:20.090,9.9700,-2.2300,1.3900,84.0625,33.1875,80.3750,-0.2267,-0.6433,0.1599,-0.7136,
2025-03-08 20:48:20.121,10.5900,-1.8100,1.2900,80.7500,35.8125,90.3750,-0.2178,-0.6419,0.1585,-0.7180,
2025-03-08 20:48:20.121,10.5900,-1.8100,1.2900,80.7500,35.8125,90.3750,-0.2084,-0.6399,0.1579,-0.7226,
2025-03-08 20:48:20.121,11.4900,-0.9600,0.9200,85.1875,37.2500,97.5000,-0.1978,-0.6379,0.1568,-0.7276,
2025-03-08 20:48:20.121,11.8100,-1.1800,0.8300,91.1875,42.1250,111.5000,-0.1870,-0.6356,0.1561,-0.7326,
2025-03-08 20:48:20.141,11.7600,-1.6500,1.0100,84.3125,46.8750,118.8125,-0.1757,-0.6329,0.1558,-0.7378,
2025-03-08 20:48:20.141,11.7700,-1.7100,1.7100,69.5000,54.0000,128.7500,-0.1644,-0.6296,0.1562,-0.7430,
2025-03-08 20:48:20.141,11.7700,-1.7100,1.7100,69.5000,54.0000,128.7500,-0.1534,-0.6254,0.1579,-0.7486,
2025-03-08 20:48:20.160,12.1200,-1.5600,1.9900,29.1875,72.5625,152.8750,-0.1431,-0.6191,0.1632,-0.7547,
2025-03-08 20:48:20.160,12.5100,-1.3200,2.0500,14.7500,79.0000,166.5000,-0.1328,-0.6127,0.1685,-0.7607,
2025-03-08 20:48:20.181,13.0900,-2.6900,2.3200,-7.8750,83.8125,188.6875,-0.1224,-0.6053,0.1752,-0.7668,
2025-03-08 20:48:20.190,13.2300,-3.6200,2.6000,-23.4375,86.9375,202.6250,-0.1119,-0.5969,0.1844,-0.7728,
2025-03-08 20:48:20.190,13.1900,-4.2900,3.0000,-23.4375,86.9375,202.6250,-0.1011,-0.5878,0.1954,-0.7786,
2025-03-08 20:48:20.206,13.0500,-4.5500,3.2900,-32.8125,90.6250,218.0000,-0.0899,-0.5778,0.2075,-0.7842,
2025-03-08 20:48:20.221,13.2100,-5.2200,3.5700,-23.2500,90.7500,248.0000,-0.0776,-0.5672,0.2203,-0.7897,
2025-03-08 20:48:20.221,13.6400,-5.6700,3.4200,-14.6875,89.9375,258.6875,-0.0638,-0.5562,0.2331,-0.7951,
2025-03-08 20:48:20.241,13.9900,-6.2000,3.2400,-9.8125,95.0000,263.8750,-0.0489,-0.5449,0.2457,-0.8002,
2025-03-08 20:48:20.241,12.8700,-6.3900,3.3600,-9.8125,95.0000,263.8750,-0.0335,-0.5328,0.2581,-0.8052,
2025-03-08 20:48:20.251,11.6200,-5.8900,3.6700,-5.8125,103.3125,264.0000,-0.0181,-0.5198,0.2700,-0.8103,
2025-03-08 20:48:20.273,10.3600,-5.1100,3.8000,17.8750,112.8125,252.7500,-0.0026,-0.5062,0.2806,-0.8154,
2025-03-08 20:48:20.282,9.4000,-4.4400,3.8600,20.1875,113.4375,248.1250,0.0129,-0.4924,0.2901,-0.8205,
2025-03-08 20:48:20.282,8.1600,-4.5000,3.9600,17.5625,114.6875,244.1875,0.0282,-0.4783,0.2991,-0.8252,
2025-03-08 20:48:20.293,7.9000,-5.1900,4.0500,17.5625,114.6875,244.1875,0.0430,-0.4639,0.3079,-0.8295,
2025-03-08 20:48:20.306,7.6000,-5.8100,4.0900,14.8125,116.6875,242.8125,0.0576,-0.4493,0.3167,-0.8334,
2025-03-08 20:48:20.313,7.1000,-7.0100,4.2700,19.3750,117.3125,242.0000,0.0720,-0.4343,0.3254,-0.8369,
2025-03-08 20:48:20.333,6.7100,-7.3300,4.2400,27.1875,111.6250,241.0000,0.0865,-0.4191,0.3335,-0.8400,
2025-03-08 20:48:20.333,6.1200,-7.1200,4.5200,39.9375,104.2500,238.9375,0.1014,-0.4040,0.3409,-0.8428,
2025-03-08 20:48:20.347,5.7500,-7.0600,4.7800,39.9375,104.2500,238.9375,0.1168,-0.3893,0.3470,-0.8452,
2025-03-08 20:48:20.355,5.3100,-6.6400,4.7900,57.3750,99.3125,235.0625,0.1326,-0.3747,0.3515,-0.8476,
2025-03-08 20:48:20.364,5.1900,-6.6200,4.7500,83.8750,103.7500,228.0625,0.1484,-0.3598,0.3546,-0.8502,
2025-03-08 20:48:20.389,5.1500,-6.6500,4.4800,86.9375,109.4375,226.5625,0.1642,-0.3444,0.3568,-0.8527,
2025-03-08 20:48:20.415,5.6700,-5.6700,4.1700,85.7500,112.3750,223.1250,0.1797,-0.3284,0.3585,-0.8552,
2025-03-08 20:48:20.415,6.3700,-5.7000,4.1300,85.7500,112.3750,223.1250,0.1948,-0.3121,0.3601,-0.8573,
2025-03-08 20:48:20.415,6.5600,-5.3700,3.9400,83.8125,115.0625,216.7500,0.2091,-0.2958,0.3616,-0.8591,
2025-03-08 20:48:20.416,6.4400,-5.7200,3.4700,65.3750,110.0625,201.1875,0.2228,-0.2795,0.3632,-0.8604,
2025-03-08 20:48:20.425,4.8400,-5.1700,3.0100,59.6250,98.5000,192.9375,0.2355,-0.2640,0.3652,-0.8611,
2025-03-08 20:48:20.446,4.2900,-4.8300,3.4200,60.3750,89.0000,178.3125,0.2478,-0.2496,0.3671,-0.8611,
2025-03-08 20:48:20.446,3.6800,-4.0600,3.7200,60.3750,89.0000,178.3125,0.2592,-0.2363,0.3683,-0.8610,
2025-03-08 20:48:20.466,3.1600,-3.4900,3.7600,60.0000,83.2500,164.5625,0.2697,-0.2238,0.3690,-0.8608,
2025-03-08 20:48:20.466,2.6400,-2.9500,3.8600,23.8750,74.0625,122.8750,0.2785,-0.2124,0.3700,-0.8605,
2025-03-08 20:48:20.475,2.3400,-2.5200,4.3300,2.6875,67.0625,111.2500,0.2855,-0.2026,0.3723,-0.8596,
2025-03-08 20:48:20.507,1.9500,-2.2600,4.6000,-11.9375,60.9375,104.5625,0.2915,-0.1941,0.3755,-0.8581,
2025-03-08 20:48:20.507,0.7300,-2.5600,3.3900,-11.9375,60.9375,104.5625,0.2969,-0.1867,0.3796,-0.8561,
2025-03-08 20:48:20.507,0.1200,-2.7400,3.2300,-20.8750,57.5625,94.3750,0.3016,-0.1800,0.3840,-0.8539,
2025-03-08 20:48:20.516,-0.4200,-2.8400,3.3300,-15.2500,57.8125,75.3750,0.3052,-0.1736,0.3883,-0.8520,
2025-03-08 20:48:20.527,-0.7300,-3.2200,3.7900,-15.2500,57.8125,75.3750,0.3085,-0.1674,0.3920,-0.8504,
2025-03-08 20:48:20.542,-0.4300,-4.5700,4.0800,6.8125,44.9375,76.5625,0.3123,-0.1613,0.3945,-0.8490,
2025-03-08 20:48:20.547,-0.1100,-5.2800,3.6300,6.8125,44.9375,76.5625,0.3163,-0.1553,0.3962,-0.8478,
2025-03-08 20:48:20.557,0.0100,-5.5300,3.5900,14.1875,42.4375,75.8750,0.3196,-0.1490,0.3975,-0.8471,
2025-03-08 20:48:20.567,-0.3200,-4.6400,4.1600,19.7500,42.2500,70.5000,0.3234,-0.1431,0.3981,-0.8464,
2025-03-08 20:48:20.588,-0.7700,-3.9600,4.3400,20.0625,41.1875,60.2500,0.3266,-0.1375,0.3985,-0.8459,
2025-03-08 20:48:20.591,-1.2700,-3.6100,4.6000,16.1875,36.2500,48.3125,0.3290,-0.1328,0.3989,-0.8456,
2025-03-08 20:48:20.609,-1.7800,-4.7800,4.9800,8.1875,23.5625,31.7500,0.3322,-0.1259,0.3998,-0.8450,
2025-03-08 20:48:20.619,-1.8000,-5.4500,5.0000,8.2500,18.7500,28.5625,0.3337,-0.1234,0.4000,-0.8446,
2025-03-08 20:48:20.629,-1.7300,-5.9200,4.8600,11.1875,14.8125,30.0625,0.3355,-0.1210,0.4000,-0.8443,
2025-03-08 20:48:20.639,-1.7000,-5.6800,5.0900,12.0000,11.5625,30.8750,0.3373,-0.1188,0.3997,-0.8440,
2025-03-08 20:48:20.649,-1.7700,-4.6000,5.0800,16.5625,10.6250,15.7500,0.3399,-0.1149,0.3986,-0.8440,
2025-03-08 20:48:20.669,-1.8800,-4.4100,5.0500,15.6250,9.1250,4.3750,0.3401,-0.1136,0.3978,-0.8445,
2025-03-08 20:48:20.689,-2.0400,-4.5700,5.3800,11.3750,5.2500,-3.6250,0.3397,-0.1131,0.3970,-0.8451,
2025-03-08 20:48:20.709,-2.0000,-4.8400,5.5800,6.2500,0.9375,-7.8125,0.3392,-0.1131,0.3965,-0.8455,
2025-03-08 20:48:20.709,-1.7600,-5.6500,5.3900,-1.4375,-6.6250,-10.1875,0.3382,-0.1144,0.3960,-0.8460,
2025-03-08 20:48:20.720,-1.7100,-5.6800,5.3500,-4.5625,-10.7500,-12.5000,0.3376,-0.1157,0.3959,-0.8461,
2025-03-08 20:48:20.740,-1.6000,-5.2400,5.2400,-7.6250,-14.5000,-23.8750,0.3355,-0.1195,0.3957,-0.8465,
2025-03-08 20:48:20.749,-1.4800,-4.8000,5.0900,-11.1875,-17.3125,-40.0000,0.3306,-0.1246,0.3956,-0.8477,
2025-03-08 20:48:20.769,-1.3800,-4.8200,5.1700,-12.5625,-20.2500,-46.3750,0.3278,-0.1279,0.3955,-0.8484,
2025-03-08 20:48:20.780,-1.2700,-4.9900,5.3100,-13.1875,-23.8750,-51.3125,0.3248,-0.1317,0.3952,-0.8491,
2025-03-08 20:48:20.790,-0.9000,-5.3000,5.1500,-14.1875,-28.5000,-53.1875,0.3218,-0.1359,0.3948,-0.8498,
2025-03-08 20:48:20.808,-0.7100,-5.3900,4.9400,-13.8750,-31.4375,-53.5625,0.3188,-0.1404,0.3943,-0.8504,
2025-03-08 20:48:20.820,-0.2400,-4.8200,4.4500,-17.5625,-36.3750,-60.6250,0.3118,-0.1498,0.3934,-0.8518,
2025-03-08 20:48:20.830,-0.0900,-4.3700,4.4100,-22.5625,-39.5000,-68.7500,0.3078,-0.1556,0.3932,-0.8523,
2025-03-08 20:48:20.840,0.0700,-3.9900,4.5100,-28.6875,-43.3125,-77.9375,0.3033,-0.1620,0.3931,-0.8528,
2025-03-08 20:48:20.850,0.2400,-3.7800,4.6600,-36.0000,-47.3750,-86.6875,0.2981,-0.1692,0.3932,-0.8531,
2025-03-08 20:48:20.860,0.5300,-4.2000,4.9100,-44.6875,-51.1875,-94.0625,0.2924,-0.1772,0.3938,-0.8532,
2025-03-08 20:48:20.870,0.5400,-4.8600,4.9100,-54.2500,-54.1250,-99.7500,0.2862,-0.1857,0.3948,-0.8530,
2025-03-08 20:48:20.880,0.5800,-5.7500,4.7100,-63.5625,-56.6875,-103.2500,0.2796,-0.1948,0.3964,-0.8525,
2025-03-08 20:48:20.890,0.5400,-7.3800,4.4200,-67.6875,-57.8125,-104.5000,0.2729,-0.2040,0.3982,-0.8517,
2025-03-08 20:48:20.890,0.5100,-7.6300,4.4000,-62.8125,-57.0625,-105.0625,0.2662,-0.2131,0.3995,-0.8510,
2025-03-08 20:48:20.910,0.6700,-7.2500,4.4100,-51.8750,-56.6250,-108.6875,0.2594,-0.2220,0.4000,-0.8505,
2025-03-08 20:48:20.910,0.9200,-6.4900,4.5400,-41.3125,-57.3125,-116.8125,0.2521,-0.2310,0.3995,-0.8506,
2025-03-08 20:48:20.930,1.7300,-5.2300,4.8800,-35.5000,-59.1875,-127.5000,0.2443,-0.2403,0.3983,-0.8509,
2025-03-08 20:48:20.940,2.2200,-5.0900,5.0600,-36.3125,-62.3750,-137.8125,0.2357,-0.2501,0.3968,-0.8511,
2025-03-08 20:48:20.940,2.8700,-5.2600,4.9200,-44.8750,-66.3125,-147.6875,0.2264,-0.2607,0.3955,-0.8511,
2025-03-08 20:48:20.960,3.4700,-6.4500,4.2900,-58.8750,-69.7500,-155.2500,0.2162,-0.2720,0.3950,-0.8505,
2025-03-08 20:48:21.008,3.3900,-7.1500,4.0500,-66.4375,-71.6875,-157.8125,0.2057,-0.2836,0.3947,-0.8494,
2025-03-08 20:48:21.008,3.1900,-7.6200,4.1000,-59.6875,-71.8750,-154.5000,0.1956,-0.2949,0.3941,-0.8482,
2025-03-08 20:48:21.008,3.1100,-7.7400,4.2800,-41.1250,-71.5000,-149.6250,0.1862,-0.3057,0.3920,-0.8475,
2025-03-08 20:48:21.008,3.2800,-6.9000,4.3700,-16.9375,-71.1250,-152.0000,0.1772,-0.3160,0.3882,-0.8474,
2025-03-08 20:48:21.008,3.6700,-6.1900,4.4800,5.9375,-71.0000,-163.1250,0.1683,-0.3265,0.3821,-0.8480,
2025-03-08 20:48:21.011,4.2700,-5.6100,4.5500,15.3125,-71.8125,-173.8750,0.1585,-0.3370,0.3752,-0.8488,
2025-03-08 20:48:21.032,5.4600,-5.2800,4.2400,6.0625,-74.5625,-179.3750,0.1482,-0.3479,0.3686,-0.8492,
2025-03-08 20:48:21.032,5.8100,-5.5400,3.9000,-10.0625,-78.0625,-178.1875,0.1375,-0.3591,0.3630,-0.8487,
2025-03-08 20:48:21.044,5.9100,-5.9600,3.6100,-24.4375,-82.1250,-171.3750,0.1270,-0.3705,0.3586,-0.8473,
2025-03-08 20:48:21.065,5.7400,-6.3100,3.6100,-34.2500,-85.2500,-163.9375,0.1168,-0.3819,0.3550,-0.8453,
2025-03-08 20:48:21.065,5.3400,-6.2900,3.9500,-33.8750,-83.9375,-162.6250,0.1066,-0.3931,0.3513,-0.8431,
2025-03-08 20:48:21.073,5.4000,-5.7100,4.1900,-23.3750,-80.4375,-172.5000,0.0959,-0.4041,0.3464,-0.8411,
2025-03-08 20:48:21.093,5.7800,-5.0000,4.4600,-12.5000,-81.2500,-187.7500,0.0845,-0.4153,0.3402,-0.8394,
2025-03-08 20:48:21.095,7.2800,-4.7700,3.3300,-11.1875,-89.2500,-196.5625,0.0727,-0.4274,0.3334,-0.8372,
2025-03-08 20:48:21.107,8.0300,-5.5300,2.4600,-21.1250,-99.3750,-194.8125,0.0610,-0.4399,0.3272,-0.8341,
2025-03-08 20:48:21.115,8.4400,-6.4000,1.9200,-33.8750,-103.9375,-186.1875,0.0494,-0.4525,0.3221,-0.8301,
2025-03-08 20:48:21.134,8.4800,-7.0000,1.9100,-47.5000,-107.5000,-171.7500,0.0385,-0.4649,0.3184,-0.8253,
2025-03-08 20:48:21.135,8.9300,-7.3500,3.2100,-58.1250,-109.7500,-155.7500,0.0283,-0.4768,0.3159,-0.8198,
2025-03-08 20:48:21.147,9.3500,-6.9700,3.6800,-51.4375,-104.5625,-150.8125,0.0186,-0.4882,0.3131,-0.8144,
2025-03-08 20:48:21.156,9.6500,-5.9600,3.9000,-32.6250,-96.8750,-156.8750,0.0091,-0.4990,0.3087,-0.8097,
2025-03-08 20:48:21.165,9.7700,-4.6300,3.8300,-22.5625,-93.0625,-167.8125,-0.0009,-0.5097,0.3030,-0.8053,
2025-03-08 20:48:21.209,9.8300,-2.6000,2.7900,-27.8125,-92.8750,-178.0000,-0.0118,-0.5205,0.2972,-0.8004,
2025-03-08 20:48:21.209,9.8600,-2.4200,1.9700,-42.8125,-93.7500,-185.8125,-0.0239,-0.5313,0.2920,-0.7949,
2025-03-08 20:48:21.209,9.7900,-3.2600,1.4700,-60.8750,-97.0000,-186.6875,-0.0368,-0.5422,0.2878,-0.7885,
2025-03-08 20:48:21.218,10.3800,-6.7100,2.9800,-77.1875,-98.5625,-176.8750,-0.0497,-0.5528,0.2851,-0.7814,
2025-03-08 20:48:21.218,10.6900,-7.6600,3.6900,-78.5000,-95.9375,-162.4375,-0.0618,-0.5626,0.2831,-0.7743,
2025-03-08 20:48:21.228,10.6700,-7.7300,3.9600,-65.3125,-87.8125,-156.1250,-0.0730,-0.5717,0.2803,-0.7676,
2025-03-08 20:48:21.238,10.4700,-7.2700,3.6800,-44.5625,-77.5625,-158.3750,-0.0836,-0.5801,0.2761,-0.7618,
2025-03-08 20:48:21.238,10.4000,-5.9100,2.0100,-25.6250,-69.7500,-161.0625,-0.0936,-0.5881,0.2703,-0.7565,
2025-03-08 20:48:21.250,10.5600,-4.7900,1.2700,-17.1875,-65.2500,-159.5000,-0.1031,-0.5957,0.2639,-0.7516,
2025-03-08 20:48:21.310,10.6600,-3.8700,0.9200,-17.0625,-63.7500,-154.0000,-0.1123,-0.6030,0.2578,-0.7465,
2025-03-08 20:48:21.310,10.6700,-2.7100,0.3200,-18.1250,-62.1875,-146.1250,-0.1211,-0.6099,0.2521,-0.7415,
2025-03-08 20:48:21.310,10.6900,-2.7300,0.2400,-19.7500,-59.5000,-137.2500,-0.1295,-0.6163,0.2468,-0.7366,
2025-03-08 20:48:21.310,10.7500,-2.7600,0.2700,-23.3750,-55.5000,-128.5000,-0.1374,-0.6221,0.2422,-0.7317,
2025-03-08 20:48:21.310,10.8300,-2.7600,0.3700,-29.5000,-48.6875,-119.0000,-0.1448,-0.6274,0.2377,-0.7273,
2025-03-08 20:48:21.310,10.5700,-2.2000,0.5300,-38.6875,-40.3125,-108.6250,-0.1527,-0.6315,0.2349,-0.7230,
2025-03-08 20:48:21.332,10.4200,-1.6600,0.5100,-51.1875,-32.8750,-99.8125,-0.1608,-0.6348,0.2331,-0.7189,
2025-03-08 20:48:21.341,10.4300,-1.5500,0.4400,-64.4375,-27.1250,-93.3125,-0.1694,-0.6374,0.2324,-0.7149,
2025-03-08 20:48:21.341,10.3300,-1.5900,0.2600,-74.3750,-24.0000,-87.1875,-0.1782,-0.6395,0.2325,-0.7108,
2025-03-08 20:48:21.373,10.2400,-1.7600,0.3800,-79.4375,-21.4375,-83.6875,-0.1869,-0.6412,0.2329,-0.7069,
2025-03-08 20:48:21.373,10.3400,-2.0700,0.5100,-79.7500,-19.7500,-80.1250,-0.1956,-0.6427,0.2336,-0.7029,
2025-03-08 20:48:21.374,10.2700,-2.1300,0.5200,-79.6875,-18.1250,-75.9375,-0.2040,-0.6439,0.2344,-0.6991,
2025-03-08 20:48:21.409,10.1600,-2.7700,0.3900,-76.3750,-14.4375,-69.3125,-0.2120,-0.6448,0.2354,-0.6956,
2025-03-08 20:48:21.409,9.9200,-2.7400,0.4600,-72.0625,-9.8125,-65.3750,-0.2196,-0.6454,0.2363,-0.6924,
2025-03-08 20:48:21.413,9.8900,-2.9100,0.4400,-66.5000,-6.6875,-57.3750,-0.2268,-0.6455,0.2375,-0.6895,
2025-03-08 20:48:21.414,9.7100,-2.6000,0.3900,-60.7500,-3.9375,-52.1875,-0.2331,-0.6457,0.2383,-0.6870,
2025-03-08 20:48:21.433,9.4000,-2.2000,0.4000,-53.3125,-0.5625,-45.0000,-0.2386,-0.6455,0.2390,-0.6851,
2025-03-08 20:48:21.433,9.2300,-1.9400,0.4000,-43.1875,1.4375,-38.8125,-0.2432,-0.6453,0.2393,-0.6835,
2025-03-08 20:48:21.443,9.1700,-1.7700,0.3200,-33.1875,2.5625,-33.3750,-0.2470,-0.6452,0.2393,-0.6823,
2025-03-08 20:48:21.454,9.0800,-1.5600,0.0500,-23.6875,3.1875,-28.0625,-0.2470,-0.6452,0.2393,-0.6823,
2025-03-08 20:48:21.464,9.1600,-1.6300,-0.0400,-17.0625,2.5625,-23.6875,-0.2504,-0.6449,0.2395,-0.6812,
2025-03-08 20:48:21.484,9.3000,-1.6000,-0.1200,-12.9375,1.3125,-19.3750,-0.2546,-0.6449,0.2388,-0.6799,
2025-03-08 20:48:21.495,9.3800,-1.4000,-0.0700,-11.3750,1.7500,-15.3125,-0.2562,-0.6448,0.2386,-0.6794,
2025-03-08 20:48:21.495,9.3400,-1.2100,-0.0400,-12.6875,2.8750,-11.4375,-0.2576,-0.6447,0.2386,-0.6791,
2025-03-08 20:48:21.509,9.2300,-1.1900,-0.0500,-12.8125,4.3125,-8.6250,-0.2576,-0.6447,0.2386,-0.6791,
2025-03-08 20:48:21.517,9.1500,-1.1600,-0.0400,-14.1250,3.9375,-5.9375,-0.2588,-0.6443,0.2388,-0.6789,
2025-03-08 20:48:21.526,9.0900,-1.2400,-0.0600,-14.5625,1.6875,-3.4375,-0.2600,-0.6439,0.2391,-0.6787,
2025-03-08 20:48:21.540,9.1700,-1.1900,0.0000,-12.8125,-0.0625,-1.3125,-0.2610,-0.6435,0.2397,-0.6784,
2025-03-08 20:48:21.547,9.2500,-1.1300,0.1600,-10.1875,-0.6875,0.8750,-0.2618,-0.6433,0.2404,-0.6781,
2025-03-08 20:48:21.556,9.3500,-1.0200,0.2400,-4.6875,-1.3125,2.5625,-0.2623,-0.6431,0.2411,-0.6779,
2025-03-08 20:48:21.566,9.6100,-0.5800,0.1700,1.3750,-1.9375,4.1250,-0.2610,-0.6429,0.2430,-0.6779,
2025-03-08 20:48:21.609,9.6500,-0.3400,0.0300,5.4375,-2.1250,5.0000,-0.2607,-0.6430,0.2432,-0.6779,
2025-03-08 20:48:21.614,9.5700,-0.2500,-0.0800,6.5000,-1.3125,5.1250,-0.2601,-0.6431,0.2432,-0.6780,
2025-03-08 20:48:21.614,9.3900,-0.4300,-0.2700,4.8750,-0.3125,5.0625,-0.2594,-0.6432,0.2432,-0.6782,
2025-03-08 20:48:21.614,9.3400,-0.5000,-0.2400,2.6875,-0.5000,5.0000,-0.2589,-0.6432,0.2432,-0.6784,
2025-03-08 20:48:21.618,9.3100,-0.5000,-0.1900,2.5625,-2.9375,5.0625,-0.2584,-0.6431,0.2433,-0.6785,
2025-03-08 20:48:21.629,9.3900,-0.4700,-0.1100,4.9375,-5.8125,5.3125,-0.2579,-0.6432,0.2435,-0.6785,
2025-03-08 20:48:21.640,9.5600,-0.3200,-0.0200,7.8125,-7.8125,5.5625,-0.2572,-0.6436,0.2437,-0.6784,
2025-03-08 20:48:21.640,9.5300,-0.2900,0.0000,8.8750,-7.5000,6.0000,-0.2563,-0.6441,0.2437,-0.6783,
2025-03-08 20:48:21.659,9.4200,-0.2800,0.0600,8.3750,-5.1875,6.6250,-0.2549,-0.6449,0.2440,-0.6779,
2025-03-08 20:48:21.659,9.3000,-0.3800,0.1000,7.8750,-3.7500,6.6875,-0.2535,-0.6455,0.2441,-0.6778,
2025-03-08 20:48:21.679,9.3200,-0.4400,0.0300,7.7500,-4.1875,6.3125,-0.2524,-0.6459,0.2444,-0.6777,
2025-03-08 20:48:21.689,9.4500,-0.4200,-0.0100,9.2500,-6.3125,6.3125,-0.2512,-0.6464,0.2446,-0.6777,
2025-03-08 20:48:21.699,9.5800,-0.3600,0.0000,10.7500,-7.4375,7.3750,-0.2500,-0.6469,0.2449,-0.6775,
2025-03-08 20:48:21.709,9.8300,-0.1100,0.1100,11.2500,-7.6250,8.1875,-0.2486,-0.6476,0.2451,-0.6774,
2025-03-08 20:48:21.719,9.8400,-0.0300,0.2300,10.8750,-7.1875,8.3125,-0.2472,-0.6482,0.2451,-0.6773,
2025-03-08 20:48:21.729,9.8300,-0.0200,0.3300,10.3125,-6.0000,6.7500,-0.2460,-0.6487,0.2451,-0.6772,
2025-03-08 20:48:21.739,9.8200,-0.2500,0.4000,10.5625,-5.0000,5.1250,-0.2449,-0.6491,0.2449,-0.6773,
2025-03-08 20:48:21.759,9.8200,-0.4800,0.4000,12.9375,-3.1875,3.5625,-0.2439,-0.6495,0.2448,-0.6773,
2025-03-08 20:48:21.759,9.8200,-0.4800,0.4000,18.5000,-0.8750,2.8125,-0.2429,-0.6499,0.2443,-0.6775,
2025-03-08 20:48:21.759,9.8400,-0.7400,0.3500,23.3125,2.0000,2.6875,-0.2417,-0.6502,0.2433,-0.6779,
2025-03-08 20:48:21.779,9.6600,-0.6600,0.2600,24.0000,4.5000,2.1875,-0.2403,-0.6506,0.2421,-0.6785,
2025-03-08 20:48:21.790,9.6300,-0.5100,0.3700,22.0000,5.9375,1.5000,-0.2389,-0.6507,0.2408,-0.6793,
2025-03-08 20:48:21.800,9.6500,-0.3200,0.5100,20.6875,6.6250,0.5625,-0.2378,-0.6508,0.2395,-0.6801,
2025-03-08 20:48:21.810,9.6500,-0.3200,0.5100,21.5625,7.6875,-0.3750,-0.2368,-0.6508,0.2382,-0.6809,
2025-03-08 20:48:21.810,9.6500,-0.1200,0.6500,22.9375,9.5625,-1.4375,-0.2357,-0.6508,0.2367,-0.6818,
2025-03-08 20:48:21.831,9.8700,-0.5300,0.2200,21.9375,12.6875,-2.6875,-0.2347,-0.6508,0.2351,-0.6828,
2025-03-08 20:48:21.840,9.7600,-1.0800,0.1100,17.2500,16.0000,-3.3750,-0.2339,-0.6505,0.2335,-0.6838,
2025-03-08 20:48:21.850,9.2100,-1.7700,0.1000,14.5625,17.9375,-3.2500,-0.2335,-0.6500,0.2319,-0.6850,
2025-03-08 20:48:21.852,9.2100,-1.7700,0.1000,14.5625,17.9375,-3.2500,-0.2332,-0.6493,0.2306,-0.6862,
2025-03-08 20:48:21.871,9.0500,-1.7700,0.1700,17.0000,18.0625,-1.2500,-0.2327,-0.6486,0.2292,-0.6874,
2025-03-08 20:48:21.901,9.3800,-1.4200,0.0800,22.7500,14.5625,6.5625,-0.2318,-0.6480,0.2278,-0.6888,
2025-03-08 20:48:21.910,9.7400,-1.2100,0.1500,22.6250,15.4375,10.8125,-0.2305,-0.6475,0.2266,-0.6901,
2025-03-08 20:48:21.910,9.8400,-1.2000,0.0000,21.8750,18.0000,14.1875,-0.2289,-0.6468,0.2255,-0.6916,
2025-03-08 20:48:21.910,9.8400,-1.2000,0.0000,21.8750,18.0000,14.1875,-0.2272,-0.6459,0.2247,-0.6933,
2025-03-08 20:48:21.914,9.8000,-1.3600,0.1500,19.6875,21.2500,17.3750,-0.2255,-0.6447,0.2241,-0.6952,
2025-03-08 20:48:21.933,9.7800,-1.6900,0.3200,22.0625,19.1875,21.0625,-0.2238,-0.6434,0.2236,-0.6971,
2025-03-08 20:48:21.933,9.9700,-1.5400,0.2800,27.4375,14.8750,23.0625,-0.2217,-0.6422,0.2231,-0.6990,
2025-03-08 20:48:21.943,10.2300,-1.2300,0.0600,30.6875,12.8750,24.3125,-0.2192,-0.6414,0.2225,-0.7007,
2025-03-08 20:48:21.963,10.2300,-1.2300,0.0600,30.6875,12.8750,24.3125,-0.2163,-0.6408,0.2217,-0.7024,
2025-03-08 20:48:21.963,10.2500,-0.3200,-0.2700,30.5000,11.8125,23.6250,-0.2131,-0.6403,0.2207,-0.7042,
2025-03-08 20:48:21.973,9.6200,0.2300,0.0100,23.0000,12.6875,22.8125,-0.2106,-0.6396,0.2202,-0.7058,
2025-03-08 20:48:21.984,9.6200,0.2300,0.0100,22.3750,10.6875,21.8750,-0.2082,-0.6388,0.2198,-0.7073,
2025-03-08 20:48:21.996,8.7500,0.4200,0.4300,22.4375,6.9375,20.6250,-0.2059,-0.6382,0.2194,-0.7087,
2025-03-08 20:48:22.004,8.4000,0.4200,0.5200,22.4375,6.9375,20.6250,-0.2035,-0.6377,0.2191,-0.7098,
2025-03-08 20:48:22.020,8.1800,0.4000,0.4500,20.2500,1.6250,19.1875,-0.2012,-0.6377,0.2188,-0.7106,
2025-03-08 20:48:22.026,8.0500,0.4100,0.4400,11.4375,-6.5625,14.6250,-0.1993,-0.6378,0.2188,-0.7111,
