A1,,,,,,,,,,,
time,accx,accy,accz,gyrox,gyroy,gyroz,w1,w2,w3,w4,
2025-03-07 13:03:05.721,9.8400,-0.2300,-0.0400,-0.1875,0.2500,0.8750,-0.6666,0.2427,-0.6689,-0.2223,
2025-03-07 13:03:05.740,9.8200,-0.2600,-0.0300,-0.0625,0.0625,0.9375,-0.6665,0.2427,-0.6689,-0.2222,
2025-03-07 13:03:05.744,9.8200,-0.2600,-0.0300,0.1875,0.1250,1.0625,-0.6665,0.2428,-0.6689,-0.2222,
2025-03-07 13:03:05.748,9.7900,-0.2400,-0.0100,0.6250,0.0000,1.0625,-0.6665,0.2429,-0.6689,-0.2222,
2025-03-07 13:03:05.757,9.7700,-0.2200,-0.0400,1.0625,-0.1250,1.2500,-0.6664,0.2429,-0.6690,-0.2220,
2025-03-07 13:03:05.780,9.7400,-0.1400,-0.0400,1.4375,-0.1250,1.1875,-0.6665,0.2429,-0.6690,-0.2219,
2025-03-07 13:03:05.781,9.7100,-0.1400,-0.0300,1.5625,-0.2500,1.3125,-0.6665,0.2429,-0.6691,-0.2217,
2025-03-07 13:03:05.836,9.7100,-0.1400,-0.0300,1.5625,-0.2500,1.3125,-0.6665,0.2429,-0.6691,-0.2216,
2025-03-07 13:03:05.837,9.7200,-0.1400,-0.0500,1.4375,-0.3125,1.3750,-0.6665,0.2429,-0.6692,-0.2214,
2025-03-07 13:03:05.837,9.7300,-0.1500,-0.0400,0.6875,0.0000,1.6250,-0.6664,0.2429,-0.6692,-0.2213,
2025-03-07 13:03:05.839,9.7300,-0.1700,-0.0400,0.8125,-0.1875,1.7500,-0.6664,0.2429,-0.6693,-0.2211,
2025-03-07 13:03:05.839,9.7600,-0.1600,-0.0500,0.5625,-0.1250,1.7500,-0.6664,0.2430,-0.6693,-0.2210,
2025-03-07 13:03:05.839,9.7600,-0.1600,-0.0500,0.5625,-0.1250,1.7500,-0.6664,0.2430,-0.6694,-0.2209,
2025-03-07 13:03:05.847,9.8100,-0.2400,-0.0300,0.6250,-0.3125,1.8750,-0.6663,0.2432,-0.6694,-0.2208,
2025-03-07 13:03:05.864,9.8900,-0.2900,-0.0400,0.5625,-0.3125,1.8125,-0.6663,0.2432,-0.6694,-0.2206,
2025-03-07 13:03:05.867,9.8500,-0.3200,-0.0200,0.7500,-0.0625,1.8750,-0.6663,0.2433,-0.6695,-0.2206,
2025-03-07 13:03:05.919,9.8200,-0.2900,0.0000,1.1875,-0.3125,1.7500,-0.6662,0.2434,-0.6695,-0.2204,
2025-03-07 13:03:05.919,9.8200,-0.2900,0.0000,1.1875,-0.3125,1.7500,-0.6662,0.2434,-0.6696,-0.2203,
2025-03-07 13:03:05.919,9.7700,-0.2700,-0.0200,1.5625,-0.4375,1.5625,-0.6662,0.2434,-0.6697,-0.2201,
2025-03-07 13:03:05.919,9.7600,-0.2300,-0.0100,1.4375,-0.3750,1.5000,-0.6662,0.2435,-0.6697,-0.2199,
2025-03-07 13:03:05.919,9.7700,-0.4200,-0.0300,1.5000,0.0000,1.2500,-0.6662,0.2435,-0.6698,-0.2197,
2025-03-07 13:03:05.933,9.7700,-0.4200,-0.0300,2.0000,0.1250,1.0000,-0.6662,0.2434,-0.6699,-0.2195,
2025-03-07 13:03:05.945,9.7900,-0.4800,-0.0200,2.0000,0.1250,1.0000,-0.6662,0.2433,-0.6699,-0.2194,
2025-03-07 13:03:05.945,9.7300,-0.4600,-0.0400,3.0000,-0.0625,0.3750,-0.6663,0.2432,-0.6700,-0.2192,
2025-03-07 13:03:05.959,9.7600,-0.4600,0.0000,5.8125,-0.3750,-0.6250,-0.6664,0.2429,-0.6701,-0.2189,
2025-03-07 13:03:05.982,9.7300,-0.4500,0.0000,6.8750,-0.2500,-1.0625,-0.6665,0.2426,-0.6702,-0.2187,
2025-03-07 13:03:06.010,9.7100,-0.4600,0.0400,7.6875,-0.1875,-1.3750,-0.6666,0.2421,-0.6703,-0.2183,
2025-03-07 13:03:06.010,9.6500,-0.4200,0.0500,7.6875,-0.1875,-1.3750,-0.6668,0.2416,-0.6704,-0.2180,
2025-03-07 13:03:06.015,9.6200,-0.3600,0.0100,8.6875,-0.2500,-1.8750,-0.6670,0.2410,-0.6705,-0.2176,
2025-03-07 13:03:06.015,9.6200,-0.3000,-0.0200,10.5625,-0.6250,-2.5625,-0.6672,0.2403,-0.6707,-0.2172,
2025-03-07 13:03:06.018,9.6200,-0.2300,-0.0900,11.0625,-0.6250,-2.8750,-0.6675,0.2396,-0.6708,-0.2167,
2025-03-07 13:03:06.039,9.6400,-0.2200,-0.1500,10.9375,-0.7500,-3.0625,-0.6678,0.2388,-0.6710,-0.2162,
2025-03-07 13:03:06.039,9.6700,-0.2000,-0.1700,10.9375,-0.7500,-3.0625,-0.6682,0.2380,-0.6711,-0.2158,
2025-03-07 13:03:06.046,9.6800,-0.2200,-0.1700,10.5625,-0.5000,-3.3750,-0.6684,0.2372,-0.6713,-0.2154,
2025-03-07 13:03:06.064,9.7000,-0.1700,-0.1500,9.9375,-0.6875,-3.6250,-0.6686,0.2365,-0.6714,-0.2150,
2025-03-07 13:03:06.092,9.7200,-0.1300,-0.1300,9.6250,-1.3125,-3.5000,-0.6689,0.2357,-0.6715,-0.2147,
2025-03-07 13:03:06.092,9.6800,-0.0900,-0.0600,9.5000,-2.2500,-3.1875,-0.6693,0.2349,-0.6715,-0.2143,
2025-03-07 13:03:06.092,9.7500,0.0200,-0.0400,9.5000,-2.2500,-3.1875,-0.6696,0.2343,-0.6715,-0.2139,
2025-03-07 13:03:06.097,9.8100,0.0700,-0.0600,9.3750,-3.3125,-2.5625,-0.6701,0.2336,-0.6714,-0.2135,
2025-03-07 13:03:06.109,9.8600,0.0800,-0.0600,8.3125,-4.1875,-1.1250,-0.6705,0.2329,-0.6713,-0.2131,
2025-03-07 13:03:06.118,9.8900,0.1200,-0.0700,7.4375,-3.3125,-0.7500,-0.6710,0.2323,-0.6712,-0.2128,
2025-03-07 13:03:06.127,9.8600,0.1200,-0.0600,6.2500,-2.5000,-0.6875,-0.6714,0.2318,-0.6711,-0.2125,
2025-03-07 13:03:06.137,9.8200,0.1400,-0.0700,6.2500,-2.5000,-0.6875,-0.6717,0.2313,-0.6710,-0.2123,
2025-03-07 13:03:06.184,9.8000,0.1100,-0.0700,4.3125,-1.5000,-1.0000,-0.6719,0.2308,-0.6710,-0.2122,
2025-03-07 13:03:06.184,9.8000,-0.0100,-0.0900,0.7500,-0.8125,-0.7500,-0.6720,0.2305,-0.6710,-0.2123,
2025-03-07 13:03:06.187,9.7900,-0.0400,-0.1100,0.0000,-1.6250,-0.3125,-0.6721,0.2303,-0.6709,-0.2123,
2025-03-07 13:03:06.187,9.8400,-0.0700,-0.1400,-0.5625,-2.6250,0.6875,-0.6722,0.2303,-0.6708,-0.2123,
2025-03-07 13:03:06.188,9.9000,-0.0700,-0.1700,-0.5625,-2.6250,0.6875,-0.6724,0.2303,-0.6706,-0.2123,
2025-03-07 13:03:06.195,9.9800,-0.1000,-0.2000,-0.3750,-3.5000,1.5625,-0.6726,0.2305,-0.6704,-0.2122,
2025-03-07 13:03:06.209,10.0200,-0.1200,-0.1800,0.6875,-3.0625,2.3125,-0.6728,0.2307,-0.6702,-0.2120,
2025-03-07 13:03:06.218,10.0000,-0.1300,-0.1700,0.7500,-1.6875,2.2500,-0.6730,0.2308,-0.6701,-0.2118,
2025-03-07 13:03:06.227,9.8700,-0.1900,-0.0500,0.5000,-0.2500,2.0000,-0.6730,0.2309,-0.6700,-0.2116,
2025-03-07 13:03:06.274,9.8200,-0.2300,-0.0400,0.5000,-0.2500,2.0000,-0.6730,0.2310,-0.6701,-0.2115,
2025-03-07 13:03:06.274,9.8100,-0.2500,-0.0600,0.3125,0.3125,1.6875,-0.6730,0.2311,-0.6701,-0.2114,
2025-03-07 13:03:06.275,9.8100,-0.2700,-0.1400,0.4375,0.8125,1.4375,-0.6729,0.2311,-0.6702,-0.2113,
2025-03-07 13:03:06.275,9.7300,-0.3100,-0.2200,1.0000,0.6875,1.5625,-0.6728,0.2313,-0.6702,-0.2112,
2025-03-07 13:03:06.278,9.7300,-0.3200,-0.2600,2.1250,0.3750,1.5000,-0.6728,0.2313,-0.6703,-0.2111,
2025-03-07 13:03:06.288,9.7200,-0.3300,-0.2500,2.1250,0.3750,1.5000,-0.6728,0.2313,-0.6704,-0.2109,
2025-03-07 13:03:06.297,9.7000,-0.3600,-0.2500,3.5625,0.3125,1.3750,-0.6728,0.2311,-0.6705,-0.2106,
2025-03-07 13:03:06.307,9.6300,-0.3200,-0.1800,5.8750,0.4375,1.0625,-0.6729,0.2310,-0.6705,-0.2103,
2025-03-07 13:03:06.318,9.6500,-0.2900,-0.1700,7.3750,0.0000,1.0625,-0.6730,0.2307,-0.6707,-0.2098,
2025-03-07 13:03:06.365,9.6500,-0.2300,-0.1400,8.1875,-0.8125,1.4375,-0.6731,0.2304,-0.6708,-0.2094,
2025-03-07 13:03:06.370,9.7400,0.0300,-0.1500,8.1875,-0.8125,1.4375,-0.6733,0.2299,-0.6710,-0.2088,
2025-03-07 13:03:06.370,9.8400,0.0900,-0.1300,7.8750,-1.7500,2.0000,-0.6735,0.2296,-0.6711,-0.2082,
2025-03-07 13:03:06.370,9.9100,0.1300,-0.1500,5.4375,-1.8750,2.6875,-0.6737,0.2294,-0.6711,-0.2076,
2025-03-07 13:03:06.372,9.9600,0.1400,-0.1200,3.9375,-0.6875,2.5000,-0.6739,0.2293,-0.6711,-0.2071,
2025-03-07 13:03:06.378,9.9400,0.0000,-0.0700,2.2500,0.6875,1.5625,-0.6739,0.2292,-0.6712,-0.2067,
2025-03-07 13:03:06.387,9.9200,-0.0200,-0.0800,2.2500,0.6875,1.5625,-0.6739,0.2292,-0.6713,-0.2065,
2025-03-07 13:03:06.390,9.8600,-0.0900,-0.1100,0.6875,1.8125,0.5000,-0.6738,0.2291,-0.6714,-0.2066,
2025-03-07 13:03:06.401,9.7800,-0.2100,-0.1600,-1.9375,2.5625,-0.7500,-0.6737,0.2290,-0.6715,-0.2068,
2025-03-07 13:03:06.422,9.7900,-0.2700,-0.2200,-2.1250,2.1250,-0.8125,-0.6735,0.2291,-0.6716,-0.2070,
2025-03-07 13:03:06.456,9.8100,-0.3100,-0.2800,-2.0000,1.3750,-0.8750,-0.6734,0.2291,-0.6717,-0.2072,
2025-03-07 13:03:06.456,9.8500,-0.3200,-0.2600,-2.0000,1.3750,-0.8750,-0.6733,0.2291,-0.6717,-0.2074,
2025-03-07 13:03:06.456,9.8100,-0.3200,-0.2500,-1.4375,0.6875,-0.6875,-0.6732,0.2291,-0.6717,-0.2075,
2025-03-07 13:03:06.456,9.8400,-0.3000,-0.2000,-0.4375,-1.0625,-0.7500,-0.6732,0.2292,-0.6717,-0.2076,
2025-03-07 13:03:06.467,9.8300,-0.3000,-0.1600,-0.3125,-1.1250,-0.8125,-0.6733,0.2291,-0.6716,-0.2076,
2025-03-07 13:03:06.477,9.8800,-0.2900,0.0200,-0.6875,-0.5625,-1.0625,-0.6734,0.2291,-0.6715,-0.2076,
2025-03-07 13:03:06.487,9.8600,-0.2600,0.0800,-0.6875,-0.5625,-1.0625,-0.6734,0.2291,-0.6715,-0.2078,
2025-03-07 13:03:06.487,9.8200,-0.2400,0.1300,-1.2500,0.2500,-1.6875,-0.6734,0.2291,-0.6714,-0.2079,
2025-03-07 13:03:06.544,9.7800,-0.2600,0.1000,-2.0000,1.0625,-2.3750,-0.6734,0.2291,-0.6714,-0.2082,
2025-03-07 13:03:06.545,9.7000,-0.2900,0.0000,-1.6875,0.8125,-2.3125,-0.6733,0.2290,-0.6714,-0.2084,
2025-03-07 13:03:06.545,9.6700,-0.3100,0.0000,-1.0000,0.4375,-2.0000,-0.6733,0.2289,-0.6713,-0.2087,
2025-03-07 13:03:06.547,9.6900,-0.3300,-0.0500,-1.0000,0.4375,-2.0000,-0.6733,0.2289,-0.6713,-0.2089,
2025-03-07 13:03:06.547,9.7300,-0.3800,-0.1000,0.0000,0.3750,-2.0000,-0.6733,0.2288,-0.6713,-0.2090,
2025-03-07 13:03:06.555,9.7800,-0.4200,-0.1300,0.8750,0.1875,-1.4375,-0.6734,0.2287,-0.6713,-0.2090,
2025-03-07 13:03:06.567,9.8000,-0.3900,-0.0900,3.1250,0.2500,-0.6250,-0.6734,0.2286,-0.6713,-0.2089,
2025-03-07 13:03:06.578,9.7900,-0.3400,-0.0400,4.1250,0.6250,-0.6250,-0.6734,0.2284,-0.6714,-0.2087,
2025-03-07 13:03:06.586,9.7800,-0.2600,0.0500,4.1250,0.6250,-0.6250,-0.6735,0.2281,-0.6715,-0.2086,
2025-03-07 13:03:06.637,9.7900,-0.2000,0.0700,5.0625,0.8750,-0.4375,-0.6735,0.2278,-0.6717,-0.2082,
2025-03-07 13:03:06.637,9.7900,-0.1700,0.0800,5.6875,1.0625,-0.3125,-0.6735,0.2274,-0.6719,-0.2079,
2025-03-07 13:03:06.637,9.7600,-0.1200,0.0800,6.8125,1.1875,0.0000,-0.6735,0.2270,-0.6721,-0.2076,
2025-03-07 13:03:06.637,9.7800,-0.0900,0.0700,6.9375,1.2500,0.1250,-0.6735,0.2266,-0.6723,-0.2073,
2025-03-07 13:03:06.637,9.7600,-0.0700,0.0300,6.9375,1.2500,0.1250,-0.6736,0.2261,-0.6726,-0.2070,
2025-03-07 13:03:06.649,9.8000,-0.0300,-0.0500,6.8750,1.1875,0.3125,-0.6736,0.2256,-0.6728,-0.2067,
2025-03-07 13:03:06.654,9.8000,0.0600,-0.1800,6.3750,1.1250,0.7500,-0.6736,0.2252,-0.6730,-0.2064,
2025-03-07 13:03:06.665,9.8000,0.0500,-0.2300,3.9375,0.8750,1.2500,-0.6737,0.2249,-0.6731,-0.2061,
2025-03-07 13:03:06.675,9.7800,0.0700,-0.2200,2.3125,0.8750,1.5000,-0.6738,0.2247,-0.6731,-0.2059,
2025-03-07 13:03:06.719,9.7400,0.0300,-0.2100,2.3125,0.8750,1.5000,-0.6738,0.2245,-0.6732,-0.2058,
2025-03-07 13:03:06.724,9.7200,0.0000,-0.2200,0.6250,0.9375,1.4375,-0.6738,0.2244,-0.6732,-0.2058,
2025-03-07 13:03:06.724,9.6900,-0.0300,-0.1800,-0.8125,0.8750,1.6250,-0.6738,0.2245,-0.6732,-0.2058,
2025-03-07 13:03:06.724,9.6900,-0.0800,-0.1900,-2.6250,-0.0625,1.8125,-0.6738,0.2247,-0.6732,-0.2059,
2025-03-07 13:03:06.728,9.7100,-0.1900,-0.2000,-2.8750,-0.4375,1.8750,-0.6738,0.2249,-0.6731,-0.2059,
2025-03-07 13:03:06.738,9.7300,-0.1800,-0.1700,-2.8750,-0.4375,1.8750,-0.6737,0.2252,-0.6731,-0.2060,
2025-03-07 13:03:06.752,9.7300,-0.2200,-0.2000,-2.8125,-0.6250,1.6875,-0.6737,0.2255,-0.6730,-0.2061,
2025-03-07 13:03:06.753,9.7400,-0.2400,-0.1700,-2.5625,-1.0000,1.8125,-0.6736,0.2257,-0.6729,-0.2061,
2025-03-07 13:03:06.764,9.7600,-0.2500,-0.1700,-2.5000,-0.2500,1.5625,-0.6736,0.2260,-0.6729,-0.2061,
2025-03-07 13:03:06.786,9.7900,-0.3000,-0.1600,-2.5625,-0.1250,1.4375,-0.6735,0.2262,-0.6728,-0.2062,
2025-03-07 13:03:06.819,9.7700,-0.3300,-0.1200,-2.5625,-0.1250,1.4375,-0.6735,0.2264,-0.6728,-0.2062,
2025-03-07 13:03:06.819,9.8000,-0.3800,-0.0900,-2.5625,0.0625,1.3125,-0.6734,0.2266,-0.6727,-0.2063,
2025-03-07 13:03:06.819,9.7900,-0.3800,-0.1200,-2.2500,-0.1875,1.1875,-0.6733,0.2269,-0.6727,-0.2064,
2025-03-07 13:03:06.819,9.8000,-0.3600,-0.1100,-1.5000,-0.6250,0.9375,-0.6733,0.2271,-0.6727,-0.2064,
2025-03-07 13:03:06.828,9.8000,-0.3900,-0.1000,-1.1250,-0.8750,1.0000,-0.6733,0.2272,-0.6727,-0.2064,
2025-03-07 13:03:06.916,9.8300,-0.3600,-0.0500,-0.0625,-0.9375,1.0625,-0.6733,0.2275,-0.6726,-0.2063,
2025-03-07 13:03:06.916,9.8700,-0.3700,-0.0700,0.5625,-0.7500,1.1875,-0.6733,0.2276,-0.6725,-0.2062,
2025-03-07 13:03:06.916,9.8900,-0.2600,0.0000,1.7500,0.0625,1.5000,-0.6733,0.2277,-0.6726,-0.2060,
2025-03-07 13:03:06.916,9.8400,-0.2100,-0.0100,1.5000,0.4375,1.3750,-0.6733,0.2276,-0.6727,-0.2056,
2025-03-07 13:03:06.916,9.8000,-0.1800,-0.0800,1.4375,0.6875,1.5000,-0.6733,0.2276,-0.6728,-0.2055,
2025-03-07 13:03:06.916,9.8100,-0.1800,-0.0900,0.8750,1.0625,1.8125,-0.6732,0.2276,-0.6729,-0.2054,
2025-03-07 13:03:06.951,9.7900,-0.1800,-0.1100,0.6875,1.1875,1.6875,-0.6730,0.2277,-0.6731,-0.2051,
2025-03-07 13:03:06.951,9.8100,-0.2000,-0.1300,0.6250,1.3125,1.6250,-0.6730,0.2277,-0.6732,-0.2051,
2025-03-07 13:03:06.973,9.8000,-0.2600,-0.1000,0.3125,1.5000,1.4375,-0.6728,0.2277,-0.6733,-0.2050,
2025-03-07 13:03:06.973,9.7900,-0.2900,-0.1200,0.2500,1.7500,1.5000,-0.6727,0.2278,-0.6735,-0.2050,
2025-03-07 13:03:06.973,9.8000,-0.3700,-0.0600,0.4375,1.8750,1.1250,-0.6726,0.2278,-0.6736,-0.2050,
2025-03-07 13:03:07.013,9.8100,-0.4100,-0.0300,0.8125,1.8750,0.7500,-0.6723,0.2278,-0.6739,-0.2048,
2025-03-07 13:03:07.018,9.7900,-0.4500,-0.0500,1.3125,2.0625,0.6250,-0.6722,0.2277,-0.6740,-0.2048,
2025-03-07 13:03:07.018,9.7400,-0.4100,-0.0500,2.2500,1.8750,0.3750,-0.6722,0.2276,-0.6742,-0.2046,
2025-03-07 13:03:07.029,9.7300,-0.3300,-0.0500,3.0000,1.5625,0.1250,-0.6721,0.2274,-0.6743,-0.2045,
2025-03-07 13:03:07.050,9.6900,-0.2900,-0.0300,4.0000,0.8125,0.1875,-0.6721,0.2269,-0.6746,-0.2041,
2025-03-07 13:03:07.050,9.6800,-0.2600,-0.0800,4.1250,0.5625,0.5000,-0.6722,0.2267,-0.6747,-0.2039,
2025-03-07 13:03:07.095,9.6700,-0.2100,-0.1400,4.2500,0.0625,0.8125,-0.6722,0.2265,-0.6748,-0.2036,
2025-03-07 13:03:07.099,9.7000,-0.1100,-0.1000,3.5625,-0.3750,0.4375,-0.6724,0.2261,-0.6749,-0.2031,
2025-03-07 13:03:07.099,9.7100,-0.1000,-0.0800,2.8125,-0.3750,0.4375,-0.6725,0.2258,-0.6749,-0.2030,
2025-03-07 13:03:07.128,9.7600,-0.1200,-0.0500,2.1875,-0.0625,0.5000,-0.6725,0.2257,-0.6750,-0.2029,
2025-03-07 13:03:07.128,9.7600,-0.2400,-0.0100,1.5000,0.2500,0.5000,-0.6726,0.2256,-0.6750,-0.2029,
2025-03-07 13:03:07.170,9.7500,-0.2600,-0.0400,1.3750,0.4375,1.1250,-0.6725,0.2255,-0.6751,-0.2026,
2025-03-07 13:03:07.172,9.7900,-0.2400,-0.0300,1.5625,0.4375,1.3125,-0.6726,0.2255,-0.6751,-0.2025,
2025-03-07 13:03:07.172,9.8000,-0.2900,-0.0500,0.9375,0.8125,1.6875,-0.6725,0.2255,-0.6752,-0.2023,
2025-03-07 13:03:07.172,9.8100,-0.3700,-0.0400,0.1250,0.9375,2.1250,-0.6724,0.2256,-0.6753,-0.2022,
2025-03-07 13:03:07.182,9.8300,-0.4500,-0.0200,-0.4375,1.3125,2.5000,-0.6723,0.2258,-0.6754,-0.2021,
2025-03-07 13:03:07.192,9.8700,-0.4900,-0.0400,-0.2500,1.8750,3.5625,-0.6719,0.2261,-0.6758,-0.2018,
2025-03-07 13:03:07.212,9.8500,-0.4900,-0.0300,0.8750,1.4375,3.9375,-0.6718,0.2263,-0.6759,-0.2015,
2025-03-07 13:03:07.212,9.8300,-0.4400,-0.0400,2.1875,1.0000,3.9375,-0.6717,0.2264,-0.6761,-0.2012,
2025-03-07 13:03:07.259,9.7900,-0.3400,0.0200,4.4375,0.1250,3.3750,-0.6716,0.2263,-0.6764,-0.2003,
2025-03-07 13:03:07.259,9.7900,-0.2500,0.0200,4.3750,0.0000,3.2500,-0.6716,0.2263,-0.6766,-0.1998,
2025-03-07 13:03:07.259,9.7700,-0.2400,0.0000,4.3750,0.0000,3.2500,-0.6717,0.2262,-0.6767,-0.1994,
2025-03-07 13:03:07.269,9.7700,-0.2600,-0.0100,2.8125,0.0000,2.6875,-0.6716,0.2261,-0.6768,-0.1991,
2025-03-07 13:03:07.269,9.7500,-0.2900,0.0200,2.0625,0.2500,2.6250,-0.6716,0.2262,-0.6769,-0.1988,
2025-03-07 13:03:07.289,9.7300,-0.3500,0.0300,1.6875,0.3750,2.4375,-0.6716,0.2262,-0.6770,-0.1986,
2025-03-07 13:03:07.296,9.7200,-0.4000,0.0300,1.8750,0.2500,2.5625,-0.6716,0.2263,-0.6771,-0.1984,
2025-03-07 13:03:07.357,9.7300,-0.3800,0.0200,2.4375,0.0625,2.5625,-0.6716,0.2263,-0.6772,-0.1981,
2025-03-07 13:03:07.357,9.7200,-0.3500,-0.0100,2.9375,-0.0625,2.3125,-0.6716,0.2262,-0.6773,-0.1978,
2025-03-07 13:03:07.358,9.7000,-0.3300,-0.0500,3.7500,-0.5000,1.7500,-0.6716,0.2260,-0.6775,-0.1972,
2025-03-07 13:03:07.358,9.7000,-0.3200,-0.0600,3.6250,-0.8750,1.6875,-0.6717,0.2259,-0.6775,-0.1968,
2025-03-07 13:03:07.358,9.7100,-0.3400,-0.0500,3.5625,-1.1250,1.5000,-0.6718,0.2258,-0.6775,-0.1965,
2025-03-07 13:03:07.368,9.7200,-0.3300,-0.0900,3.5000,-1.1250,1.1875,-0.6719,0.2257,-0.6776,-0.1963,
2025-03-07 13:03:07.386,9.7900,-0.3000,-0.0500,2.4375,-0.7500,0.8750,-0.6721,0.2255,-0.6776,-0.1959,
2025-03-07 13:03:07.397,9.8400,-0.3200,-0.0500,1.9375,-0.7500,0.7500,-0.6721,0.2254,-0.6776,-0.1957,
2025-03-07 13:03:07.445,9.8400,-0.3300,-0.0400,1.5000,-0.8750,0.5000,-0.6722,0.2253,-0.6775,-0.1956,
2025-03-07 13:03:07.445,9.8400,-0.3200,-0.0500,1.0625,-0.7500,0.5000,-0.6723,0.2253,-0.6775,-0.1955,
2025-03-07 13:03:07.445,9.8500,-0.3100,-0.0500,1.1875,-1.0000,0.1250,-0.6724,0.2252,-0.6775,-0.1954,
2025-03-07 13:03:07.445,9.8300,-0.3100,-0.0500,1.1250,-1.0000,-0.0625,-0.6724,0.2252,-0.6775,-0.1954,
2025-03-07 13:03:07.445,9.8000,-0.3000,-0.0600,0.8750,-0.8125,-0.1250,-0.6725,0.2251,-0.6774,-0.1953,
2025-03-07 13:03:07.459,9.7900,-0.3100,-0.0400,0.4375,-0.6250,-0.3125,-0.6726,0.2251,-0.6774,-0.1953,
2025-03-07 13:03:07.468,9.7500,-0.3000,-0.0600,0.0000,-0.4375,-0.3750,-0.6726,0.2251,-0.6774,-0.1953,
2025-03-07 13:03:07.481,9.7600,-0.3300,-0.0700,-0.5000,-0.4375,-0.3125,-0.6726,0.2250,-0.6774,-0.1953,
2025-03-07 13:03:07.488,9.7300,-0.3500,-0.0900,-0.7500,-0.3750,-0.4375,-0.6726,0.2251,-0.6774,-0.1954,
2025-03-07 13:03:07.529,9.7500,-0.3400,-0.0500,-0.8125,-0.3750,-0.3750,-0.6725,0.2252,-0.6774,-0.1954,
2025-03-07 13:03:07.529,9.7600,-0.3400,-0.0900,-1.0000,-0.1875,-0.3125,-0.6726,0.2252,-0.6773,-0.1955,
2025-03-07 13:03:07.529,9.7700,-0.3600,-0.0800,-1.1250,-0.3750,-0.1875,-0.6725,0.2252,-0.6773,-0.1956,
2025-03-07 13:03:07.529,9.7800,-0.3700,-0.0600,-1.5000,-0.2500,-0.3125,-0.6725,0.2253,-0.6773,-0.1957,
2025-03-07 13:03:07.532,9.7900,-0.3900,-0.0400,-1.6250,-0.3750,-0.1250,-0.6725,0.2254,-0.6772,-0.1957,
2025-03-07 13:03:07.543,9.7800,-0.4200,-0.0500,-1.5625,-0.3750,-0.1250,-0.6724,0.2255,-0.6772,-0.1959,
2025-03-07 13:03:07.557,9.7700,-0.4200,-0.0200,-1.3750,-0.5625,0.0000,-0.6724,0.2256,-0.6772,-0.1959,
2025-03-07 13:03:07.571,9.7700,-0.4200,-0.0600,-1.0000,-0.4375,0.1250,-0.6724,0.2256,-0.6772,-0.1960,
2025-03-07 13:03:07.578,9.8100,-0.4100,-0.0300,-0.4375,-0.5000,0.3125,-0.6724,0.2256,-0.6772,-0.1960,
2025-03-07 13:03:07.590,9.8100,-0.3800,-0.0500,-0.1875,-0.5000,0.3750,-0.6724,0.2256,-0.6772,-0.1960,
2025-03-07 13:03:07.598,9.8000,-0.3700,-0.0500,0.0000,-0.5625,0.4375,-0.6724,0.2256,-0.6772,-0.1960,
2025-03-07 13:03:07.600,9.8300,-0.3500,-0.0600,0.0000,-0.5625,0.5625,-0.6724,0.2256,-0.6772,-0.1960,
2025-03-07 13:03:07.664,9.8300,-0.3600,-0.0700,-0.1250,-0.3750,0.6875,-0.6724,0.2257,-0.6772,-0.1959,
2025-03-07 13:03:07.664,9.8300,-0.3800,-0.0500,-0.3750,-0.3750,0.5625,-0.6724,0.2257,-0.6772,-0.1960,
2025-03-07 13:03:07.664,9.8100,-0.3800,-0.0500,-0.5000,-0.3750,0.5625,-0.6724,0.2257,-0.6772,-0.1960,
2025-03-07 13:03:07.664,9.7700,-0.4000,-0.0500,-0.3750,-0.5625,0.4375,-0.6724,0.2257,-0.6772,-0.1960,
2025-03-07 13:03:07.675,9.7700,-0.3800,-0.0500,-0.3125,-0.5000,0.4375,-0.6724,0.2257,-0.6772,-0.1960,
2025-03-07 13:03:07.675,9.7300,-0.4000,-0.0800,-0.3750,-0.4375,0.3750,-0.6724,0.2257,-0.6772,-0.1960,
2025-03-07 13:03:07.675,9.7200,-0.4100,-0.1000,-0.3750,-0.5000,0.3750,-0.6724,0.2257,-0.6772,-0.1960,
2025-03-07 13:03:07.686,9.7200,-0.4100,-0.0900,-0.4375,-0.3125,0.3125,-0.6724,0.2257,-0.6772,-0.1960,
2025-03-07 13:03:07.698,9.7200,-0.4500,-0.0700,-0.4375,-0.3750,0.2500,-0.6724,0.2257,-0.6772,-0.1960,
2025-03-07 13:03:07.710,9.7300,-0.4500,-0.0600,-0.4375,-0.3125,0.0000,-0.6724,0.2257,-0.6772,-0.1960,
2025-03-07 13:03:07.722,9.7800,-0.4900,-0.0800,-0.3125,-0.4375,0.0000,-0.6724,0.2257,-0.6772,-0.1959,
2025-03-07 13:03:07.722,9.7700,-0.5000,-0.0400,0.1875,-0.6875,-0.1875,-0.6724,0.2257,-0.6771,-0.1959,
2025-03-07 13:03:07.732,9.7600,-0.4500,-0.0300,1.0000,-0.9375,-0.3125,-0.6725,0.2256,-0.6771,-0.1959,
2025-03-07 13:03:07.745,9.7600,-0.3300,-0.0700,1.5000,-0.8750,-0.5000,-0.6726,0.2256,-0.6771,-0.1957,
2025-03-07 13:03:07.757,9.7800,-0.3000,-0.0800,1.3750,-0.8125,-0.7500,-0.6727,0.2255,-0.6771,-0.1957,
2025-03-07 13:03:07.776,9.8000,-0.3300,-0.0700,0.7500,-0.5000,-0.8125,-0.6727,0.2254,-0.6771,-0.1957,
2025-03-07 13:03:07.778,9.8100,-0.3700,-0.0600,0.1875,-0.1875,-0.8750,-0.6727,0.2253,-0.6770,-0.1957,
2025-03-07 13:03:07.785,9.8600,-0.3800,-0.0900,-0.3750,0.0000,-0.8125,-0.6727,0.2253,-0.6770,-0.1958,
2025-03-07 13:03:07.798,9.8600,-0.3000,-0.0800,-0.8125,-0.4375,-0.7500,-0.6727,0.2253,-0.6770,-0.1959,
2025-03-07 13:03:07.808,9.8500,-0.3100,-0.1300,-1.1875,-0.6875,-0.6875,-0.6727,0.2253,-0.6769,-0.1960,
2025-03-07 13:03:07.817,9.8600,-0.2900,-0.1300,-1.5625,-0.7500,-0.6250,-0.6728,0.2254,-0.6768,-0.1961,
2025-03-07 13:03:07.828,9.8200,-0.3600,-0.0700,-1.7500,-0.6250,-0.5625,-0.6728,0.2255,-0.6768,-0.1962,
2025-03-07 13:03:07.840,9.7900,-0.4000,-0.0400,-1.7500,-0.2500,-0.3125,-0.6728,0.2256,-0.6767,-0.1963,
2025-03-07 13:03:07.846,9.7800,-0.3800,-0.0500,-1.5000,-0.1875,-0.1250,-0.6727,0.2257,-0.6767,-0.1964,
2025-03-07 13:03:07.856,9.7400,-0.3800,-0.0500,-1.2500,0.0000,0.0000,-0.6727,0.2258,-0.6767,-0.1965,
2025-03-07 13:03:07.870,9.7500,-0.4000,-0.0900,-1.1250,-0.0625,0.0625,-0.6727,0.2258,-0.6767,-0.1965,
2025-03-07 13:03:07.875,9.7500,-0.3900,-0.0900,-1.2500,0.0000,0.0000,-0.6727,0.2259,-0.6766,-0.1966,
2025-03-07 13:03:07.886,9.7200,-0.4100,-0.0700,-1.0625,-0.3125,0.0000,-0.6727,0.2259,-0.6766,-0.1967,
2025-03-07 13:03:07.897,9.7200,-0.3800,-0.1300,-0.8750,-0.3125,0.0625,-0.6727,0.2260,-0.6766,-0.1967,
2025-03-07 13:03:07.929,9.7300,-0.3600,-0.1300,-0.6875,-0.3125,0.1250,-0.6726,0.2261,-0.6766,-0.1967,
2025-03-07 13:03:07.929,9.7400,-0.3900,-0.1300,-0.3750,-0.3750,0.2500,-0.6726,0.2261,-0.6766,-0.1967,
2025-03-07 13:03:07.929,9.7400,-0.3800,-0.0900,-0.1250,-0.2500,0.3125,-0.6726,0.2261,-0.6766,-0.1967,
2025-03-07 13:03:07.936,9.7700,-0.4000,-0.0900,0.0625,-0.3125,0.5625,-0.6726,0.2261,-0.6766,-0.1967,
2025-03-07 13:03:07.941,9.7800,-0.3900,-0.0900,0.2500,-0.5000,0.4375,-0.6726,0.2261,-0.6766,-0.1967,
2025-03-07 13:03:07.954,9.7900,-0.3600,-0.0900,0.5000,-0.3750,0.5000,-0.6726,0.2261,-0.6766,-0.1967,
2025-03-07 13:03:07.971,9.7800,-0.3300,-0.1000,0.3750,-0.4375,0.4375,-0.6726,0.2261,-0.6766,-0.1967,
2025-03-07 13:03:07.989,9.8100,-0.3400,-0.0900,0.1875,-0.5000,-0.0625,-0.6726,0.2261,-0.6766,-0.1967,
2025-03-07 13:03:07.989,9.8400,-0.3800,-0.0900,-0.3125,-0.4375,0.0000,-0.6726,0.2261,-0.6766,-0.1967,
2025-03-07 13:03:07.998,9.8100,-0.4500,-0.0600,-0.4375,-0.1875,-0.2500,-0.6726,0.2261,-0.6766,-0.1967,
2025-03-07 13:03:08.007,9.7900,-0.4500,-0.0700,-0.4375,-0.1875,-0.5000,-0.6726,0.2261,-0.6766,-0.1967,
2025-03-07 13:03:08.030,9.7700,-0.4700,-0.1000,-0.2500,-0.5000,-0.5625,-0.6726,0.2261,-0.6766,-0.1967,
2025-03-07 13:03:08.030,9.7900,-0.4400,-0.1000,0.0000,-0.4375,-0.7500,-0.6727,0.2260,-0.6766,-0.1968,
2025-03-07 13:03:08.030,9.7700,-0.4300,-0.1100,0.1875,-0.8125,-0.8750,-0.6727,0.2259,-0.6765,-0.1968,
2025-03-07 13:03:08.048,9.7500,-0.3900,-0.1000,0.3125,-0.7500,-1.0625,-0.6728,0.2259,-0.6764,-0.1968,
2025-03-07 13:03:08.058,9.7200,-0.4000,-0.1000,0.5000,-0.4375,-1.0000,-0.6728,0.2259,-0.6764,-0.1969,
2025-03-07 13:03:08.106,9.7300,-0.3800,-0.1100,0.3125,-0.2500,-1.1875,-0.6728,0.2258,-0.6764,-0.1970,
2025-03-07 13:03:08.106,9.7300,-0.3700,-0.1200,0.4375,-0.4375,-1.1250,-0.6728,0.2258,-0.6764,-0.1971,
2025-03-07 13:03:08.106,9.7500,-0.3800,-0.0900,0.3750,-0.4375,-1.1875,-0.6728,0.2256,-0.6764,-0.1971,
2025-03-07 13:03:08.115,9.7600,-0.3500,-0.1000,0.4375,-0.6250,-0.9375,-0.6729,0.2256,-0.6763,-0.1971,
2025-03-07 13:03:08.115,9.8100,-0.3300,-0.1200,0.3125,-0.5625,-0.9375,-0.6729,0.2256,-0.6763,-0.1972,
2025-03-07 13:03:08.118,9.8100,-0.3400,-0.1200,0.1250,-0.3125,-0.7500,-0.6730,0.2255,-0.6763,-0.1973,
2025-03-07 13:03:08.137,9.8100,-0.3500,-0.1200,0.0625,-0.3125,-0.5625,-0.6730,0.2255,-0.6763,-0.1973,
2025-03-07 13:03:08.137,9.8100,-0.3300,-0.0500,-0.1250,-0.1875,-0.5000,-0.6730,0.2255,-0.6763,-0.1973,
2025-03-07 13:03:08.151,9.8300,-0.3500,-0.0500,-0.3750,-0.2500,-0.2500,-0.6730,0.2255,-0.6763,-0.1973,
2025-03-07 13:03:08.161,9.8400,-0.3500,-0.0700,-0.4375,-0.0625,0.0625,-0.6730,0.2255,-0.6763,-0.1973,
2025-03-07 13:03:08.168,9.8400,-0.3800,-0.0700,-0.3750,0.0625,0.1875,-0.6730,0.2255,-0.6763,-0.1973,
2025-03-07 13:03:08.236,9.8200,-0.3800,-0.0600,-0.0625,0.2500,0.4375,-0.6730,0.2255,-0.6763,-0.1973,
2025-03-07 13:03:08.236,9.8400,-0.3900,-0.0500,0.1250,0.2500,0.4375,-0.6730,0.2255,-0.6763,-0.1973,
2025-03-07 13:03:08.247,9.8400,-0.3800,-0.0700,0.3750,0.3125,0.4375,-0.6730,0.2255,-0.6763,-0.1973,
2025-03-07 13:03:08.247,9.8200,-0.3600,-0.1000,0.3750,0.1875,0.4375,-0.6730,0.2255,-0.6763,-0.1973,
2025-03-07 13:03:08.247,9.7900,-0.3900,-0.0800,0.1875,0.3125,0.5000,-0.6730,0.2255,-0.6763,-0.1973,
2025-03-07 13:03:08.248,9.7800,-0.3600,-0.1000,0.3125,0.2500,0.4375,-0.6730,0.2255,-0.6763,-0.1973,
2025-03-07 13:03:08.248,9.7700,-0.3900,-0.0800,0.3750,0.0625,0.2500,-0.6730,0.2255,-0.6763,-0.1973,
2025-03-07 13:03:08.248,9.7400,-0.3700,-0.0900,0.5000,0.0625,0.4375,-0.6730,0.2255,-0.6763,-0.1973,
2025-03-07 13:03:08.263,9.7300,-0.3700,-0.1000,0.5000,0.0000,0.3750,-0.6730,0.2255,-0.6763,-0.1973,
2025-03-07 13:03:08.268,9.7000,-0.3400,-0.1400,0.5625,0.1250,0.3750,-0.6730,0.2255,-0.6763,-0.1973,
2025-03-07 13:03:08.282,9.7100,-0.3400,-0.1300,0.5000,0.1875,0.0625,-0.6730,0.2255,-0.6763,-0.1973,
2025-03-07 13:03:08.282,9.7200,-0.3300,-0.1000,0.5625,0.1875,0.0625,-0.6730,0.2255,-0.6763,-0.1973,
2025-03-07 13:03:08.291,9.7400,-0.3400,-0.1400,0.0000,0.1250,0.0000,-0.6730,0.2255,-0.6763,-0.1973,
2025-03-07 13:03:08.302,9.7800,-0.3800,-0.0900,-0.6250,0.2500,-0.2500,-0.6729,0.2256,-0.6763,-0.1973,
2025-03-07 13:03:08.348,9.8400,-0.4500,-0.0500,-0.8750,0.1250,-0.2500,-0.6729,0.2256,-0.6763,-0.1973,
2025-03-07 13:03:08.348,9.8400,-0.4400,-0.0500,-0.6250,0.0000,-0.2500,-0.6729,0.2256,-0.6763,-0.1974,
2025-03-07 13:03:08.348,9.8100,-0.3800,-0.0300,-0.0625,-0.1250,-0.3125,-0.6729,0.2256,-0.6763,-0.1974,
2025-03-07 13:03:08.348,9.7700,-0.2900,-0.0600,0.2500,-0.4375,-0.3750,-0.6729,0.2256,-0.6763,-0.1974,
2025-03-07 13:03:08.348,9.8200,-0.2700,-0.1200,0.1250,-0.3750,-0.5625,-0.6729,0.2256,-0.6763,-0.1974,
2025-03-07 13:03:08.358,9.8300,-0.3500,-0.0900,-0.4375,0.0625,-0.5000,-0.6729,0.2256,-0.6763,-0.1974,
2025-03-07 13:03:08.388,9.8100,-0.3800,-0.0800,-0.8125,0.4375,-0.4375,-0.6729,0.2257,-0.6762,-0.1974,
2025-03-07 13:03:08.388,9.8300,-0.4200,-0.0700,-1.1250,0.6250,-0.3125,-0.6728,0.2258,-0.6763,-0.1975,
2025-03-07 13:03:08.396,9.8200,-0.4100,-0.0900,-1.2500,0.4375,-0.5000,-0.6728,0.2258,-0.6762,-0.1976,
2025-03-07 13:03:08.404,9.8300,-0.3900,-0.1000,-1.1250,0.0625,-0.3125,-0.6728,0.2259,-0.6762,-0.1976,
2025-03-07 13:03:08.424,9.8000,-0.3800,-0.1000,-1.0000,0.0000,-0.1875,-0.6728,0.2259,-0.6762,-0.1977,
2025-03-07 13:03:08.424,9.8000,-0.4100,-0.0400,-0.6875,0.0625,-0.1250,-0.6728,0.2260,-0.6761,-0.1978,
2025-03-07 13:03:08.434,9.7600,-0.4000,-0.0200,-0.1250,0.1250,0.1250,-0.6728,0.2260,-0.6761,-0.1978,
2025-03-07 13:03:08.458,9.7600,-0.3700,-0.0500,0.3125,0.1250,0.1875,-0.6728,0.2260,-0.6761,-0.1978,
2025-03-07 13:03:08.463,9.7400,-0.2900,-0.0800,0.5000,0.1875,0.0000,-0.6728,0.2260,-0.6761,-0.1978,
2025-03-07 13:03:08.466,9.7300,-0.2800,-0.0900,0.3125,0.1250,0.0625,-0.6728,0.2260,-0.6761,-0.1978,
2025-03-07 13:03:08.469,9.7500,-0.2800,-0.1100,-0.1875,0.0000,0.1250,-0.6728,0.2260,-0.6761,-0.1978,
2025-03-07 13:03:08.489,9.7300,-0.3000,-0.1000,-0.6875,-0.1250,0.1875,-0.6728,0.2260,-0.6761,-0.1978,
2025-03-07 13:03:08.489,9.7100,-0.3300,-0.0800,-0.9375,0.0000,0.1250,-0.6727,0.2261,-0.6762,-0.1978,
2025-03-07 13:03:08.499,9.7100,-0.3600,-0.1100,-1.3125,-0.1875,0.1250,-0.6727,0.2261,-0.6761,-0.1979,
2025-03-07 13:03:08.516,9.7400,-0.3900,-0.1100,-1.1875,-0.0625,0.1875,-0.6727,0.2263,-0.6761,-0.1980,
2025-03-07 13:03:08.527,9.7700,-0.3800,-0.1100,-0.8750,-0.1875,0.0625,-0.6727,0.2263,-0.6761,-0.1980,
2025-03-07 13:03:08.534,9.7900,-0.3600,-0.1100,-0.5625,-0.3750,0.2500,-0.6727,0.2263,-0.6761,-0.1980,
2025-03-07 13:03:08.545,9.7800,-0.3600,-0.0800,-0.5000,-0.4375,0.2500,-0.6727,0.2263,-0.6761,-0.1980,
2025-03-07 13:03:08.558,9.7700,-0.3600,-0.0900,-0.3750,-0.5625,0.1250,-0.6727,0.2263,-0.6761,-0.1980,
2025-03-07 13:03:08.566,9.7900,-0.3100,-0.0700,-0.3125,-0.6250,0.1875,-0.6727,0.2263,-0.6760,-0.1980,
2025-03-07 13:03:08.584,9.7800,-0.3300,-0.0500,-0.6250,-0.4375,0.0625,-0.6727,0.2263,-0.6760,-0.1981,
2025-03-07 13:03:08.587,9.8100,-0.3400,-0.0600,-0.8125,-0.4375,0.0625,-0.6727,0.2264,-0.6760,-0.1981,
2025-03-07 13:03:08.597,9.8300,-0.3900,-0.0700,-1.2500,-0.3750,-0.0625,-0.6727,0.2264,-0.6760,-0.1982,
2025-03-07 13:03:08.606,9.8200,-0.4200,-0.0900,-1.4375,-0.1250,0.0000,-0.6727,0.2265,-0.6760,-0.1982,
2025-03-07 13:03:08.653,9.8400,-0.4200,-0.1000,-1.3125,-0.3750,-0.0625,-0.6726,0.2266,-0.6759,-0.1983,
2025-03-07 13:03:08.653,9.8100,-0.4200,-0.0900,-1.1250,-0.5000,-0.1875,-0.6726,0.2267,-0.6759,-0.1984,
2025-03-07 13:03:08.653,9.7800,-0.4100,-0.0800,-0.8750,-0.3750,0.0000,-0.6726,0.2267,-0.6759,-0.1984,
2025-03-07 13:03:08.653,9.7800,-0.4000,-0.0700,-0.7500,-0.2500,-0.0625,-0.6726,0.2267,-0.6759,-0.1985,
2025-03-07 13:03:08.653,9.7600,-0.4000,-0.0700,-0.4375,0.1875,0.1250,-0.6726,0.2267,-0.6759,-0.1985,
2025-03-07 13:03:08.665,9.7400,-0.4100,-0.1100,-0.3125,0.2500,0.1250,-0.6726,0.2267,-0.6759,-0.1985,
2025-03-07 13:03:08.732,9.7400,-0.4000,-0.1100,-0.0625,0.1875,0.1250,-0.6726,0.2267,-0.6759,-0.1985,
2025-03-07 13:03:08.732,9.7200,-0.3900,-0.1100,0.1250,-0.0625,0.0625,-0.6726,0.2267,-0.6759,-0.1985,
2025-03-07 13:03:08.732,9.7400,-0.3600,-0.0900,0.3750,-0.1250,0.1875,-0.6726,0.2267,-0.6759,-0.1985,
2025-03-07 13:03:08.732,9.7900,-0.3600,-0.1000,0.4375,-0.0625,0.3750,-0.6726,0.2267,-0.6759,-0.1985,
2025-03-07 13:03:08.732,9.8300,-0.3500,-0.0900,0.4375,0.0625,0.3750,-0.6726,0.2267,-0.6759,-0.1985,
2025-03-07 13:03:08.732,9.8300,-0.3800,-0.0900,0.4375,0.1250,0.4375,-0.6726,0.2267,-0.6759,-0.1985,
2025-03-07 13:03:08.732,9.8300,-0.3900,-0.0600,0.3750,0.2500,0.5000,-0.6726,0.2267,-0.6759,-0.1985,
2025-03-07 13:03:08.747,9.8200,-0.3800,-0.0900,0.2500,0.2500,0.3750,-0.6726,0.2267,-0.6759,-0.1985,
2025-03-07 13:03:08.758,9.8100,-0.3700,-0.0900,0.0625,0.4375,0.3125,-0.6726,0.2267,-0.6759,-0.1985,
2025-03-07 13:03:08.772,9.7900,-0.3600,-0.0900,0.1250,0.3125,0.3750,-0.6726,0.2267,-0.6759,-0.1985,
2025-03-07 13:03:08.795,9.7600,-0.3700,-0.1100,0.2500,0.3125,0.3750,-0.6726,0.2267,-0.6759,-0.1985,
2025-03-07 13:03:08.798,9.7800,-0.3800,-0.1300,0.2500,0.1875,0.3125,-0.6726,0.2267,-0.6759,-0.1985,
2025-03-07 13:03:08.798,9.7900,-0.3700,-0.1300,0.2500,0.1250,0.2500,-0.6726,0.2267,-0.6759,-0.1985,
2025-03-07 13:03:08.809,9.7900,-0.3600,-0.1400,0.1875,0.2500,0.0000,-0.6726,0.2267,-0.6759,-0.1985,
2025-03-07 13:03:08.817,9.7800,-0.4000,-0.1000,0.0625,0.4375,0.0625,-0.6726,0.2267,-0.6759,-0.1985,
2025-03-07 13:03:08.828,9.7700,-0.3600,-0.0500,-0.1875,0.2500,-0.2500,-0.6726,0.2267,-0.6759,-0.1985,
2025-03-07 13:03:08.832,9.7700,-0.3900,-0.0400,-0.1875,0.1875,-0.3125,-0.6726,0.2267,-0.6759,-0.1985,
2025-03-07 13:03:08.852,9.7600,-0.3600,-0.0600,-0.1875,0.1875,-0.2500,-0.6726,0.2267,-0.6759,-0.1985,
2025-03-07 13:03:08.852,9.7900,-0.3300,-0.0800,-0.1250,-0.0625,-0.3125,-0.6726,0.2267,-0.6759,-0.1985,
2025-03-07 13:03:08.862,9.7600,-0.3400,-0.1200,-0.0625,0.0625,-0.4375,-0.6726,0.2267,-0.6759,-0.1985,
2025-03-07 13:03:08.876,9.7500,-0.3300,-0.1200,-0.1250,0.1250,-0.4375,-0.6726,0.2267,-0.6759,-0.1985,
2025-03-07 13:03:08.888,9.7700,-0.3600,-0.1200,-0.3125,0.2500,-0.2500,-0.6726,0.2267,-0.6759,-0.1985,
2025-03-07 13:03:08.898,9.7700,-0.3600,-0.1100,-0.9375,0.3125,-0.1875,-0.6726,0.2268,-0.6759,-0.1986,
2025-03-07 13:03:08.898,9.8100,-0.4200,-0.1000,-1.4375,0.3125,-0.2500,-0.6725,0.2269,-0.6758,-0.1986,
2025-03-07 13:03:08.954,9.8100,-0.4100,-0.0600,-1.6875,0.5000,-0.2500,-0.6725,0.2270,-0.6758,-0.1987,
2025-03-07 13:03:08.955,9.8000,-0.3700,-0.0800,-1.3750,0.3750,-0.2500,-0.6725,0.2271,-0.6758,-0.1988,
2025-03-07 13:03:08.955,9.7900,-0.3300,-0.0900,-0.8125,-0.0625,-0.1875,-0.6725,0.2271,-0.6758,-0.1988,
2025-03-07 13:03:08.955,9.7800,-0.2700,-0.0900,-0.6875,0.0000,-0.1875,-0.6725,0.2272,-0.6757,-0.1989,
2025-03-07 13:03:08.956,9.7500,-0.3300,-0.0900,-1.1875,0.1875,-0.1250,-0.6724,0.2272,-0.6757,-0.1990,
2025-03-07 13:03:08.964,9.7600,-0.4100,-0.0900,-1.4375,0.5625,-0.1250,-0.6724,0.2273,-0.6757,-0.1990,
2025-03-07 13:03:08.974,9.7600,-0.4800,-0.0700,-1.8750,0.9375,0.1250,-0.6723,0.2274,-0.6757,-0.1992,
2025-03-07 13:03:08.984,9.8100,-0.4900,-0.0800,-1.8125,0.9375,0.1875,-0.6723,0.2275,-0.6757,-0.1993,
2025-03-07 13:03:08.994,9.8200,-0.4400,-0.1100,-1.5000,0.5625,0.1875,-0.6722,0.2276,-0.6757,-0.1993,
2025-03-07 13:03:09.005,9.8300,-0.4200,-0.1300,-1.0000,0.1875,0.1250,-0.6722,0.2277,-0.6757,-0.1994,
2025-03-07 13:03:09.016,9.8100,-0.4300,-0.1600,-0.4375,0.1875,0.0625,-0.6722,0.2277,-0.6757,-0.1994,
2025-03-07 13:03:09.032,9.7700,-0.4100,-0.0500,-0.2500,0.1875,0.0000,-0.6722,0.2277,-0.6757,-0.1994,
2025-03-07 13:03:09.032,9.7400,-0.3900,-0.0300,-0.1875,0.1250,0.0000,-0.6722,0.2277,-0.6757,-0.1994,
2025-03-07 13:03:09.041,9.7300,-0.3800,0.0000,-0.0625,0.1250,-0.0625,-0.6722,0.2277,-0.6757,-0.1994,
2025-03-07 13:03:09.052,9.7200,-0.3900,-0.0200,-0.1250,0.1250,0.0000,-0.6722,0.2277,-0.6757,-0.1994,
2025-03-07 13:03:09.064,9.7300,-0.3900,-0.0400,-0.4375,0.1250,-0.1250,-0.6722,0.2277,-0.6757,-0.1994,
2025-03-07 13:03:09.076,9.7200,-0.4000,-0.0500,-0.4375,0.1250,0.0625,-0.6722,0.2277,-0.6757,-0.1994,
2025-03-07 13:03:09.096,9.7300,-0.4300,-0.0900,-0.4375,-0.0625,0.0000,-0.6722,0.2277,-0.6757,-0.1994,
2025-03-07 13:03:09.096,9.7600,-0.4300,-0.0600,-0.3125,-0.1875,0.0000,-0.6722,0.2277,-0.6757,-0.1994,
2025-03-07 13:03:09.106,9.7400,-0.4100,-0.0800,0.1250,-0.1875,0.1250,-0.6722,0.2277,-0.6757,-0.1994,
2025-03-07 13:03:09.128,9.7500,-0.3900,-0.1200,0.5625,-0.2500,0.1875,-0.6722,0.2277,-0.6757,-0.1994,
2025-03-07 13:03:09.128,9.7700,-0.3900,-0.1100,0.7500,0.0000,0.0000,-0.6722,0.2276,-0.6757,-0.1994,
2025-03-07 13:03:09.137,9.7800,-0.3900,-0.0600,1.0625,-0.3750,0.0625,-0.6722,0.2275,-0.6757,-0.1993,
2025-03-07 13:03:09.146,9.7900,-0.3600,-0.0500,1.3125,-0.5000,-0.0625,-0.6723,0.2275,-0.6757,-0.1992,
2025-03-07 13:03:09.156,9.7800,-0.3500,-0.0200,1.3125,-0.6250,-0.0625,-0.6723,0.2274,-0.6757,-0.1992,
2025-03-07 13:03:09.166,9.7700,-0.3500,-0.0500,1.3750,-0.4375,-0.1875,-0.6723,0.2273,-0.6758,-0.1991,
2025-03-07 13:03:09.183,9.8100,-0.3600,-0.0500,1.1875,-0.2500,-0.1250,-0.6724,0.2272,-0.6758,-0.1990,
2025-03-07 13:03:09.186,9.8300,-0.3700,-0.0400,0.9375,0.0000,-0.1875,-0.6724,0.2272,-0.6758,-0.1990,
2025-03-07 13:03:09.195,9.8400,-0.4200,-0.0600,0.7500,0.1250,-0.0625,-0.6724,0.2272,-0.6758,-0.1989,
2025-03-07 13:03:09.205,9.8400,-0.3900,-0.1000,0.6875,0.1875,-0.0625,-0.6724,0.2271,-0.6758,-0.1988,
2025-03-07 13:03:09.249,9.8400,-0.3800,-0.1100,0.8750,-0.0625,-0.1250,-0.6724,0.2270,-0.6758,-0.1989,
2025-03-07 13:03:09.249,9.8300,-0.3500,-0.1300,1.0625,-0.1250,-0.1875,-0.6724,0.2270,-0.6759,-0.1988,
2025-03-07 13:03:09.249,9.7700,-0.3200,-0.0600,0.8750,-0.3125,-0.1875,-0.6724,0.2269,-0.6759,-0.1987,
2025-03-07 13:03:09.254,9.7500,-0.3200,-0.0600,0.9375,-0.1250,-0.1250,-0.6725,0.2269,-0.6759,-0.1987,
2025-03-07 13:03:09.258,9.7500,-0.3200,-0.0700,1.0000,0.0000,-0.1875,-0.6725,0.2268,-0.6759,-0.1986,
2025-03-07 13:03:09.267,9.7500,-0.3300,-0.0500,0.6250,0.0000,-0.1875,-0.6725,0.2268,-0.6759,-0.1986,
2025-03-07 13:03:09.276,9.7300,-0.3000,-0.0900,0.1875,-0.0625,-0.0625,-0.6725,0.2268,-0.6759,-0.1986,
2025-03-07 13:03:09.286,9.7400,-0.3100,-0.1100,-0.2500,0.1250,-0.0625,-0.6725,0.2268,-0.6759,-0.1986,
2025-03-07 13:03:09.298,9.7400,-0.3100,-0.1100,-0.4375,0.0625,-0.1875,-0.6725,0.2268,-0.6759,-0.1986,
2025-03-07 13:03:09.304,9.7700,-0.3500,-0.1100,-0.5000,0.1250,-0.1250,-0.6725,0.2268,-0.6759,-0.1986,
2025-03-07 13:03:09.314,9.7500,-0.3800,-0.1300,-0.6250,0.1250,0.0625,-0.6725,0.2268,-0.6759,-0.1986,
2025-03-07 13:03:09.335,9.7800,-0.3900,-0.1000,-0.8125,0.0625,0.0625,-0.6725,0.2269,-0.6759,-0.1987,
2025-03-07 13:03:09.336,9.7800,-0.4000,-0.0700,-0.8750,0.0625,0.0625,-0.6725,0.2269,-0.6759,-0.1987,
2025-03-07 13:03:09.346,9.8300,-0.3900,-0.0800,-0.5625,-0.0625,0.1250,-0.6725,0.2269,-0.6759,-0.1987,
2025-03-07 13:03:09.357,9.8400,-0.3700,-0.0800,-0.5000,-0.3125,-0.1250,-0.6725,0.2269,-0.6759,-0.1987,
2025-03-07 13:03:09.362,9.8100,-0.3700,-0.1200,-0.3125,-0.3125,-0.1875,-0.6725,0.2269,-0.6759,-0.1987,
2025-03-07 13:03:09.370,9.8000,-0.3800,-0.0600,-0.2500,-0.1250,-0.2500,-0.6725,0.2269,-0.6759,-0.1987,
2025-03-07 13:03:09.390,9.8100,-0.3800,-0.0500,-0.1250,0.0625,-0.1875,-0.6725,0.2269,-0.6759,-0.1987,
2025-03-07 13:03:09.390,9.8000,-0.3900,-0.0500,-0.2500,0.0625,-0.2500,-0.6725,0.2269,-0.6759,-0.1987,
2025-03-07 13:03:09.406,9.7900,-0.3800,-0.0400,-0.2500,0.1250,-0.2500,-0.6725,0.2269,-0.6759,-0.1987,
2025-03-07 13:03:09.421,9.7900,-0.3800,-0.0900,-0.1875,0.0000,-0.1250,-0.6725,0.2269,-0.6759,-0.1987,
2025-03-07 13:03:09.425,9.7800,-0.3600,-0.1000,-0.2500,0.1250,-0.3125,-0.6725,0.2269,-0.6759,-0.1987,
2025-03-07 13:03:09.436,9.8100,-0.3600,-0.0600,-0.1875,0.0000,-0.3750,-0.6725,0.2269,-0.6759,-0.1987,
2025-03-07 13:03:09.450,9.7500,-0.3700,-0.0600,-0.2500,0.0625,-0.2500,-0.6725,0.2269,-0.6759,-0.1987,
2025-03-07 13:03:09.458,9.7300,-0.3800,-0.0700,-0.3125,0.2500,-0.2500,-0.6725,0.2269,-0.6759,-0.1987,
2025-03-07 13:03:09.459,9.7300,-0.3900,-0.0700,-0.2500,0.1875,-0.1250,-0.6725,0.2269,-0.6759,-0.1987,
2025-03-07 13:03:09.479,9.7200,-0.3600,-0.1000,-0.2500,0.3750,-0.1875,-0.6725,0.2269,-0.6759,-0.1987,
2025-03-07 13:03:09.479,9.7300,-0.3500,-0.1000,-0.3125,0.5625,-0.0625,-0.6725,0.2269,-0.6759,-0.1987,
2025-03-07 13:03:09.507,9.7500,-0.3600,-0.0700,-0.5000,0.5625,-0.2500,-0.6725,0.2269,-0.6759,-0.1987,
2025-03-07 13:03:09.509,9.7800,-0.4300,-0.0700,-0.6250,0.3125,-0.2500,-0.6724,0.2270,-0.6759,-0.1987,
2025-03-07 13:03:09.547,9.8300,-0.4500,-0.0600,-0.8125,0.2500,-0.2500,-0.6724,0.2270,-0.6759,-0.1988,
2025-03-07 13:03:09.547,9.8100,-0.4200,-0.0500,-0.3125,0.2500,-0.1875,-0.6724,0.2270,-0.6759,-0.1988,
2025-03-07 13:03:09.547,9.7800,-0.3800,-0.0500,0.1250,0.1875,-0.3125,-0.6724,0.2270,-0.6759,-0.1988,
2025-03-07 13:03:09.547,9.7500,-0.3000,-0.0700,0.4375,-0.0625,-0.3125,-0.6724,0.2270,-0.6759,-0.1988,
2025-03-07 13:03:09.556,9.7900,-0.3400,-0.0900,0.4375,-0.1875,-0.4375,-0.6724,0.2270,-0.6759,-0.1988,
2025-03-07 13:03:09.571,9.8100,-0.3800,-0.1100,0.0625,-0.0625,-0.3750,-0.6724,0.2270,-0.6759,-0.1988,
2025-03-07 13:03:09.580,9.8200,-0.4100,-0.1100,-0.3125,0.2500,-0.2500,-0.6724,0.2270,-0.6759,-0.1988,
2025-03-07 13:03:09.586,9.7800,-0.4200,-0.1000,-0.4375,0.1875,-0.3125,-0.6724,0.2270,-0.6759,-0.1988,
2025-03-07 13:03:09.591,9.7900,-0.3800,-0.1100,-0.4375,0.2500,-0.1875,-0.6724,0.2270,-0.6759,-0.1988,
2025-03-07 13:03:09.612,9.8000,-0.3700,-0.1400,-0.3125,-0.1250,-0.3750,-0.6724,0.2270,-0.6759,-0.1988,
2025-03-07 13:03:09.612,9.7800,-0.3500,-0.1100,-0.0625,0.0000,-0.3750,-0.6724,0.2270,-0.6759,-0.1988,
2025-03-07 13:03:09.622,9.7600,-0.3800,-0.0500,-0.0625,0.0000,-0.2500,-0.6724,0.2270,-0.6759,-0.1988,
2025-03-07 13:03:09.646,9.7400,-0.3500,-0.0200,-0.1875,-0.0625,-0.2500,-0.6724,0.2270,-0.6759,-0.1988,
2025-03-07 13:03:09.646,9.7400,-0.3500,-0.0300,0.0000,-0.2500,-0.1250,-0.6724,0.2270,-0.6759,-0.1988,
2025-03-07 13:03:09.657,9.7500,-0.3500,-0.0500,0.1250,-0.0625,-0.0625,-0.6724,0.2270,-0.6759,-0.1988,
2025-03-07 13:03:09.666,9.7500,-0.3600,-0.1000,0.0000,-0.1250,-0.1250,-0.6724,0.2270,-0.6759,-0.1988,
2025-03-07 13:03:09.677,9.7800,-0.3500,-0.0800,-0.0625,0.0000,0.0000,-0.6724,0.2270,-0.6759,-0.1988,
2025-03-07 13:03:09.689,9.7700,-0.3200,-0.1000,0.0000,-0.1875,0.1250,-0.6724,0.2270,-0.6759,-0.1988,
2025-03-07 13:03:09.689,9.7900,-0.3500,-0.0700,-0.1250,-0.0625,0.2500,-0.6724,0.2270,-0.6759,-0.1988,
2025-03-07 13:03:09.705,9.7900,-0.3400,-0.0700,-0.1250,-0.1875,0.1875,-0.6724,0.2270,-0.6759,-0.1988,
2025-03-07 13:03:09.720,9.7700,-0.3500,-0.0800,-0.4375,0.0000,0.3125,-0.6724,0.2270,-0.6759,-0.1988,
2025-03-07 13:03:09.723,9.7700,-0.3800,-0.1000,-0.4375,0.0000,0.2500,-0.6724,0.2270,-0.6759,-0.1988,
2025-03-07 13:03:09.733,9.8000,-0.3900,-0.0600,-0.3125,0.0000,0.2500,-0.6724,0.2270,-0.6759,-0.1988,
2025-03-07 13:03:09.744,9.7900,-0.4000,-0.0500,0.2500,-0.1250,0.3125,-0.6724,0.2270,-0.6759,-0.1988,
2025-03-07 13:03:09.754,9.7900,-0.3700,-0.0600,0.2500,-0.1250,0.3125,-0.6724,0.2270,-0.6759,-0.1988,
2025-03-07 13:03:09.767,9.7500,-0.3400,-0.0900,0.2500,-0.0625,0.4375,-0.6724,0.2270,-0.6759,-0.1988,
2025-03-07 13:03:09.808,9.7800,-0.3300,-0.0900,0.2500,-0.0625,0.1250,-0.6724,0.2270,-0.6759,-0.1988,
2025-03-07 13:03:09.808,9.8200,-0.3200,-0.0700,-0.2500,0.1250,0.0000,-0.6724,0.2270,-0.6759,-0.1988,
2025-03-07 13:03:09.848,9.8200,-0.3600,-0.0700,-0.5625,0.1875,-0.0625,-0.6724,0.2270,-0.6759,-0.1988,
2025-03-07 13:03:09.848,9.8000,-0.4000,-0.0600,-0.6250,0.2500,-0.1875,-0.6724,0.2271,-0.6758,-0.1988,
2025-03-07 13:03:09.848,9.8000,-0.4000,-0.0500,-0.5625,0.1875,-0.1875,-0.6724,0.2271,-0.6758,-0.1988,
2025-03-07 13:03:09.848,9.8000,-0.4000,-0.0700,-0.2500,-0.0625,-0.2500,-0.6724,0.2271,-0.6758,-0.1988,
2025-03-07 13:03:09.848,9.7800,-0.3500,-0.0600,-0.0625,0.0000,-0.0625,-0.6724,0.2271,-0.6758,-0.1988,
2025-03-07 13:03:09.848,9.7600,-0.3500,-0.0600,0.1250,-0.0625,-0.2500,-0.6724,0.2271,-0.6758,-0.1988,
2025-03-07 13:03:09.856,9.7600,-0.3300,-0.0600,-0.0625,-0.0625,-0.0625,-0.6724,0.2271,-0.6758,-0.1988,
2025-03-07 13:03:09.867,9.7500,-0.3400,-0.0700,-0.4375,0.1250,-0.1250,-0.6724,0.2271,-0.6758,-0.1988,
2025-03-07 13:03:09.876,9.7300,-0.3400,-0.1000,-0.6250,0.1250,-0.1875,-0.6724,0.2271,-0.6758,-0.1988,
2025-03-07 13:03:09.896,9.7500,-0.3400,-0.0700,-0.8125,0.1250,-0.1875,-0.6724,0.2271,-0.6758,-0.1989,
2025-03-07 13:03:09.897,9.7300,-0.3500,-0.0900,-0.8125,0.0000,-0.1250,-0.6724,0.2272,-0.6758,-0.1990,
2025-03-07 13:03:09.906,9.7600,-0.3800,-0.1000,-0.7500,0.0000,0.0000,-0.6724,0.2272,-0.6758,-0.1990,
2025-03-07 13:03:09.917,9.7900,-0.3800,-0.1300,-0.8125,0.0625,0.1250,-0.6724,0.2273,-0.6758,-0.1990,
2025-03-07 13:03:09.932,9.8000,-0.3800,-0.1200,-0.7500,0.1250,0.0000,-0.6723,0.2273,-0.6758,-0.1991,
2025-03-07 13:03:09.937,9.8300,-0.3900,-0.0900,-0.8750,0.1875,0.2500,-0.6723,0.2274,-0.6757,-0.1992,
2025-03-07 13:03:09.942,9.8200,-0.4000,-0.0800,-0.8750,-0.0625,0.3750,-0.6723,0.2274,-0.6757,-0.1992,
2025-03-07 13:03:09.962,9.8300,-0.3700,-0.0700,-0.7500,-0.0625,0.6875,-0.6723,0.2275,-0.6757,-0.1992,
2025-03-07 13:03:09.965,9.8300,-0.3900,-0.0500,-0.9375,0.1875,0.6875,-0.6722,0.2276,-0.6757,-0.1992,
2025-03-07 13:03:09.976,9.8000,-0.3900,-0.0600,-0.8750,0.1875,0.8750,-0.6722,0.2277,-0.6757,-0.1992,
2025-03-07 13:03:09.991,9.7900,-0.4000,-0.0500,-0.4375,0.1875,0.8750,-0.6722,0.2277,-0.6757,-0.1992,
2025-03-07 13:03:09.995,9.8000,-0.4200,-0.0600,-0.1875,0.1250,0.9375,-0.6722,0.2278,-0.6757,-0.1991,
2025-03-07 13:03:10.006,9.8000,-0.3700,-0.0700,-0.0625,0.1875,0.8750,-0.6722,0.2278,-0.6758,-0.1990,
2025-03-07 13:03:10.020,9.7700,-0.3600,-0.1100,0.0625,0.1875,0.7500,-0.6722,0.2279,-0.6758,-0.1990,
2025-03-07 13:03:10.020,9.7800,-0.3700,-0.0700,-0.0625,0.0000,0.8750,-0.6721,0.2280,-0.6758,-0.1990,
2025-03-07 13:03:10.034,9.7700,-0.3500,-0.0700,-0.1875,0.0625,0.9375,-0.6721,0.2280,-0.6758,-0.1990,
2025-03-07 13:03:10.041,9.7500,-0.4000,-0.0500,-0.4375,0.1875,0.8125,-0.6721,0.2280,-0.6758,-0.1989,
2025-03-07 13:03:10.051,9.7500,-0.3900,-0.0700,-0.5000,0.1250,0.6875,-0.6721,0.2280,-0.6758,-0.1988,
2025-03-07 13:03:10.065,9.7600,-0.4300,-0.0700,-0.6250,0.1875,0.9375,-0.6721,0.2281,-0.6758,-0.1988,
2025-03-07 13:03:10.077,9.7500,-0.4100,-0.0800,-0.2500,0.1250,0.6250,-0.6721,0.2281,-0.6758,-0.1988,
2025-03-07 13:03:10.086,9.7300,-0.3700,-0.0800,0.0000,0.1875,0.4375,-0.6721,0.2282,-0.6758,-0.1987,
2025-03-07 13:03:10.097,9.7400,-0.4100,-0.1000,0.0625,0.2500,0.4375,-0.6721,0.2282,-0.6758,-0.1987,
2025-03-07 13:03:10.107,9.7700,-0.4200,-0.0800,-0.0625,0.1250,0.3125,-0.6721,0.2282,-0.6758,-0.1987,
2025-03-07 13:03:10.132,9.7900,-0.4600,-0.1000,-0.1875,0.1875,0.1875,-0.6721,0.2282,-0.6758,-0.1987,
2025-03-07 13:03:10.150,9.7800,-0.4200,-0.0600,0.0625,0.1250,0.0625,-0.6721,0.2282,-0.6758,-0.1987,
2025-03-07 13:03:10.150,9.7800,-0.3800,-0.0800,0.4375,0.0000,-0.2500,-0.6721,0.2282,-0.6758,-0.1987,
2025-03-07 13:03:10.150,9.7500,-0.3300,-0.0500,0.5000,-0.2500,-0.2500,-0.6721,0.2282,-0.6758,-0.1987,
2025-03-07 13:03:10.159,9.7900,-0.3100,-0.0700,0.5000,0.0000,-0.1250,-0.6721,0.2282,-0.6758,-0.1987,
2025-03-07 13:03:10.170,9.7900,-0.3500,-0.0900,0.0000,0.0000,-0.3750,-0.6721,0.2282,-0.6758,-0.1987,
2025-03-07 13:03:10.180,9.8000,-0.4100,-0.0800,-0.3750,0.3125,-0.1250,-0.6721,0.2282,-0.6758,-0.1987,
2025-03-07 13:03:10.185,9.8000,-0.4100,-0.0700,-0.3125,0.3125,0.0000,-0.6721,0.2282,-0.6758,-0.1987,
2025-03-07 13:03:10.197,9.8700,-0.4400,-0.0900,0.1875,0.1250,0.0625,-0.6721,0.2282,-0.6758,-0.1987,
2025-03-07 13:03:10.217,9.9000,-0.3900,-0.1100,0.5000,0.1250,0.3125,-0.6721,0.2282,-0.6758,-0.1987,
2025-03-07 13:03:10.217,9.8700,-0.3600,-0.1000,0.6250,0.0625,0.3750,-0.6721,0.2282,-0.6758,-0.1987,
2025-03-07 13:03:10.238,9.7900,-0.3600,-0.0400,0.1875,0.2500,0.5000,-0.6721,0.2282,-0.6759,-0.1987,
2025-03-07 13:03:10.238,9.7600,-0.3200,-0.0200,-0.1250,0.3125,0.8125,-0.6721,0.2282,-0.6759,-0.1987,
2025-03-07 13:03:10.246,9.7700,-0.3100,-0.0200,-0.3750,0.3125,0.8125,-0.6721,0.2282,-0.6759,-0.1987,
2025-03-07 13:03:10.260,9.7300,-0.3000,-0.0200,-0.8750,0.2500,1.0625,-0.6720,0.2283,-0.6759,-0.1986,
2025-03-07 13:03:10.271,9.6800,-0.3400,-0.0900,-1.3125,0.3750,1.1875,-0.6720,0.2284,-0.6759,-0.1986,
2025-03-07 13:03:10.276,9.6900,-0.3800,-0.1100,-1.3750,0.0000,1.3750,-0.6719,0.2285,-0.6759,-0.1986,
2025-03-07 13:03:10.295,9.7300,-0.4000,-0.1400,-0.9375,-0.4375,1.4375,-0.6719,0.2287,-0.6759,-0.1986,
2025-03-07 13:03:10.295,9.7600,-0.3800,-0.1200,-0.6875,-0.6250,1.4375,-0.6719,0.2288,-0.6759,-0.1986,
2025-03-07 13:03:10.304,9.7500,-0.3800,-0.1000,-1.0625,-0.5000,1.4375,-0.6719,0.2289,-0.6758,-0.1985,
2025-03-07 13:03:10.317,9.7700,-0.3700,-0.0800,-1.3750,-0.5000,1.5000,-0.6718,0.2291,-0.6759,-0.1985,
2025-03-07 13:03:10.328,9.7300,-0.3800,-0.0500,-1.5625,-0.5000,1.3125,-0.6718,0.2293,-0.6759,-0.1985,
2025-03-07 13:03:10.336,9.7600,-0.4500,-0.0200,-1.4375,-0.3125,1.1875,-0.6717,0.2294,-0.6758,-0.1985,
2025-03-07 13:03:10.353,9.7700,-0.4500,-0.0300,-0.8750,-0.5625,1.2500,-0.6716,0.2296,-0.6759,-0.1986,
2025-03-07 13:03:10.370,9.7900,-0.4600,-0.0200,-0.6875,-0.7500,1.1875,-0.6716,0.2297,-0.6758,-0.1985,
2025-03-07 13:03:10.370,9.8000,-0.4200,-0.0700,-0.3750,-0.5625,0.8750,-0.6716,0.2298,-0.6758,-0.1985,
2025-03-07 13:03:10.377,9.8100,-0.4400,-0.0400,-0.3750,-0.2500,0.8125,-0.6716,0.2299,-0.6758,-0.1984,
2025-03-07 13:03:10.383,9.8600,-0.4500,-0.0200,-0.4375,0.0625,0.6875,-0.6716,0.2299,-0.6758,-0.1984,
2025-03-07 13:03:10.394,9.8400,-0.4500,-0.0400,-0.5625,0.3125,0.8750,-0.6716,0.2299,-0.6759,-0.1983,
2025-03-07 13:03:10.436,9.8400,-0.4700,-0.0500,-0.4375,0.4375,0.6875,-0.6716,0.2300,-0.6758,-0.1983,
2025-03-07 13:03:10.436,9.8700,-0.4500,-0.0600,-0.3750,0.5625,0.6250,-0.6715,0.2300,-0.6759,-0.1982,
2025-03-07 13:03:10.459,9.8400,-0.4500,-0.0600,-0.1875,0.5000,0.5000,-0.6715,0.2300,-0.6759,-0.1982,
2025-03-07 13:03:10.459,9.7900,-0.4400,-0.0800,-0.0625,0.5625,0.4375,-0.6715,0.2300,-0.6759,-0.1982,
2025-03-07 13:03:10.459,9.7800,-0.4500,-0.0800,0.0625,0.4375,0.3750,-0.6715,0.2300,-0.6759,-0.1982,
2025-03-07 13:03:10.462,9.7400,-0.4000,-0.0500,0.1875,0.5625,0.3750,-0.6715,0.2300,-0.6759,-0.1982,
2025-03-07 13:03:10.470,9.7400,-0.4000,-0.0900,0.2500,0.4375,0.1250,-0.6715,0.2300,-0.6759,-0.1982,
2025-03-07 13:03:10.477,9.7000,-0.3200,-0.0800,-0.1250,0.3125,0.2500,-0.6715,0.2300,-0.6759,-0.1982,
2025-03-07 13:03:10.482,9.7100,-0.3300,-0.0700,-0.7500,0.4375,0.1875,-0.6715,0.2300,-0.6759,-0.1982,
2025-03-07 13:03:10.492,9.7300,-0.3200,-0.0600,-1.2500,0.1875,0.3125,-0.6715,0.2301,-0.6759,-0.1982,
2025-03-07 13:03:10.504,9.7500,-0.3600,-0.1200,-1.6250,0.1250,0.3125,-0.6715,0.2302,-0.6758,-0.1983,
2025-03-07 13:03:10.514,9.7600,-0.4200,-0.1100,-1.7500,0.1875,0.3750,-0.6714,0.2303,-0.6758,-0.1984,
2025-03-07 13:03:10.532,9.7700,-0.4500,-0.0800,-1.9375,0.3750,0.5000,-0.6714,0.2304,-0.6758,-0.1985,
2025-03-07 13:03:10.541,9.7800,-0.4800,-0.0600,-1.9375,0.1250,0.5625,-0.6714,0.2305,-0.6757,-0.1986,
2025-03-07 13:03:10.545,9.7800,-0.4800,-0.0600,-1.8750,0.2500,0.7500,-0.6714,0.2306,-0.6757,-0.1987,
2025-03-07 13:03:10.559,9.8100,-0.4800,-0.0500,-1.9375,-0.0625,0.5625,-0.6713,0.2308,-0.6757,-0.1988,
2025-03-07 13:03:10.566,9.7900,-0.4800,-0.0900,-1.5625,-0.1250,0.5000,-0.6713,0.2308,-0.6756,-0.1989,
2025-03-07 13:03:10.583,9.8200,-0.4900,-0.0300,-1.1875,-0.1250,0.4375,-0.6713,0.2310,-0.6756,-0.1990,
2025-03-07 13:03:10.589,9.8100,-0.4900,-0.0500,-0.7500,-0.1875,0.1875,-0.6713,0.2310,-0.6756,-0.1990,
2025-03-07 13:03:10.598,9.8200,-0.5000,-0.0300,-0.3125,-0.1250,0.3125,-0.6712,0.2311,-0.6756,-0.1991,
2025-03-07 13:03:10.606,9.7800,-0.4700,-0.0200,-0.2500,-0.0625,0.4375,-0.6712,0.2311,-0.6756,-0.1991,
2025-03-07 13:03:10.614,9.7800,-0.4600,-0.0500,-0.2500,0.1250,0.3125,-0.6712,0.2311,-0.6756,-0.1991,
2025-03-07 13:03:10.624,9.7700,-0.4500,-0.0400,-0.5000,0.0625,0.3750,-0.6712,0.2311,-0.6756,-0.1991,
2025-03-07 13:03:10.644,9.7700,-0.4600,-0.0300,-0.6250,-0.0625,0.3125,-0.6712,0.2311,-0.6756,-0.1991,
2025-03-07 13:03:10.644,9.7800,-0.4700,-0.0400,-0.8750,-0.1250,0.4375,-0.6712,0.2311,-0.6756,-0.1992,
2025-03-07 13:03:10.656,9.7500,-0.4700,-0.0600,-0.6250,0.0625,0.3125,-0.6712,0.2311,-0.6755,-0.1992,
2025-03-07 13:03:10.666,9.7700,-0.4700,-0.0700,-0.4375,0.1250,0.2500,-0.6712,0.2312,-0.6755,-0.1992,
2025-03-07 13:03:10.680,9.7600,-0.4800,-0.0800,-0.3750,0.2500,0.2500,-0.6712,0.2312,-0.6755,-0.1992,
2025-03-07 13:03:10.690,9.7500,-0.4700,-0.0700,-0.2500,0.3125,0.1250,-0.6712,0.2312,-0.6755,-0.1992,
2025-03-07 13:03:10.690,9.7400,-0.4700,-0.0900,-0.0625,0.1250,0.0625,-0.6712,0.2312,-0.6755,-0.1992,
2025-03-07 13:03:10.708,9.7300,-0.4700,-0.0800,0.0000,0.0000,0.0000,-0.6712,0.2312,-0.6755,-0.1992,
2025-03-07 13:03:10.748,9.8000,-0.4900,-0.0600,-0.1250,0.0000,-0.1875,-0.6712,0.2312,-0.6755,-0.1992,
2025-03-07 13:03:10.748,9.8000,-0.5300,-0.0600,-0.2500,0.0625,-0.1250,-0.6712,0.2312,-0.6755,-0.1992,
2025-03-07 13:03:10.754,9.8100,-0.4900,-0.0400,-0.1250,0.1250,-0.1875,-0.6712,0.2312,-0.6755,-0.1992,
2025-03-07 13:03:10.754,9.7800,-0.4500,-0.0400,0.1875,-0.1250,-0.1875,-0.6712,0.2312,-0.6755,-0.1992,
2025-03-07 13:03:10.756,9.7500,-0.3900,-0.0600,0.1250,-0.2500,-0.3125,-0.6712,0.2312,-0.6755,-0.1992,
2025-03-07 13:03:10.767,9.7500,-0.4000,-0.0800,-0.0625,-0.1875,-0.2500,-0.6712,0.2312,-0.6755,-0.1992,
2025-03-07 13:03:10.789,9.7700,-0.4500,-0.0400,-0.2500,-0.2500,-0.1250,-0.6712,0.2312,-0.6755,-0.1992,
2025-03-07 13:03:10.789,9.7900,-0.4900,-0.0400,-0.3125,0.0000,-0.3125,-0.6712,0.2312,-0.6755,-0.1992,
2025-03-07 13:03:10.789,9.8200,-0.4800,-0.0700,-0.2500,0.0625,-0.1875,-0.6712,0.2312,-0.6755,-0.1992,
2025-03-07 13:03:10.809,9.8200,-0.4700,-0.0800,-0.4375,-0.0625,-0.3750,-0.6712,0.2312,-0.6755,-0.1992,
2025-03-07 13:03:10.810,9.8500,-0.4800,-0.0900,-0.2500,-0.1875,-0.2500,-0.6712,0.2312,-0.6755,-0.1992,
2025-03-07 13:03:10.830,9.7700,-0.4900,-0.0700,0.0000,-0.1875,-0.4375,-0.6712,0.2312,-0.6755,-0.1992,
2025-03-07 13:03:10.835,9.7600,-0.4800,-0.0500,0.1875,-0.3750,-0.3750,-0.6712,0.2312,-0.6755,-0.1992,
2025-03-07 13:03:10.845,9.7500,-0.4700,-0.0400,0.4375,-0.1250,-0.1875,-0.6712,0.2312,-0.6755,-0.1992,
2025-03-07 13:03:10.857,9.7100,-0.4700,-0.0100,0.6875,-0.2500,-0.1875,-0.6712,0.2312,-0.6755,-0.1992,
2025-03-07 13:03:10.865,9.7400,-0.4600,-0.0500,0.8125,-0.0625,0.1875,-0.6712,0.2311,-0.6755,-0.1992,
2025-03-07 13:03:10.876,9.7600,-0.4500,-0.0700,1.0625,-0.2500,0.3125,-0.6712,0.2311,-0.6756,-0.1992,
2025-03-07 13:03:10.897,9.7500,-0.4200,-0.1000,1.1250,-0.1875,0.3750,-0.6713,0.2310,-0.6756,-0.1991,
2025-03-07 13:03:10.898,9.7800,-0.3500,-0.1200,1.0000,-0.3750,0.2500,-0.6713,0.2310,-0.6756,-0.1990,
2025-03-07 13:03:10.910,9.7800,-0.2900,-0.1400,0.5625,-0.6875,0.0625,-0.6713,0.2309,-0.6756,-0.1990,
2025-03-07 13:03:10.923,9.7700,-0.3000,-0.1100,-0.3125,-0.3750,-0.1250,-0.6713,0.2310,-0.6756,-0.1990,
2025-03-07 13:03:10.923,9.7900,-0.3100,-0.0700,-1.1250,-0.2500,-0.2500,-0.6713,0.2310,-0.6756,-0.1990,
2025-03-07 13:03:10.943,9.7900,-0.4000,-0.0400,-1.5625,-0.3125,-0.3750,-0.6713,0.2310,-0.6755,-0.1990,
2025-03-07 13:03:10.943,9.7900,-0.4000,-0.0400,-1.5625,0.0000,-0.3125,-0.6713,0.2311,-0.6755,-0.1991,
2025-03-07 13:03:10.957,9.7900,-0.4600,-0.0400,-1.2500,-0.1875,-0.1250,-0.6713,0.2312,-0.6755,-0.1992,
2025-03-07 13:03:10.971,9.8100,-0.4800,-0.0500,-0.8125,-0.1250,-0.0625,-0.6712,0.2313,-0.6755,-0.1993,
2025-03-07 13:03:10.977,9.7800,-0.4700,-0.0700,-0.4375,-0.0625,0.1250,-0.6712,0.2313,-0.6755,-0.1993,
2025-03-07 13:03:10.988,9.7700,-0.4400,-0.0800,-0.1250,-0.0625,0.0000,-0.6712,0.2313,-0.6755,-0.1993,
2025-03-07 13:03:11.066,9.7800,-0.4300,-0.0700,-0.3125,0.0000,0.1875,-0.6712,0.2313,-0.6755,-0.1993,
2025-03-07 13:03:11.066,9.8100,-0.4700,-0.0600,-0.4375,0.1250,0.0625,-0.6712,0.2313,-0.6755,-0.1993,
2025-03-07 13:03:11.066,9.8000,-0.5000,-0.0700,-0.5000,0.0625,0.0000,-0.6712,0.2313,-0.6755,-0.1993,
2025-03-07 13:03:11.066,9.7900,-0.5000,-0.0500,-0.2500,0.0000,-0.1250,-0.6712,0.2313,-0.6755,-0.1993,
2025-03-07 13:03:11.066,9.7900,-0.4700,-0.0700,0.1875,-0.1875,-0.3125,-0.6712,0.2313,-0.6755,-0.1993,
2025-03-07 13:03:11.066,9.7900,-0.4700,-0.0700,0.6875,-0.1875,-0.2500,-0.6712,0.2313,-0.6755,-0.1993,
2025-03-07 13:03:11.066,9.7600,-0.4200,-0.0700,0.8125,-0.3125,-0.1250,-0.6712,0.2313,-0.6755,-0.1993,
2025-03-07 13:03:11.068,9.7400,-0.4000,-0.1100,0.8125,-0.0625,-0.1875,-0.6713,0.2312,-0.6755,-0.1992,
2025-03-07 13:03:11.073,9.7200,-0.3700,-0.0900,0.5000,-0.0625,-0.2500,-0.6713,0.2311,-0.6755,-0.1992,
2025-03-07 13:03:11.090,9.7300,-0.3500,-0.0600,0.1250,0.1250,-0.2500,-0.6713,0.2311,-0.6755,-0.1992,
2025-03-07 13:03:11.104,9.7400,-0.3800,-0.0600,-0.2500,0.0625,-0.1875,-0.6713,0.2311,-0.6755,-0.1992,
2025-03-07 13:03:11.108,9.7600,-0.4500,-0.1200,-0.4375,0.0625,-0.1875,-0.6713,0.2311,-0.6755,-0.1992,
2025-03-07 13:03:11.109,9.7600,-0.4800,-0.1100,-0.6875,0.1875,-0.1250,-0.6713,0.2311,-0.6755,-0.1992,
2025-03-07 13:03:11.136,9.7700,-0.4600,-0.0900,-0.5625,0.0625,-0.0625,-0.6713,0.2312,-0.6755,-0.1992,
2025-03-07 13:03:11.136,9.8100,-0.4700,-0.1000,-0.5625,-0.0625,-0.0625,-0.6713,0.2312,-0.6755,-0.1992,
2025-03-07 13:03:11.140,9.8100,-0.4700,-0.1000,-0.4375,-0.0625,-0.0625,-0.6713,0.2312,-0.6755,-0.1992,
2025-03-07 13:03:11.158,9.8400,-0.4300,-0.1000,-0.2500,-0.1875,-0.1875,-0.6713,0.2312,-0.6755,-0.1992,
2025-03-07 13:03:11.169,9.8300,-0.4500,-0.0800,-0.1875,-0.1250,-0.1875,-0.6713,0.2312,-0.6755,-0.1992,
2025-03-07 13:03:11.175,9.8100,-0.4500,-0.0500,-0.3125,0.0000,-0.1250,-0.6713,0.2312,-0.6755,-0.1992,
2025-03-07 13:03:11.186,9.7800,-0.4700,-0.0300,-0.3750,0.1250,-0.3125,-0.6713,0.2312,-0.6755,-0.1992,
2025-03-07 13:03:11.206,9.7800,-0.4700,-0.0300,-0.3125,0.1875,-0.0625,-0.6713,0.2312,-0.6755,-0.1992,
2025-03-07 13:03:11.206,9.7800,-0.4800,-0.0600,-0.0625,0.1250,0.0000,-0.6713,0.2312,-0.6755,-0.1992,
2025-03-07 13:03:11.217,9.7600,-0.4900,-0.0900,0.3125,0.1875,-0.0625,-0.6713,0.2312,-0.6755,-0.1992,
2025-03-07 13:03:11.228,9.7800,-0.4700,-0.0900,0.5625,-0.0625,-0.0625,-0.6713,0.2312,-0.6755,-0.1992,
2025-03-07 13:03:11.238,9.7600,-0.4600,-0.0900,0.6875,0.0000,-0.1250,-0.6713,0.2312,-0.6755,-0.1992,
2025-03-07 13:03:11.250,9.7600,-0.4600,-0.0900,0.7500,-0.0625,0.0625,-0.6713,0.2311,-0.6755,-0.1992,
2025-03-07 13:03:11.257,9.7700,-0.4500,-0.1000,0.8125,-0.2500,0.1250,-0.6713,0.2311,-0.6755,-0.1992,
2025-03-07 13:03:11.274,9.7700,-0.4100,-0.0600,0.8750,-0.2500,0.0625,-0.6713,0.2311,-0.6755,-0.1991,
2025-03-07 13:03:11.274,9.7800,-0.4000,-0.0900,0.7500,-0.1875,0.0625,-0.6713,0.2310,-0.6755,-0.1990,
2025-03-07 13:03:11.288,9.8000,-0.3800,-0.0600,0.6250,-0.1250,0.0000,-0.6713,0.2310,-0.6756,-0.1990,
2025-03-07 13:03:11.304,9.8000,-0.3800,-0.0600,0.1875,-0.1875,-0.0625,-0.6713,0.2310,-0.6756,-0.1990,
2025-03-07 13:03:11.346,9.7500,-0.4200,-0.0600,0.0625,-0.0625,-0.0625,-0.6713,0.2310,-0.6756,-0.1990,
2025-03-07 13:03:11.358,9.7700,-0.4400,-0.0800,-0.0625,-0.0625,-0.3125,-0.6713,0.2310,-0.6756,-0.1990,
2025-03-07 13:03:11.358,9.7800,-0.4700,-0.0800,0.0000,0.0625,-0.3750,-0.6713,0.2310,-0.6756,-0.1990,
2025-03-07 13:03:11.358,9.8000,-0.5200,-0.0800,-0.1875,0.1250,-0.3125,-0.6713,0.2310,-0.6756,-0.1990,
2025-03-07 13:03:11.359,9.8000,-0.5200,-0.0800,0.1250,0.1250,-0.5000,-0.6713,0.2310,-0.6756,-0.1990,
2025-03-07 13:03:11.359,9.8100,-0.4700,-0.0400,0.3125,0.0000,-0.3750,-0.6713,0.2310,-0.6756,-0.1990,
2025-03-07 13:03:11.367,9.7900,-0.4000,-0.0700,0.7500,-0.1250,-0.3750,-0.6713,0.2310,-0.6756,-0.1990,
2025-03-07 13:03:11.373,9.7600,-0.3700,-0.0900,1.0625,-0.1250,-0.2500,-0.6713,0.2309,-0.6756,-0.1989,
2025-03-07 13:03:11.384,9.7600,-0.3700,-0.0900,1.0000,-0.2500,-0.3125,-0.6713,0.2308,-0.6756,-0.1989,
2025-03-07 13:03:11.394,9.7600,-0.3500,-0.1100,0.7500,0.0000,-0.2500,-0.6714,0.2308,-0.6756,-0.1988,
2025-03-07 13:03:11.404,9.7700,-0.4200,-0.0800,0.3125,0.3125,-0.3125,-0.6714,0.2307,-0.6757,-0.1987,
2025-03-07 13:03:11.414,9.8000,-0.4800,-0.0600,0.3125,0.4375,-0.3125,-0.6714,0.2307,-0.6757,-0.1987,
2025-03-07 13:03:11.426,9.8200,-0.4700,-0.0500,0.4375,0.1875,-0.1875,-0.6714,0.2307,-0.6757,-0.1987,
2025-03-07 13:03:11.437,9.8300,-0.4600,-0.0800,0.7500,0.0000,-0.3125,-0.6714,0.2307,-0.6757,-0.1987,
2025-03-07 13:03:11.447,9.8100,-0.4500,-0.1000,1.1250,-0.1875,-0.4375,-0.6714,0.2307,-0.6757,-0.1987,
2025-03-07 13:03:11.468,9.8000,-0.4400,-0.1000,1.1250,-0.3125,-0.1875,-0.6714,0.2307,-0.6757,-0.1987,
2025-03-07 13:03:11.470,9.7700,-0.4400,-0.1000,1.1875,-0.1250,-0.1875,-0.6714,0.2306,-0.6757,-0.1986,
2025-03-07 13:03:11.480,9.7400,-0.4000,-0.0500,1.1250,-0.0625,-0.1250,-0.6715,0.2305,-0.6757,-0.1985,
2025-03-07 13:03:11.488,9.7400,-0.4000,-0.0700,0.9375,0.0000,-0.0625,-0.6715,0.2304,-0.6758,-0.1984,
2025-03-07 13:03:11.496,9.7200,-0.3700,-0.0300,0.6250,0.0625,0.0000,-0.6715,0.2303,-0.6758,-0.1984,
2025-03-07 13:03:11.521,9.7400,-0.4000,-0.0400,0.0625,0.0625,0.1250,-0.6715,0.2303,-0.6758,-0.1984,
2025-03-07 13:03:11.521,9.7500,-0.4400,-0.0500,0.0625,0.1250,0.1875,-0.6715,0.2303,-0.6758,-0.1984,
2025-03-07 13:03:11.528,9.7500,-0.4400,-0.0600,0.3125,-0.0625,0.3125,-0.6715,0.2303,-0.6758,-0.1984,
2025-03-07 13:03:11.538,9.7400,-0.4500,-0.0600,0.4375,0.0000,0.5625,-0.6715,0.2303,-0.6758,-0.1984,
2025-03-07 13:03:11.554,9.7700,-0.4200,-0.0500,0.4375,0.0000,0.5625,-0.6715,0.2303,-0.6758,-0.1984,
2025-03-07 13:03:11.560,9.7800,-0.4100,-0.0600,0.8750,-0.0625,0.5625,-0.6715,0.2303,-0.6758,-0.1983,
2025-03-07 13:03:11.568,9.7800,-0.4000,-0.0600,0.9375,-0.1875,0.6875,-0.6715,0.2303,-0.6758,-0.1982,
2025-03-07 13:03:11.578,9.8300,-0.4000,-0.0800,0.8750,0.0000,0.5625,-0.6715,0.2303,-0.6759,-0.1981,
2025-03-07 13:03:11.581,9.8300,-0.4000,-0.1000,0.8125,-0.1875,0.6250,-0.6715,0.2302,-0.6759,-0.1981,
2025-03-07 13:03:11.592,9.8200,-0.3800,-0.0900,0.5625,0.0000,0.5000,-0.6715,0.2302,-0.6759,-0.1980,
2025-03-07 13:03:11.601,9.7700,-0.3900,-0.0800,0.3125,0.0625,0.3750,-0.6715,0.2302,-0.6759,-0.1980,
2025-03-07 13:03:11.646,9.8100,-0.4200,-0.0700,-0.0625,0.0000,0.4375,-0.6715,0.2302,-0.6759,-0.1980,
2025-03-07 13:03:11.652,9.8200,-0.4300,-0.0800,-0.3750,0.1250,0.3125,-0.6715,0.2302,-0.6759,-0.1980,
2025-03-07 13:03:11.652,9.7900,-0.4900,-0.0600,-0.3750,0.1250,0.3125,-0.6715,0.2302,-0.6759,-0.1980,
2025-03-07 13:03:11.652,9.7800,-0.4900,-0.0700,-0.3750,0.1250,0.3125,-0.6715,0.2302,-0.6759,-0.1980,
2025-03-07 13:03:11.660,9.7700,-0.4700,-0.0500,0.1250,0.0625,0.0000,-0.6715,0.2302,-0.6759,-0.1980,
2025-03-07 13:03:11.668,9.7500,-0.4600,-0.0900,0.4375,-0.1250,0.1250,-0.6715,0.2302,-0.6759,-0.1980,
2025-03-07 13:03:11.678,9.7400,-0.4500,-0.0700,0.6250,-0.1875,0.1250,-0.6715,0.2302,-0.6759,-0.1980,
2025-03-07 13:03:11.690,9.7200,-0.4200,-0.0700,0.6250,-0.1250,0.0000,-0.6716,0.2302,-0.6759,-0.1980,
2025-03-07 13:03:11.697,9.7100,-0.4300,-0.0500,0.6250,-0.1250,0.0000,-0.6716,0.2302,-0.6759,-0.1979,
2025-03-07 13:03:11.708,9.7300,-0.4000,-0.0300,0.4375,-0.1875,0.0000,-0.6716,0.2301,-0.6760,-0.1979,
2025-03-07 13:03:11.717,9.7600,-0.4100,-0.0700,0.3125,-0.1875,-0.1250,-0.6716,0.2301,-0.6760,-0.1979,
2025-03-07 13:03:11.731,9.7500,-0.4300,-0.0700,0.0625,-0.0625,-0.0625,-0.6716,0.2301,-0.6760,-0.1979,
2025-03-07 13:03:11.737,9.7600,-0.4400,-0.0700,0.0000,0.0000,0.0625,-0.6716,0.2301,-0.6760,-0.1979,
2025-03-07 13:03:11.747,9.7700,-0.4400,-0.0900,0.0000,0.0000,0.0625,-0.6716,0.2301,-0.6760,-0.1979,
2025-03-07 13:03:11.757,9.7800,-0.4600,-0.0700,0.0000,-0.1250,-0.1250,-0.6716,0.2301,-0.6760,-0.1979,
2025-03-07 13:03:11.767,9.7700,-0.4700,-0.0900,-0.0625,-0.3125,0.1250,-0.6716,0.2301,-0.6760,-0.1979,
2025-03-07 13:03:11.777,9.8000,-0.4600,-0.1000,0.0625,-0.3125,0.3125,-0.6716,0.2301,-0.6760,-0.1979,
2025-03-07 13:03:11.797,9.8200,-0.4700,-0.0700,0.1875,-0.2500,0.1875,-0.6716,0.2301,-0.6760,-0.1979,
2025-03-07 13:03:11.797,9.8100,-0.4700,-0.0100,0.1875,-0.2500,0.1875,-0.6716,0.2301,-0.6760,-0.1979,
2025-03-07 13:03:11.802,9.8300,-0.4700,-0.0400,0.5625,-0.1875,0.2500,-0.6716,0.2301,-0.6760,-0.1979,
2025-03-07 13:03:11.812,9.8100,-0.4500,-0.0200,0.6875,0.0000,0.2500,-0.6716,0.2301,-0.6760,-0.1979,
2025-03-07 13:03:11.829,9.8000,-0.4400,-0.0600,0.7500,-0.0625,0.2500,-0.6716,0.2300,-0.6760,-0.1979,
2025-03-07 13:03:11.837,9.7600,-0.4600,-0.0500,0.8750,-0.1250,0.3125,-0.6716,0.2300,-0.6760,-0.1978,
2025-03-07 13:03:11.856,9.7600,-0.4300,-0.0600,0.8750,-0.1250,0.3125,-0.6716,0.2300,-0.6760,-0.1978,
2025-03-07 13:03:11.862,9.7900,-0.4100,-0.0500,1.0000,-0.3125,0.6875,-0.6716,0.2299,-0.6760,-0.1977,
2025-03-07 13:03:11.868,9.7900,-0.3600,-0.0900,1.0000,-0.1250,0.8125,-0.6716,0.2299,-0.6760,-0.1976,
2025-03-07 13:03:11.878,9.7700,-0.3400,-0.1000,0.6875,-0.1875,0.8750,-0.6716,0.2299,-0.6761,-0.1975,
2025-03-07 13:03:11.888,9.7700,-0.3400,-0.1200,0.1250,0.0625,0.8750,-0.6716,0.2299,-0.6761,-0.1974,
2025-03-07 13:03:11.894,9.7700,-0.3400,-0.1000,0.1250,0.0625,0.8750,-0.6716,0.2299,-0.6761,-0.1974,
2025-03-07 13:03:11.908,9.7700,-0.3700,-0.0900,-1.0625,-0.2500,0.8125,-0.6716,0.2300,-0.6761,-0.1973,
2025-03-07 13:03:11.949,9.7500,-0.3800,-0.0500,-1.5625,-0.1250,0.7500,-0.6716,0.2301,-0.6761,-0.1973,
2025-03-07 13:03:11.949,9.7600,-0.4400,-0.1000,-1.8125,0.0625,0.6875,-0.6715,0.2302,-0.6761,-0.1974,
2025-03-07 13:03:11.949,9.7500,-0.4600,-0.1100,-2.1250,-0.1875,0.6875,-0.6715,0.2303,-0.6761,-0.1975,
2025-03-07 13:03:11.949,9.7600,-0.5000,-0.1200,-2.1250,-0.1875,0.6875,-0.6714,0.2305,-0.6761,-0.1975,
2025-03-07 13:03:11.957,9.7900,-0.5500,-0.0800,-2.0000,0.0000,0.6250,-0.6714,0.2307,-0.6760,-0.1976,
2025-03-07 13:03:11.967,9.8100,-0.5800,-0.0800,-1.1250,-0.1250,0.7500,-0.6713,0.2308,-0.6760,-0.1977,
2025-03-07 13:03:11.978,9.7800,-0.5400,-0.0700,-0.1875,-0.3750,0.6250,-0.6713,0.2310,-0.6760,-0.1977,
2025-03-07 13:03:11.988,9.7700,-0.4700,-0.1000,0.2500,-0.5625,0.6250,-0.6713,0.2310,-0.6760,-0.1976,
2025-03-07 13:03:11.998,9.7600,-0.3700,-0.0900,0.2500,-0.5625,0.6250,-0.6713,0.2310,-0.6760,-0.1976,
2025-03-07 13:03:12.009,9.7600,-0.3800,-0.0800,-0.5625,-0.4375,0.1250,-0.6713,0.2310,-0.6760,-0.1976,
2025-03-07 13:03:12.018,9.7900,-0.4600,-0.0700,-0.9375,-0.1875,0.0625,-0.6713,0.2310,-0.6760,-0.1976,
2025-03-07 13:03:12.030,9.8400,-0.5200,-0.1000,-1.1875,0.0625,0.3125,-0.6713,0.2311,-0.6760,-0.1977,
2025-03-07 13:03:12.038,9.8500,-0.5600,-0.0800,-1.1250,0.0000,0.1250,-0.6712,0.2311,-0.6760,-0.1978,
2025-03-07 13:03:12.046,9.8200,-0.5300,-0.0700,-1.1250,0.0000,0.1250,-0.6712,0.2312,-0.6760,-0.1978,
2025-03-07 13:03:12.058,9.8200,-0.5100,-0.0600,-0.8125,-0.5625,0.0625,-0.6712,0.2313,-0.6759,-0.1979,
2025-03-07 13:03:12.068,9.7900,-0.5100,-0.0800,-0.5625,-0.6250,0.0625,-0.6712,0.2313,-0.6759,-0.1979,
2025-03-07 13:03:12.078,9.7500,-0.4900,-0.0700,0.0625,-0.3750,0.1250,-0.6712,0.2313,-0.6759,-0.1979,
2025-03-07 13:03:12.090,9.7300,-0.4800,-0.0400,0.5625,-0.3125,0.3750,-0.6712,0.2313,-0.6759,-0.1979,
2025-03-07 13:03:12.097,9.7400,-0.4700,-0.0200,0.5625,-0.3125,0.3750,-0.6712,0.2313,-0.6759,-0.1979,
2025-03-07 13:03:12.120,9.7300,-0.4300,-0.0600,0.5000,0.0000,0.4375,-0.6712,0.2313,-0.6759,-0.1978,
2025-03-07 13:03:12.120,9.7300,-0.4200,-0.0800,0.1875,-0.1250,0.4375,-0.6712,0.2313,-0.6759,-0.1978,
2025-03-07 13:03:12.120,9.7400,-0.4000,-0.0900,-0.3125,-0.2500,0.6875,-0.6712,0.2313,-0.6759,-0.1978,
2025-03-07 13:03:12.147,9.7800,-0.4800,-0.0800,-0.1875,-0.3125,0.8125,-0.6712,0.2313,-0.6759,-0.1978,
2025-03-07 13:03:12.184,9.7800,-0.4700,-0.0800,0.2500,-0.0625,0.8125,-0.6712,0.2314,-0.6759,-0.1977,
2025-03-07 13:03:12.186,9.7800,-0.4700,-0.0700,0.1875,-0.1250,1.0000,-0.6711,0.2314,-0.6760,-0.1976,
2025-03-07 13:03:12.186,9.8100,-0.4700,-0.1000,0.2500,-0.3125,0.8750,-0.6711,0.2315,-0.6760,-0.1976,
2025-03-07 13:03:12.189,9.8100,-0.4800,-0.0600,0.1250,-0.3125,0.8750,-0.6711,0.2316,-0.6760,-0.1976,
2025-03-07 13:03:12.207,9.8200,-0.4900,-0.0800,0.1250,-0.3125,0.8750,-0.6711,0.2316,-0.6760,-0.1975,
2025-03-07 13:03:12.208,9.8100,-0.4400,-0.1000,0.1250,-0.3750,0.6250,-0.6711,0.2317,-0.6760,-0.1974,
2025-03-07 13:03:12.240,9.7900,-0.4900,-0.1000,-0.0625,-0.3125,0.5625,-0.6711,0.2317,-0.6760,-0.1974,
2025-03-07 13:03:12.240,9.8000,-0.4700,-0.1000,-0.1250,-0.1875,0.5000,-0.6711,0.2317,-0.6760,-0.1974,
2025-03-07 13:03:12.240,9.8100,-0.5100,-0.0700,-0.0625,-0.0625,0.3750,-0.6711,0.2317,-0.6760,-0.1974,
2025-03-07 13:03:12.240,9.7900,-0.5500,-0.0500,-0.0625,-0.0625,0.3750,-0.6711,0.2317,-0.6760,-0.1974,
2025-03-07 13:03:12.251,9.7700,-0.5200,-0.0900,0.1875,-0.4375,0.3750,-0.6711,0.2317,-0.6760,-0.1974,
2025-03-07 13:03:12.276,9.7800,-0.4800,-0.1100,0.1875,-0.4375,0.1875,-0.6711,0.2317,-0.6760,-0.1974,
2025-03-07 13:03:12.280,9.7600,-0.4700,-0.0800,0.1250,-0.4375,0.1250,-0.6711,0.2317,-0.6760,-0.1974,
2025-03-07 13:03:12.290,9.7400,-0.4500,-0.0800,0.1250,-0.0625,-0.0625,-0.6711,0.2317,-0.6760,-0.1974,
2025-03-07 13:03:12.299,9.7000,-0.4700,-0.0600,0.1250,-0.0625,-0.0625,-0.6711,0.2317,-0.6760,-0.1974,
2025-03-07 13:03:12.309,9.7000,-0.4200,-0.0700,-0.2500,-0.0625,0.1875,-0.6711,0.2317,-0.6760,-0.1974,
2025-03-07 13:03:12.320,9.7000,-0.4300,-0.0900,-0.6250,-0.1250,0.1875,-0.6711,0.2317,-0.6760,-0.1974,
2025-03-07 13:03:12.329,9.7300,-0.4600,-0.1000,-0.8125,-0.1875,-0.0625,-0.6711,0.2317,-0.6760,-0.1974,
2025-03-07 13:03:12.339,9.7500,-0.4700,-0.1000,-0.8750,-0.1875,0.2500,-0.6711,0.2318,-0.6760,-0.1975,
2025-03-07 13:03:12.359,9.8100,-0.4900,-0.1100,-0.8125,0.0625,0.2500,-0.6710,0.2319,-0.6760,-0.1976,
2025-03-07 13:03:12.370,9.8400,-0.4900,-0.1000,-0.8750,0.0625,0.3750,-0.6710,0.2319,-0.6759,-0.1976,
2025-03-07 13:03:12.395,9.8200,-0.5100,-0.0900,-0.8750,0.1875,0.3125,-0.6710,0.2320,-0.6759,-0.1977,
2025-03-07 13:03:12.395,9.8400,-0.5200,-0.0800,-0.9375,0.0625,0.2500,-0.6710,0.2321,-0.6759,-0.1978,
2025-03-07 13:03:12.407,9.7900,-0.5700,-0.0600,0.0000,0.0625,0.3125,-0.6710,0.2321,-0.6759,-0.1978,
2025-03-07 13:03:12.417,9.7800,-0.5500,-0.0600,0.3125,-0.1875,0.4375,-0.6710,0.2321,-0.6759,-0.1978,
2025-03-07 13:03:12.426,9.7900,-0.5400,-0.1000,0.5000,-0.1875,0.3750,-0.6710,0.2321,-0.6759,-0.1978,
2025-03-07 13:03:12.448,9.7700,-0.5000,-0.0900,0.5000,-0.0625,0.3750,-0.6710,0.2321,-0.6759,-0.1978,
2025-03-07 13:03:12.459,9.7500,-0.5200,-0.1100,0.5625,-0.0625,0.1875,-0.6709,0.2321,-0.6759,-0.1978,
2025-03-07 13:03:12.468,9.7700,-0.4800,-0.0800,0.3750,0.1250,0.1250,-0.6709,0.2321,-0.6759,-0.1978,
2025-03-07 13:03:12.479,9.7300,-0.5000,-0.0600,0.3750,0.1250,0.1250,-0.6709,0.2321,-0.6759,-0.1978,
2025-03-07 13:03:12.495,9.7400,-0.5100,-0.0600,0.0000,0.0000,0.0000,-0.6709,0.2321,-0.6759,-0.1978,
2025-03-07 13:03:12.540,9.7300,-0.5100,-0.1100,0.2500,-0.1875,-0.1250,-0.6709,0.2321,-0.6759,-0.1978,
2025-03-07 13:03:12.551,9.7500,-0.5100,-0.1300,0.7500,0.0000,-0.1250,-0.6710,0.2321,-0.6759,-0.1978,
2025-03-07 13:03:12.551,9.7600,-0.4800,-0.1200,0.5000,0.0000,-0.3125,-0.6710,0.2321,-0.6759,-0.1978,
2025-03-07 13:03:12.560,9.7900,-0.4500,-0.1100,0.1250,0.0000,-0.3125,-0.6710,0.2321,-0.6759,-0.1978,
2025-03-07 13:03:12.579,9.8500,-0.5700,-0.0500,-0.3125,0.1875,-0.6250,-0.6710,0.2320,-0.6759,-0.1977,
2025-03-07 13:03:12.594,9.8100,-0.5200,-0.0400,0.5625,-0.1875,-0.5000,-0.6710,0.2320,-0.6759,-0.1977,
2025-03-07 13:03:12.605,9.7000,-0.4000,-0.0500,0.6250,0.1875,-0.5000,-0.6710,0.2320,-0.6759,-0.1977,
2025-03-07 13:03:12.627,9.7400,-0.4300,-0.1400,0.1250,0.3125,-0.6875,-0.6710,0.2319,-0.6759,-0.1978,
2025-03-07 13:03:12.646,9.8300,-0.5900,-0.1200,-0.1875,0.5625,-0.6250,-0.6710,0.2318,-0.6759,-0.1979,
2025-03-07 13:03:12.659,9.8100,-0.5300,-0.1000,-0.1875,0.2500,-0.6250,-0.6710,0.2318,-0.6759,-0.1979,
2025-03-07 13:03:12.691,9.8100,-0.4700,-0.0700,0.3750,0.1250,-0.3125,-0.6710,0.2318,-0.6759,-0.1979,
2025-03-07 13:03:12.691,9.7600,-0.4900,0.0000,0.3750,0.7500,-0.1250,-0.6710,0.2317,-0.6759,-0.1980,
2025-03-07 13:03:12.710,9.7500,-0.4800,-0.0500,0.3750,0.8750,0.0000,-0.6710,0.2317,-0.6760,-0.1980,
2025-03-07 13:03:12.726,9.7600,-0.4400,-0.1200,0.5625,0.6875,-0.1250,-0.6709,0.2317,-0.6761,-0.1980,
2025-03-07 13:03:12.746,9.7700,-0.4900,-0.1500,0.1875,0.5625,-0.0625,-0.6709,0.2317,-0.6761,-0.1980,
2025-03-07 13:03:12.756,9.7800,-0.4800,-0.1200,0.0625,0.5000,0.0000,-0.6709,0.2317,-0.6761,-0.1980,
2025-03-07 13:03:12.785,9.7600,-0.4400,-0.0600,0.1875,0.6875,0.0625,-0.6708,0.2316,-0.6762,-0.1980,
2025-03-07 13:03:12.792,9.7600,-0.4200,-0.0500,0.0000,0.5625,0.0625,-0.6708,0.2316,-0.6762,-0.1980,
2025-03-07 13:03:12.812,9.7800,-0.4600,-0.0500,0.1250,0.4375,0.1250,-0.6708,0.2316,-0.6762,-0.1980,
2025-03-07 13:03:12.851,9.7600,-0.4600,-0.1000,0.1875,0.3125,-0.0625,-0.6708,0.2316,-0.6762,-0.1980,
2025-03-07 13:03:12.851,9.7900,-0.4400,-0.0600,-0.2500,0.4375,-0.5000,-0.6708,0.2316,-0.6762,-0.1980,
2025-03-07 13:03:12.858,9.7800,-0.4800,-0.0600,-0.5625,0.3750,-0.5625,-0.6708,0.2316,-0.6762,-0.1980,
2025-03-07 13:03:12.878,9.7900,-0.5100,-0.0900,-0.2500,0.1250,-0.4375,-0.6708,0.2316,-0.6762,-0.1980,
2025-03-07 13:03:12.888,9.7600,-0.4700,-0.0500,0.1875,0.0000,-0.4375,-0.6708,0.2316,-0.6762,-0.1980,
2025-03-07 13:03:12.909,9.7400,-0.4800,-0.0200,0.1875,0.2500,-0.4375,-0.6708,0.2316,-0.6762,-0.1980,
2025-03-07 13:03:12.929,9.7300,-0.4700,-0.0600,0.0625,0.6875,-0.3125,-0.6707,0.2316,-0.6762,-0.1981,
2025-03-07 13:03:12.946,9.7300,-0.4700,-0.0800,0.0625,0.4375,-0.1875,-0.6707,0.2316,-0.6762,-0.1981,
2025-03-07 13:03:12.956,9.7900,-0.4900,-0.0900,0.2500,0.2500,-0.1250,-0.6707,0.2316,-0.6762,-0.1981,
2025-03-07 13:03:12.980,9.8200,-0.4600,-0.0700,0.2500,0.5625,0.0625,-0.6707,0.2316,-0.6762,-0.1981,
2025-03-07 13:03:12.992,9.7900,-0.4700,-0.0300,-0.2500,0.6250,0.0625,-0.6707,0.2316,-0.6763,-0.1981,
2025-03-07 13:03:13.002,9.8200,-0.4800,-0.0200,-0.3125,0.5625,0.0000,-0.6707,0.2316,-0.6763,-0.1981,
2025-03-07 13:03:13.021,9.8000,-0.5200,-0.0500,0.1250,0.5000,0.2500,-0.6707,0.2316,-0.6763,-0.1981,
2025-03-07 13:03:13.050,9.7900,-0.5000,-0.0700,0.5625,0.4375,0.1250,-0.6707,0.2316,-0.6763,-0.1981,
2025-03-07 13:03:13.056,9.7900,-0.4800,-0.0600,0.5625,0.4375,0.1875,-0.6707,0.2316,-0.6763,-0.1981,
2025-03-07 13:03:13.078,9.7500,-0.4200,-0.1100,0.5000,0.1875,-0.0625,-0.6707,0.2316,-0.6763,-0.1981,
2025-03-07 13:03:13.099,9.7500,-0.4400,-0.0600,0.1250,-0.0625,0.0000,-0.6707,0.2316,-0.6763,-0.1981,
2025-03-07 13:03:13.108,9.7000,-0.4000,-0.0500,-0.1875,0.0000,-0.1250,-0.6707,0.2316,-0.6763,-0.1981,
2025-03-07 13:03:13.150,9.7300,-0.3900,-0.0400,-0.6250,-0.1250,0.0625,-0.6706,0.2316,-0.6763,-0.1981,
2025-03-07 13:03:13.150,9.7800,-0.5100,-0.0100,-0.8750,0.0000,0.0625,-0.6706,0.2317,-0.6763,-0.1982,
2025-03-07 13:03:13.150,9.7700,-0.4800,-0.0300,-0.7500,0.2500,0.0625,-0.6706,0.2318,-0.6762,-0.1982,
2025-03-07 13:03:13.158,9.7800,-0.5100,-0.0200,-0.3750,0.3750,-0.1250,-0.6706,0.2318,-0.6762,-0.1982,
2025-03-07 13:03:13.188,9.7900,-0.5000,-0.0500,-0.4375,0.6875,-0.0625,-0.6705,0.2318,-0.6763,-0.1982,
2025-03-07 13:03:13.200,9.8000,-0.5000,-0.0500,-0.6250,0.7500,-0.3750,-0.6705,0.2318,-0.6763,-0.1983,
2025-03-07 13:03:13.200,9.8400,-0.5200,-0.0500,-0.6250,0.4375,-0.5000,-0.6705,0.2318,-0.6763,-0.1983,
2025-03-07 13:03:13.208,9.8700,-0.5400,-0.0200,-0.4375,0.6250,-0.3750,-0.6705,0.2318,-0.6763,-0.1984,
2025-03-07 13:03:13.229,9.8100,-0.5100,-0.0300,0.0000,0.6250,-0.2500,-0.6704,0.2318,-0.6763,-0.1984,
2025-03-07 13:03:13.229,9.7800,-0.4500,-0.0100,0.3125,0.5625,-0.2500,-0.6704,0.2318,-0.6763,-0.1984,
2025-03-07 13:03:13.240,9.7100,-0.3900,-0.0400,0.5000,0.3125,-0.1875,-0.6704,0.2318,-0.6763,-0.1984,
2025-03-07 13:03:13.248,9.7200,-0.4500,-0.0400,0.3125,0.5625,-0.3125,-0.6704,0.2318,-0.6763,-0.1984,
2025-03-07 13:03:13.258,9.7600,-0.5100,-0.0200,0.0000,0.8750,-0.2500,-0.6704,0.2318,-0.6764,-0.1984,
2025-03-07 13:03:13.268,9.7700,-0.5400,-0.0400,-0.1875,0.8750,-0.1875,-0.6703,0.2318,-0.6765,-0.1984,
2025-03-07 13:03:13.279,9.7600,-0.5200,-0.0800,-0.0625,1.0000,-0.3125,-0.6703,0.2317,-0.6765,-0.1984,
2025-03-07 13:03:13.287,9.7900,-0.5200,-0.0600,0.3125,0.5625,-0.3750,-0.6703,0.2317,-0.6765,-0.1984,
2025-03-07 13:03:13.287,9.8000,-0.5100,-0.0900,0.5000,0.3125,-0.3125,-0.6703,0.2317,-0.6765,-0.1984,
2025-03-07 13:03:13.309,9.7700,-0.5100,-0.0200,0.8125,0.1875,-0.2500,-0.6703,0.2317,-0.6765,-0.1984,
2025-03-07 13:03:13.319,9.7400,-0.4700,-0.0200,1.0625,0.0625,-0.0625,-0.6703,0.2317,-0.6766,-0.1983,
2025-03-07 13:03:13.320,9.7600,-0.4700,0.0000,1.2500,0.3125,-0.1250,-0.6703,0.2316,-0.6766,-0.1982,
2025-03-07 13:03:13.338,9.7700,-0.4500,0.0000,1.2500,0.3750,0.0625,-0.6704,0.2315,-0.6766,-0.1982,
2025-03-07 13:03:13.355,9.7700,-0.4500,-0.0100,0.9375,0.4375,0.1250,-0.6703,0.2314,-0.6766,-0.1981,
2025-03-07 13:03:13.360,9.7500,-0.4200,-0.0300,0.8125,0.3750,0.1875,-0.6703,0.2314,-0.6766,-0.1981,
2025-03-07 13:03:13.368,9.7500,-0.4300,-0.0600,0.6875,0.1875,0.1250,-0.6704,0.2314,-0.6767,-0.1980,
2025-03-07 13:03:13.377,9.7400,-0.4300,-0.0500,0.5000,0.0000,0.1875,-0.6704,0.2314,-0.6767,-0.1980,
2025-03-07 13:03:13.386,9.7500,-0.4400,-0.0400,0.3125,-0.0625,0.1875,-0.6704,0.2314,-0.6767,-0.1980,
2025-03-07 13:03:13.396,9.7600,-0.4600,-0.0400,0.1250,-0.0625,0.2500,-0.6704,0.2314,-0.6767,-0.1980,
2025-03-07 13:03:13.408,9.7600,-0.4800,-0.0300,0.2500,0.0000,0.1250,-0.6704,0.2314,-0.6767,-0.1980,
2025-03-07 13:03:13.459,9.7600,-0.5000,-0.0400,0.3125,0.1250,0.2500,-0.6704,0.2314,-0.6767,-0.1980,
2025-03-07 13:03:13.459,9.7700,-0.5000,-0.0400,0.3125,0.1250,0.1250,-0.6704,0.2314,-0.6767,-0.1980,
2025-03-07 13:03:13.459,9.7900,-0.5000,-0.0200,0.4375,0.0000,0.1875,-0.6704,0.2314,-0.6767,-0.1980,
2025-03-07 13:03:13.459,9.7900,-0.4800,0.0000,0.8750,0.0625,0.3125,-0.6704,0.2313,-0.6766,-0.1980,
2025-03-07 13:03:13.460,9.7900,-0.4600,-0.0100,1.1875,-0.1250,0.2500,-0.6704,0.2313,-0.6767,-0.1979,
2025-03-07 13:03:13.474,9.7500,-0.4200,-0.0100,1.1250,0.0000,0.0625,-0.6704,0.2312,-0.6767,-0.1978,
2025-03-07 13:03:13.478,9.7700,-0.4200,-0.0200,0.8750,0.0625,0.0625,-0.6704,0.2311,-0.6767,-0.1978,
2025-03-07 13:03:13.502,9.8000,-0.4700,-0.0100,0.5000,0.2500,0.0000,-0.6704,0.2311,-0.6767,-0.1978,
2025-03-07 13:03:13.502,9.8200,-0.5000,-0.0200,0.3125,0.2500,-0.2500,-0.6704,0.2311,-0.6767,-0.1978,
2025-03-07 13:03:13.505,9.8000,-0.4700,-0.0200,0.1250,0.4375,-0.1875,-0.6704,0.2311,-0.6767,-0.1978,
2025-03-07 13:03:13.516,9.8000,-0.4700,-0.0100,0.0000,0.5000,-0.1875,-0.6704,0.2311,-0.6767,-0.1978,
2025-03-07 13:03:13.531,9.7800,-0.4900,-0.0300,0.0625,0.3750,-0.1250,-0.6704,0.2311,-0.6767,-0.1978,
2025-03-07 13:03:13.538,9.7800,-0.4800,-0.0200,0.1250,0.3125,-0.1250,-0.6704,0.2311,-0.6767,-0.1978,
2025-03-07 13:03:13.548,9.7700,-0.4900,-0.0100,0.3750,0.5625,-0.1250,-0.6704,0.2311,-0.6767,-0.1978,
2025-03-07 13:03:13.551,9.7300,-0.4400,0.0000,0.3750,0.5625,0.0000,-0.6704,0.2311,-0.6767,-0.1978,
2025-03-07 13:03:13.561,9.7300,-0.4200,-0.0100,0.3125,0.3750,-0.1875,-0.6704,0.2311,-0.6767,-0.1978,
2025-03-07 13:03:13.582,9.7200,-0.4300,-0.0300,0.0625,0.3750,-0.1250,-0.6704,0.2311,-0.6767,-0.1978,
2025-03-07 13:03:13.593,9.7300,-0.4500,-0.0500,-0.1875,0.3125,-0.2500,-0.6704,0.2311,-0.6767,-0.1978,
2025-03-07 13:03:13.595,9.7500,-0.4600,-0.0500,-0.4375,0.1875,-0.0625,-0.6704,0.2311,-0.6767,-0.1978,
2025-03-07 13:03:13.611,9.7500,-0.4700,-0.0500,-0.5625,0.1250,-0.1875,-0.6704,0.2311,-0.6767,-0.1978,
2025-03-07 13:03:13.617,9.7600,-0.4800,-0.0400,-0.7500,0.1875,-0.1875,-0.6704,0.2312,-0.6767,-0.1978,
2025-03-07 13:03:13.638,9.7800,-0.4900,-0.0400,-0.7500,0.0625,-0.3750,-0.6704,0.2312,-0.6767,-0.1979,
2025-03-07 13:03:13.641,9.7900,-0.5000,-0.0400,-0.8750,0.1875,-0.1875,-0.6704,0.2313,-0.6767,-0.1979,
2025-03-07 13:03:13.641,9.8000,-0.4900,-0.0200,-0.5625,0.0000,-0.1875,-0.6704,0.2313,-0.6767,-0.1979,
2025-03-07 13:03:13.658,9.8000,-0.5100,-0.0200,-0.6250,-0.2500,-0.2500,-0.6704,0.2313,-0.6767,-0.1979,
2025-03-07 13:03:13.668,9.7900,-0.5000,-0.0100,-0.4375,-0.2500,-0.0625,-0.6704,0.2313,-0.6767,-0.1979,
2025-03-07 13:03:13.683,9.7800,-0.5200,-0.0500,-0.4375,-0.2500,-0.1875,-0.6704,0.2313,-0.6767,-0.1979,
2025-03-07 13:03:13.683,9.8000,-0.4600,-0.0400,-0.3125,-0.2500,-0.2500,-0.6704,0.2313,-0.6767,-0.1979,
2025-03-07 13:03:13.693,9.7700,-0.4500,-0.0300,-0.3125,-0.2500,-0.2500,-0.6704,0.2313,-0.6767,-0.1979,
2025-03-07 13:03:13.741,9.7500,-0.4700,-0.0400,-0.1250,-0.1875,-0.1875,-0.6704,0.2313,-0.6767,-0.1979,
2025-03-07 13:03:13.741,9.7700,-0.4700,-0.0500,0.1250,-0.3125,-0.3125,-0.6704,0.2313,-0.6767,-0.1979,
2025-03-07 13:03:13.755,9.7700,-0.4700,-0.0400,-0.0625,-0.2500,-0.0625,-0.6704,0.2313,-0.6767,-0.1979,
2025-03-07 13:03:13.755,9.7400,-0.4300,-0.0200,-0.1875,-0.2500,-0.0625,-0.6704,0.2313,-0.6767,-0.1979,
2025-03-07 13:03:13.755,9.7600,-0.4300,0.0000,-0.2500,-0.1875,-0.1875,-0.6704,0.2313,-0.6767,-0.1979,
2025-03-07 13:03:13.763,9.7700,-0.4100,-0.0200,-0.5000,-0.2500,-0.1250,-0.6704,0.2313,-0.6767,-0.1979,
2025-03-07 13:03:13.767,9.7800,-0.4300,-0.0500,-0.7500,-0.1250,-0.0625,-0.6704,0.2314,-0.6767,-0.1980,
2025-03-07 13:03:13.778,9.7900,-0.4500,-0.0400,-1.0000,-0.1875,0.0625,-0.6703,0.2314,-0.6766,-0.1981,
2025-03-07 13:03:13.801,9.7700,-0.4600,-0.0300,-1.1250,-0.0625,-0.0625,-0.6703,0.2315,-0.6766,-0.1981,
2025-03-07 13:03:13.801,9.7600,-0.4800,-0.0300,-1.0625,-0.2500,-0.2500,-0.6703,0.2316,-0.6766,-0.1982,
2025-03-07 13:03:13.814,9.7700,-0.4800,-0.0300,-0.7500,-0.0625,-0.2500,-0.6703,0.2316,-0.6766,-0.1982,
2025-03-07 13:03:13.814,9.7800,-0.4700,-0.0400,-0.5625,0.1250,-0.0625,-0.6703,0.2316,-0.6766,-0.1982,
2025-03-07 13:03:13.826,9.7600,-0.4500,-0.0800,-0.6250,0.1250,-0.0625,-0.6703,0.2316,-0.6766,-0.1982,
2025-03-07 13:03:13.832,9.7700,-0.4700,-0.0400,-0.6875,0.0625,-0.1250,-0.6703,0.2317,-0.6766,-0.1983,
2025-03-07 13:03:13.846,9.7900,-0.4900,-0.0400,-0.6875,-0.1250,-0.1250,-0.6703,0.2317,-0.6765,-0.1984,
2025-03-07 13:03:13.857,9.8300,-0.4900,0.0200,-0.8125,-0.1250,-0.1875,-0.6703,0.2317,-0.6765,-0.1984,
2025-03-07 13:03:13.868,9.8400,-0.5000,0.0400,-0.8750,-0.1250,-0.1875,-0.6702,0.2318,-0.6765,-0.1984,
2025-03-07 13:03:13.877,9.7600,-0.4500,0.0400,-0.5000,-0.2500,-0.1250,-0.6702,0.2318,-0.6765,-0.1984,
2025-03-07 13:03:13.881,9.7400,-0.4100,0.0100,0.1875,0.0625,-0.1875,-0.6702,0.2318,-0.6765,-0.1984,
2025-03-07 13:03:13.895,9.7500,-0.3800,-0.0500,0.5000,-0.0625,0.0000,-0.6702,0.2318,-0.6765,-0.1984,
2025-03-07 13:03:13.902,9.7600,-0.4000,-0.0500,0.3125,0.1875,0.0000,-0.6702,0.2318,-0.6765,-0.1984,
2025-03-07 13:03:13.922,9.8000,-0.4700,-0.0900,-0.3125,0.3125,0.0000,-0.6702,0.2318,-0.6765,-0.1984,
2025-03-07 13:03:13.927,9.7900,-0.4700,-0.0800,-0.6250,0.4375,0.0000,-0.6702,0.2318,-0.6765,-0.1985,
2025-03-07 13:03:13.937,9.8000,-0.4800,-0.0800,-0.6250,0.3125,-0.0625,-0.6702,0.2319,-0.6765,-0.1985,
2025-03-07 13:03:13.946,9.8100,-0.4700,-0.0900,-0.4375,-0.1250,-0.0625,-0.6702,0.2319,-0.6765,-0.1985,
2025-03-07 13:03:13.957,9.7900,-0.4600,-0.0500,-0.1250,-0.3125,-0.1875,-0.6702,0.2319,-0.6765,-0.1985,
2025-03-07 13:03:13.967,9.7600,-0.4600,-0.0200,-0.1875,-0.3125,-0.0625,-0.6702,0.2319,-0.6765,-0.1985,
2025-03-07 13:03:13.978,9.7500,-0.4800,0.0000,-0.1875,-0.1250,0.0625,-0.6702,0.2319,-0.6765,-0.1985,
2025-03-07 13:03:13.987,9.7300,-0.4100,0.0100,-0.2500,-0.0625,0.1875,-0.6702,0.2319,-0.6765,-0.1985,
2025-03-07 13:03:13.995,9.7300,-0.4100,0.0100,-0.3750,0.0625,0.2500,-0.6702,0.2319,-0.6765,-0.1985,
2025-03-07 13:03:14.046,9.7300,-0.4200,-0.0200,-0.5000,-0.1250,0.1875,-0.6702,0.2319,-0.6765,-0.1985,
2025-03-07 13:03:14.072,9.7800,-0.4500,-0.0500,-0.6875,-0.1250,0.3750,-0.6702,0.2319,-0.6765,-0.1985,
2025-03-07 13:03:14.072,9.7800,-0.4600,-0.0500,-0.8125,-0.1250,0.3750,-0.6702,0.2319,-0.6764,-0.1986,
2025-03-07 13:03:14.072,9.8100,-0.4500,-0.0400,-0.9375,-0.1875,0.5625,-0.6702,0.2320,-0.6765,-0.1987,
2025-03-07 13:03:14.072,9.8000,-0.4900,-0.0300,-1.0625,0.0000,0.4375,-0.6702,0.2321,-0.6764,-0.1987,
2025-03-07 13:03:14.073,9.8000,-0.4900,-0.0100,-1.1250,0.2500,0.5625,-0.6702,0.2321,-0.6764,-0.1988,
2025-03-07 13:03:14.073,9.7900,-0.5000,-0.0100,-1.0625,0.5000,0.6875,-0.6701,0.2322,-0.6764,-0.1988,
2025-03-07 13:03:14.077,9.7800,-0.4500,-0.0300,-0.6875,0.8750,0.4375,-0.6701,0.2322,-0.6764,-0.1989,
2025-03-07 13:03:14.079,9.8100,-0.4100,-0.0300,-0.5000,0.7500,0.5000,-0.6700,0.2322,-0.6765,-0.1989,
2025-03-07 13:03:14.090,9.8100,-0.4400,-0.0200,-0.6875,0.7500,0.8125,-0.6699,0.2323,-0.6765,-0.1989,
2025-03-07 13:03:14.111,9.8000,-0.4500,-0.0200,-1.1875,0.9375,0.6250,-0.6699,0.2324,-0.6765,-0.1989,
2025-03-07 13:03:14.111,9.7700,-0.4800,0.0100,-1.5625,1.0000,0.5000,-0.6698,0.2325,-0.6766,-0.1990,
2025-03-07 13:03:14.137,9.7300,-0.4700,0.0000,-1.3750,0.9375,0.1250,-0.6697,0.2325,-0.6766,-0.1992,
2025-03-07 13:03:14.145,9.7700,-0.4700,0.0100,-1.2500,0.6250,-0.2500,-0.6696,0.2326,-0.6766,-0.1992,
2025-03-07 13:03:14.145,9.8100,-0.5100,0.0000,-1.1250,0.4375,-0.2500,-0.6696,0.2327,-0.6766,-0.1993,
2025-03-07 13:03:14.162,9.7900,-0.5100,-0.0400,-1.0625,0.6250,-0.0625,-0.6696,0.2327,-0.6766,-0.1993,
2025-03-07 13:03:14.177,9.8300,-0.5200,-0.0100,-0.8750,0.6875,-0.1250,-0.6695,0.2328,-0.6766,-0.1994,
2025-03-07 13:03:14.177,9.8100,-0.5200,-0.0200,-0.6250,0.3750,-0.0625,-0.6695,0.2328,-0.6766,-0.1995,
2025-03-07 13:03:14.190,9.8000,-0.4900,0.0000,-0.3125,0.1875,-0.4375,-0.6695,0.2328,-0.6766,-0.1995,
2025-03-07 13:03:14.196,9.7800,-0.4200,0.0100,0.0625,0.0625,-0.3750,-0.6695,0.2328,-0.6766,-0.1995,
2025-03-07 13:03:14.206,9.7900,-0.4200,-0.0100,0.1250,-0.1250,-0.6250,-0.6695,0.2328,-0.6766,-0.1995,
2025-03-07 13:03:14.211,9.7500,-0.4200,-0.0200,-0.4375,0.0000,-0.5000,-0.6695,0.2328,-0.6766,-0.1995,
2025-03-07 13:03:14.221,9.7600,-0.4500,-0.0500,-0.6875,0.4375,-0.2500,-0.6695,0.2328,-0.6766,-0.1995,
2025-03-07 13:03:14.231,9.7400,-0.4600,-0.0300,-0.8125,0.3125,-0.2500,-0.6695,0.2328,-0.6766,-0.1996,
2025-03-07 13:03:14.242,9.8000,-0.4900,-0.0300,-1.1250,0.5000,-0.2500,-0.6695,0.2329,-0.6765,-0.1996,
2025-03-07 13:03:14.260,9.8100,-0.5000,-0.0600,-0.7500,0.3125,-0.1250,-0.6694,0.2330,-0.6765,-0.1997,
2025-03-07 13:03:14.266,9.8500,-0.4300,-0.0900,-0.5000,0.3750,0.2500,-0.6694,0.2330,-0.6765,-0.1997,
2025-03-07 13:03:14.281,9.9200,-0.4000,-0.1000,-0.4375,0.5625,0.3750,-0.6694,0.2330,-0.6765,-0.1997,
2025-03-07 13:03:14.286,9.9700,-0.3900,-0.0900,-1.1875,0.7500,0.1875,-0.6694,0.2330,-0.6766,-0.1998,
2025-03-07 13:03:14.296,9.9500,-0.4100,0.0000,-2.4375,1.5000,-0.2500,-0.6693,0.2332,-0.6766,-0.2000,
2025-03-07 13:03:14.307,9.9000,-0.4300,0.0500,-3.6250,2.3125,-0.6875,-0.6691,0.2333,-0.6766,-0.2002,
2025-03-07 13:03:14.361,9.8600,-0.4700,0.1200,-4.3750,2.8750,-0.9375,-0.6689,0.2334,-0.6767,-0.2006,
2025-03-07 13:03:14.370,9.8200,-0.4800,0.1200,-4.3125,3.0000,-0.9375,-0.6686,0.2336,-0.6768,-0.2009,
2025-03-07 13:03:14.370,9.7800,-0.4700,0.1600,-3.8750,2.8125,-0.7500,-0.6684,0.2337,-0.6768,-0.2013,
2025-03-07 13:03:14.370,9.8200,-0.5000,0.1000,-3.5625,2.6250,-0.4375,-0.6682,0.2338,-0.6769,-0.2015,
2025-03-07 13:03:14.370,9.8200,-0.5600,0.0500,-3.1875,2.6250,-0.1875,-0.6680,0.2340,-0.6770,-0.2018,
2025-03-07 13:03:14.370,9.8500,-0.6100,-0.0500,-3.0000,2.9375,0.2500,-0.6678,0.2341,-0.6771,-0.2020,
2025-03-07 13:03:14.376,9.8600,-0.5800,-0.0500,-2.3750,3.4375,0.3125,-0.6675,0.2342,-0.6772,-0.2022,
2025-03-07 13:03:14.387,9.8400,-0.5300,-0.0300,-1.9375,4.1250,0.1250,-0.6673,0.2343,-0.6774,-0.2024,
2025-03-07 13:03:14.398,9.8500,-0.4900,0.0000,-1.9375,4.7500,0.3125,-0.6669,0.2343,-0.6777,-0.2026,
2025-03-07 13:03:14.402,9.8000,-0.4100,0.1000,-2.3125,5.5625,0.3125,-0.6666,0.2343,-0.6780,-0.2028,
2025-03-07 13:03:14.418,9.8000,-0.4200,0.1400,-2.8125,6.2500,0.3750,-0.6662,0.2344,-0.6782,-0.2031,
2025-03-07 13:03:14.431,9.8100,-0.4300,0.1900,-3.3750,6.7500,0.4375,-0.6657,0.2344,-0.6786,-0.2034,
2025-03-07 13:03:14.438,9.8400,-0.4600,0.2400,-4.1250,7.6250,0.5000,-0.6652,0.2346,-0.6789,-0.2038,
2025-03-07 13:03:14.448,10.1100,-0.5200,0.2400,-4.6250,8.3125,0.8750,-0.6647,0.2347,-0.6793,-0.2042,
2025-03-07 13:03:14.467,10.1300,-0.4900,0.2200,-4.8125,9.6250,1.3125,-0.6640,0.2349,-0.6797,-0.2046,
2025-03-07 13:03:14.471,10.0300,-0.4500,0.1800,-4.8750,12.3750,1.8750,-0.6631,0.2350,-0.6804,-0.2050,
2025-03-07 13:03:14.475,9.8400,-0.3600,0.3700,-5.1875,16.0625,2.0000,-0.6621,0.2352,-0.6812,-0.2055,
2025-03-07 13:03:14.486,9.8300,-0.4000,0.4600,-5.8125,19.0000,2.3125,-0.6609,0.2354,-0.6822,-0.2061,
2025-03-07 13:03:14.496,9.8100,-0.4700,0.4800,-5.9375,20.6875,2.6250,-0.6595,0.2355,-0.6833,-0.2067,
2025-03-07 13:03:14.506,9.8600,-0.5800,0.5800,-6.1250,21.2500,3.3125,-0.6581,0.2357,-0.6844,-0.2072,
2025-03-07 13:03:14.519,10.0300,-0.6300,0.7500,-6.6250,21.2500,3.4375,-0.6567,0.2358,-0.6855,-0.2078,
2025-03-07 13:03:14.525,10.1900,-0.7200,0.9400,-7.2500,22.0000,3.2500,-0.6552,0.2361,-0.6866,-0.2085,
2025-03-07 13:03:14.552,10.3200,-0.8300,1.1200,-7.3750,24.6250,2.8750,-0.6536,0.2362,-0.6879,-0.2092,
2025-03-07 13:03:14.552,10.3700,-0.8300,1.3600,-5.1875,28.8750,3.0000,-0.6517,0.2362,-0.6895,-0.2099,
2025-03-07 13:03:14.552,10.3300,-0.7900,1.3300,3.8750,36.5000,4.5625,-0.6496,0.2357,-0.6916,-0.2103,
2025-03-07 13:03:14.561,10.3000,-0.6200,1.3200,3.8750,36.5000,4.5625,-0.6474,0.2350,-0.6938,-0.2105,
2025-03-07 13:03:14.591,10.3300,-0.4900,1.3000,8.1250,39.2500,4.7500,-0.6451,0.2341,-0.6962,-0.2106,
2025-03-07 13:03:14.591,10.4200,-0.2900,1.3900,9.9375,42.6250,3.5625,-0.6428,0.2330,-0.6987,-0.2106,
2025-03-07 13:03:14.595,10.4900,-0.3800,1.4200,8.3125,44.1875,3.1875,-0.6402,0.2319,-0.7014,-0.2109,
2025-03-07 13:03:14.607,10.4400,-0.5000,1.4300,7.4375,46.2500,2.4375,-0.6373,0.2316,-0.7037,-0.2122,
2025-03-07 13:03:14.642,10.2700,-0.5800,1.4400,7.5000,47.8125,1.8750,-0.6345,0.2303,-0.7065,-0.2126,
2025-03-07 13:03:14.652,10.2900,-0.5000,1.3700,8.3750,48.6250,1.3750,-0.6316,0.2290,-0.7094,-0.2130,
2025-03-07 13:03:14.652,10.2500,-0.3500,1.3500,8.3125,49.6875,1.0625,-0.6287,0.2276,-0.7123,-0.2136,
2025-03-07 13:03:14.652,10.2100,-0.2700,1.3900,6.6250,51.1250,1.2500,-0.6257,0.2263,-0.7152,-0.2142,
2025-03-07 13:03:14.655,10.0600,-0.1900,1.5200,4.5000,52.1875,1.0000,-0.6224,0.2252,-0.7180,-0.2152,
2025-03-07 13:03:14.666,9.9700,-0.2500,1.6400,1.2500,53.6250,0.8750,-0.6192,0.2241,-0.7209,-0.2161,
2025-03-07 13:03:14.673,9.8700,-0.2000,1.8000,-1.4375,56.7500,1.0000,-0.6157,0.2233,-0.7238,-0.2172,
2025-03-07 13:03:14.686,9.8800,-0.1600,2.0500,-4.0625,59.9375,1.7500,-0.6119,0.2225,-0.7269,-0.2185,
2025-03-07 13:03:14.698,10.0000,-0.1400,2.1300,-7.5625,63.6250,3.6875,-0.6078,0.2220,-0.7301,-0.2198,
2025-03-07 13:03:14.705,10.0700,-0.2000,2.2100,-12.4375,67.3125,5.6250,-0.6032,0.2219,-0.7333,-0.2216,
2025-03-07 13:03:14.716,10.0800,-0.2200,2.2700,-17.8125,70.6250,7.0000,-0.5984,0.2220,-0.7367,-0.2233,
2025-03-07 13:03:14.736,10.0500,-0.3100,2.3900,-22.5625,73.0625,7.3125,-0.5933,0.2225,-0.7401,-0.2254,
2025-03-07 13:03:14.751,10.0600,-0.3400,2.5100,-26.3750,75.2500,7.0625,-0.5879,0.2230,-0.7435,-0.2277,
2025-03-07 13:03:14.751,9.9600,-0.3900,2.6400,-29.5000,77.1875,7.1250,-0.5823,0.2238,-0.7469,-0.2302,
2025-03-07 13:03:14.760,9.8400,-0.3700,2.9100,-32.6250,79.3125,7.5625,-0.5765,0.2247,-0.7503,-0.2329,
2025-03-07 13:03:14.760,9.8600,-0.3700,3.0100,-36.1875,82.0625,8.6875,-0.5704,0.2258,-0.7538,-0.2356,
2025-03-07 13:03:14.778,9.8400,-0.3600,3.0900,-40.6250,85.8750,10.1875,-0.5639,0.2271,-0.7573,-0.2385,
2025-03-07 13:03:14.795,9.8700,-0.4500,3.1800,-46.8750,89.5000,11.7500,-0.5570,0.2289,-0.7609,-0.2417,
2025-03-07 13:03:14.798,9.9900,-0.5600,3.2600,-53.2500,93.0000,13.1250,-0.5496,0.2310,-0.7645,-0.2452,
2025-03-07 13:03:14.806,10.0000,-0.6600,3.3800,-59.0000,96.6250,14.5000,-0.5418,0.2336,-0.7680,-0.2490,
2025-03-07 13:03:14.817,9.9800,-0.8200,3.5300,-63.0000,99.5625,15.3125,-0.5337,0.2363,-0.7716,-0.2529,
2025-03-07 13:03:14.826,9.9100,-0.8500,3.8200,-66.1250,102.3125,16.3125,-0.5253,0.2391,-0.7752,-0.2568,
2025-03-07 13:03:14.837,9.8000,-0.8900,3.9400,-69.6875,104.5000,18.1250,-0.5165,0.2423,-0.7788,-0.2609,
2025-03-07 13:03:14.843,9.6100,-1.0200,4.0400,-73.9375,106.7500,20.0000,-0.5074,0.2456,-0.7823,-0.2649,
2025-03-07 13:03:14.856,9.4400,-1.1300,4.1300,-78.8125,108.8750,21.4375,-0.4979,0.2494,-0.7857,-0.2693,
2025-03-07 13:03:14.859,9.4300,-1.5800,4.3100,-82.9375,111.0625,22.3750,-0.4881,0.2533,-0.7891,-0.2736,
2025-03-07 13:03:14.881,9.5500,-1.6000,4.4100,-85.8125,112.8750,24.9375,-0.4781,0.2574,-0.7924,-0.2779,
2025-03-07 13:03:14.886,9.6500,-1.7300,4.5200,-87.7500,114.6250,29.1875,-0.4677,0.2618,-0.7958,-0.2819,
2025-03-07 13:03:14.895,9.8500,-2.3200,4.8200,-89.9375,116.5625,33.0000,-0.4569,0.2663,-0.7991,-0.2858,
2025-03-07 13:03:14.948,9.6200,-2.3700,5.0100,-90.0000,119.1875,33.3125,-0.4459,0.2708,-0.8024,-0.2897,
2025-03-07 13:03:14.949,9.3100,-2.3800,5.0700,-87.1250,121.7500,33.9375,-0.4347,0.2750,-0.8058,-0.2935,
2025-03-07 13:03:14.949,8.9500,-2.6300,5.1200,-82.5625,123.3750,35.1250,-0.4234,0.2788,-0.8092,-0.2969,
2025-03-07 13:03:14.949,8.4600,-2.9000,5.3200,-77.6250,124.5000,35.2500,-0.4121,0.2822,-0.8126,-0.3002,
2025-03-07 13:03:14.949,8.5000,-2.8500,5.5400,-73.3750,124.7500,34.8125,-0.4008,0.2853,-0.8160,-0.3033,
2025-03-07 13:03:14.955,8.7600,-2.6400,5.7200,-70.4375,124.3750,37.0625,-0.3894,0.2883,-0.8194,-0.3064,
2025-03-07 13:03:14.966,8.7500,-2.8700,5.8700,-68.7500,125.1875,41.2500,-0.3779,0.2912,-0.8228,-0.3088,
2025-03-07 13:03:14.970,8.5300,-3.1800,6.1400,-64.8750,124.8125,44.0000,-0.3664,0.2938,-0.8263,-0.3109,
2025-03-07 13:03:14.980,8.5000,-3.1400,6.1100,-59.1875,123.4375,45.9375,-0.3551,0.2961,-0.8298,-0.3126,
2025-03-07 13:03:15.000,8.3700,-3.0300,6.1600,-54.8125,123.6875,48.1875,-0.3438,0.2981,-0.8333,-0.3139,
2025-03-07 13:03:15.000,7.8200,-2.9200,6.1700,-52.2500,123.7500,50.3750,-0.3319,0.3005,-0.8364,-0.3162,
2025-03-07 13:03:15.010,7.5700,-2.9400,6.1800,-52.0625,123.4375,52.0000,-0.3204,0.3023,-0.8399,-0.3171,
2025-03-07 13:03:15.030,7.3000,-2.4000,6.2700,-56.4375,122.1250,54.6250,-0.3088,0.3044,-0.8431,-0.3179,
2025-03-07 13:03:15.030,7.8100,-3.2800,6.2900,-61.0625,121.8125,56.1250,-0.2971,0.3070,-0.8462,-0.3186,
2025-03-07 13:03:15.046,7.6100,-4.2500,6.4700,-57.5000,123.8750,56.1875,-0.2852,0.3091,-0.8492,-0.3192,
2025-03-07 13:03:15.056,7.4500,-4.0700,6.6000,-50.4375,125.0000,55.0000,-0.2734,0.3107,-0.8523,-0.3198,
2025-03-07 13:03:15.066,7.2600,-3.8200,6.6500,-43.0625,124.5625,54.0000,-0.2618,0.3117,-0.8555,-0.3201,
2025-03-07 13:03:15.076,6.6900,-4.2700,6.6100,-35.3125,124.0000,52.6875,-0.2504,0.3120,-0.8587,-0.3204,
2025-03-07 13:03:15.095,6.4200,-4.2000,6.5900,-26.9375,121.1250,52.7500,-0.2396,0.3118,-0.8619,-0.3203,
2025-03-07 13:03:15.099,6.1800,-4.1100,6.6500,-19.2500,118.9375,51.9375,-0.2289,0.3110,-0.8651,-0.3200,
2025-03-07 13:03:15.105,5.9900,-4.0200,6.8000,-12.2500,117.3750,51.0000,-0.2187,0.3097,-0.8684,-0.3196,
2025-03-07 13:03:15.122,6.0100,-3.8900,6.7900,-6.8750,115.3125,50.5000,-0.2087,0.3080,-0.8716,-0.3190,
2025-03-07 13:03:15.124,6.0100,-3.8700,6.7400,-4.3750,114.0625,50.5000,-0.1988,0.3061,-0.8749,-0.3184,
2025-03-07 13:03:15.133,5.8800,-3.7300,6.7900,-2.6250,113.4375,49.7500,-0.1891,0.3041,-0.8780,-0.3176,
2025-03-07 13:03:15.149,5.5200,-3.5600,6.8800,-2.0625,112.5000,48.6250,-0.1794,0.3020,-0.8810,-0.3169,
2025-03-07 13:03:15.156,5.4100,-3.6000,6.9300,-2.8125,111.3750,47.7500,-0.1698,0.3000,-0.8838,-0.3164,
2025-03-07 13:03:15.166,5.1100,-3.5900,7.0600,-5.0000,111.1250,47.5625,-0.1602,0.2981,-0.8865,-0.3157,
2025-03-07 13:03:15.179,4.8300,-3.7300,7.2000,-8.9375,109.7500,47.7500,-0.1505,0.2964,-0.8890,-0.3150,
2025-03-07 13:03:15.179,4.5500,-4.2400,7.4600,-10.6875,108.5625,48.0625,-0.1408,0.2950,-0.8913,-0.3143,
2025-03-07 13:03:15.190,4.4400,-4.6400,7.5000,-8.8125,107.7500,46.8750,-0.1313,0.2933,-0.8936,-0.3135,
2025-03-07 13:03:15.199,4.3000,-4.7700,7.4400,-3.1875,106.5625,46.0000,-0.1220,0.2913,-0.8958,-0.3129,
2025-03-07 13:03:15.248,3.8000,-3.8300,7.1400,9.8750,107.8750,42.8750,-0.1130,0.2881,-0.8982,-0.3121,
2025-03-07 13:03:15.250,3.8100,-4.6800,7.3700,11.0625,106.1250,41.3125,-0.1042,0.2848,-0.9006,-0.3115,
2025-03-07 13:03:15.250,3.5900,-4.2100,7.5500,8.7500,101.9375,43.4375,-0.0956,0.2819,-0.9028,-0.3105,
2025-03-07 13:03:15.250,3.6200,-4.1200,7.4800,12.5625,99.8125,42.6250,-0.0873,0.2786,-0.9050,-0.3095,
2025-03-07 13:03:15.255,3.5000,-4.4800,7.4300,10.3125,96.6875,42.8750,-0.0873,0.2786,-0.9050,-0.3095,
2025-03-07 13:03:15.267,3.2700,-4.4200,7.2900,9.7500,94.2500,43.0625,-0.0788,0.2757,-0.9065,-0.3099,
2025-03-07 13:03:15.289,3.0500,-4.3200,7.1900,8.1250,91.2500,42.9375,-0.0708,0.2728,-0.9084,-0.3087,
2025-03-07 13:03:15.289,2.9800,-3.6300,7.3000,6.2500,88.7500,41.2500,-0.0630,0.2700,-0.9103,-0.3074,
2025-03-07 13:03:15.298,2.8800,-3.5700,7.4900,2.7500,87.7500,38.8125,-0.0554,0.2674,-0.9119,-0.3063,
2025-03-07 13:03:15.298,2.6700,-3.6100,7.5900,-1.6875,86.2500,36.7500,-0.0479,0.2651,-0.9134,-0.3052,
2025-03-07 13:03:15.316,2.4300,-3.7600,7.6200,-7.5000,83.6875,36.1250,-0.0403,0.2632,-0.9146,-0.3043,
2025-03-07 13:03:15.330,2.1800,-3.9300,7.9700,-12.2500,81.3125,36.0625,-0.0329,0.2617,-0.9156,-0.3034,
2025-03-07 13:03:15.333,2.0300,-4.2600,8.0800,-15.3750,79.9375,35.0625,-0.0255,0.2607,-0.9165,-0.3024,
2025-03-07 13:03:15.344,2.0000,-4.5600,8.0400,-17.5000,77.8125,34.6875,-0.0181,0.2599,-0.9172,-0.3015,
2025-03-07 13:03:15.353,1.6600,-4.7300,7.9500,-16.8125,75.3125,35.4375,-0.0109,0.2593,-0.9178,-0.3005,
2025-03-07 13:03:15.365,1.5700,-4.6900,7.9000,-14.7500,72.7500,35.3125,-0.0038,0.2587,-0.9183,-0.2996,
2025-03-07 13:03:15.376,1.5800,-4.2700,7.8900,-9.6250,71.1250,35.1875,0.0030,0.2580,-0.9189,-0.2984,
2025-03-07 13:03:15.394,1.4400,-4.1600,7.9500,-7.1250,70.6875,34.6875,0.0095,0.2570,-0.9195,-0.2972,
2025-03-07 13:03:15.398,0.8300,-4.1200,8.1500,-6.6250,70.5000,33.1875,0.0159,0.2557,-0.9202,-0.2960,
2025-03-07 13:03:15.406,0.9100,-4.3100,8.2100,-8.5625,67.6250,32.0625,0.0223,0.2544,-0.9208,-0.2949,
2025-03-07 13:03:15.423,1.0500,-4.7500,8.1000,-8.3750,64.4375,30.8750,0.0284,0.2534,-0.9212,-0.2939,
2025-03-07 13:03:15.427,0.9100,-4.6900,8.0400,-3.2500,63.0625,31.0000,0.0344,0.2523,-0.9216,-0.2928,
2025-03-07 13:03:15.431,0.5700,-4.7500,8.1500,1.6875,59.3125,29.4375,0.0400,0.2509,-0.9221,-0.2918,
2025-03-07 13:03:15.444,0.8800,-4.0500,7.8000,7.5000,56.7500,28.4375,0.0452,0.2492,-0.9227,-0.2907,
2025-03-07 13:03:15.453,0.7900,-3.7800,7.7900,5.7500,57.6875,28.1250,0.0500,0.2471,-0.9233,-0.2897,
2025-03-07 13:03:15.464,0.2000,-3.7800,8.0100,1.1250,55.5625,26.1875,0.0556,0.2450,-0.9231,-0.2910,
2025-03-07 13:03:15.476,0.0500,-4.0200,8.0300,-2.8125,53.3125,24.5000,0.0604,0.2434,-0.9235,-0.2901,
2025-03-07 13:03:15.486,-0.0600,-4.3100,8.0600,-5.4375,51.4375,23.8125,0.0652,0.2422,-0.9238,-0.2893,
2025-03-07 13:03:15.497,-0.0900,-4.5500,7.9700,-5.4375,49.1250,23.5625,0.0698,0.2412,-0.9240,-0.2885,
2025-03-07 13:03:15.507,-0.2500,-4.6100,7.7300,-2.8125,46.6250,23.0625,0.0742,0.2404,-0.9241,-0.2875,
2025-03-07 13:03:15.544,-0.2900,-4.4400,7.7000,0.5625,43.8750,21.1875,0.0784,0.2393,-0.9243,-0.2868,
2025-03-07 13:03:15.552,-0.2800,-4.2800,7.5900,2.1250,40.6250,20.0000,0.0823,0.2380,-0.9245,-0.2860,
2025-03-07 13:03:15.552,-0.4500,-3.9400,7.5500,1.6875,38.2500,20.1875,0.0858,0.2368,-0.9248,-0.2853,
2025-03-07 13:03:15.552,-0.6000,-3.9400,7.6400,-0.1875,36.6250,19.5000,0.0892,0.2355,-0.9250,-0.2845,
2025-03-07 13:03:15.552,-0.5600,-4.1900,7.5900,-3.3125,34.0000,18.5625,0.0925,0.2346,-0.9252,-0.2837,
2025-03-07 13:03:15.564,-0.6500,-4.3700,7.3400,-6.0000,31.3125,16.3750,0.0956,0.2338,-0.9253,-0.2829,
2025-03-07 13:03:15.579,-0.9500,-4.5000,7.1700,-6.3750,27.8125,15.5625,0.0985,0.2334,-0.9253,-0.2822,
2025-03-07 13:03:15.586,-0.8600,-4.3000,7.2500,-4.6875,23.6250,15.8125,0.1011,0.2331,-0.9253,-0.2815,
2025-03-07 13:03:15.596,-0.7000,-4.2000,7.4700,-5.2500,19.5625,14.5000,0.1034,0.2328,-0.9254,-0.2807,
2025-03-07 13:03:15.607,-0.6700,-4.4300,7.9200,-7.2500,15.8750,12.1250,0.1053,0.2326,-0.9254,-0.2799,
2025-03-07 13:03:15.607,-0.8100,-4.6900,7.8600,-9.0000,13.5000,10.5625,0.1070,0.2327,-0.9255,-0.2792,
2025-03-07 13:03:15.627,-1.0700,-4.8800,7.7900,-8.3125,12.2500,9.3125,0.1085,0.2330,-0.9254,-0.2785,
2025-03-07 13:03:15.639,-1.1700,-4.9100,7.6700,-5.3125,9.8750,8.5000,0.1098,0.2333,-0.9253,-0.2780,
2025-03-07 13:03:15.650,-1.3300,-4.9500,7.4100,-1.0625,7.1250,7.8125,0.1109,0.2334,-0.9253,-0.2775,
2025-03-07 13:03:15.656,-1.1800,-4.7000,7.1700,2.0000,3.2500,8.0000,0.1116,0.2332,-0.9254,-0.2770,
2025-03-07 13:03:15.663,-1.2000,-4.4000,7.2400,1.5625,0.1875,9.2500,0.1119,0.2329,-0.9257,-0.2763,
2025-03-07 13:03:15.673,-0.9500,-4.3500,8.0300,-1.6250,-2.8750,7.9375,0.1121,0.2327,-0.9259,-0.2756,
2025-03-07 13:03:15.693,-0.7800,-4.6900,8.2600,-5.5625,-4.2500,4.6875,0.1121,0.2329,-0.9261,-0.2748,
2025-03-07 13:03:15.693,-0.7100,-5.1400,8.3400,-7.7500,-4.0625,2.6875,0.1119,0.2333,-0.9261,-0.2744,
2025-03-07 13:03:15.706,-1.0100,-5.4300,8.3400,-5.0000,-3.5625,1.8750,0.1119,0.2340,-0.9261,-0.2740,
2025-03-07 13:03:15.717,-1.1700,-5.1000,7.8800,-0.3750,-5.8750,3.0000,0.1118,0.2344,-0.9260,-0.2739,
2025-03-07 13:03:15.727,-1.2600,-4.7700,7.6200,3.5000,-7.8125,5.1250,0.1114,0.2346,-0.9262,-0.2735,
2025-03-07 13:03:15.729,-1.1700,-4.4700,7.6700,4.4375,-9.4375,6.7500,0.1108,0.2344,-0.9264,-0.2730,
2025-03-07 13:03:15.744,-0.7300,-4.6300,8.7700,3.5000,-10.3750,5.2500,0.1100,0.2342,-0.9268,-0.2723,
2025-03-07 13:03:15.749,-0.4500,-5.0200,9.1100,1.9375,-11.1875,1.2500,0.1093,0.2341,-0.9270,-0.2717,
2025-03-07 13:03:15.763,-0.4900,-5.3500,8.9800,0.3125,-11.1250,-1.0625,0.1084,0.2342,-0.9272,-0.2715,
2025-03-07 13:03:15.781,-0.8600,-5.4400,8.6600,0.3750,-10.1250,-0.1250,0.1075,0.2345,-0.9273,-0.2714,
2025-03-07 13:03:15.786,-1.3300,-4.9800,8.5900,2.9375,-8.5000,0.6250,0.1067,0.2347,-0.9274,-0.2712,
2025-03-07 13:03:15.795,-1.2500,-4.9600,8.4600,6.6875,-8.2500,1.9375,0.1060,0.2347,-0.9275,-0.2709,
2025-03-07 13:03:15.806,-1.2500,-4.9600,8.4600,10.2500,-9.2500,2.8750,0.1052,0.2343,-0.9278,-0.2707,
2025-03-07 13:03:15.856,-1.0600,-4.9200,8.4900,12.8125,-10.0000,2.2500,0.1043,0.2337,-0.9281,-0.2704,
2025-03-07 13:03:15.859,-0.4400,-4.8500,9.1200,14.5000,-8.5625,-0.1250,0.1033,0.2329,-0.9285,-0.2701,
2025-03-07 13:03:15.859,-0.5400,-4.6800,8.9100,12.1875,-7.1875,-0.6250,0.1023,0.2319,-0.9289,-0.2701,
2025-03-07 13:03:15.860,-0.6700,-4.5300,8.7500,6.6250,-6.0625,0.8125,0.1014,0.2311,-0.9292,-0.2701,
2025-03-07 13:03:15.860,-0.8000,-4.8200,8.8800,1.9375,-5.0625,0.6875,0.1008,0.2308,-0.9294,-0.2700,
2025-03-07 13:03:15.861,-0.6600,-5.2100,8.8300,-0.5625,-4.6875,0.0000,0.1003,0.2307,-0.9295,-0.2698,
2025-03-07 13:03:15.872,-0.4300,-5.3300,8.7600,-0.0625,-6.4375,0.6875,0.1000,0.2308,-0.9295,-0.2697,
2025-03-07 13:03:15.884,-0.4800,-4.8700,9.1700,1.8125,-7.2500,1.3750,0.0995,0.2310,-0.9296,-0.2695,
2025-03-07 13:03:15.895,-0.4400,-4.6900,9.1400,2.6875,-6.0625,0.9375,0.0989,0.2310,-0.9297,-0.2693,
2025-03-07 13:03:15.905,-0.4400,-4.6900,9.1400,1.6250,-4.3750,0.9375,0.0984,0.2309,-0.9298,-0.2691,
2025-03-07 13:03:15.916,-0.4100,-4.5900,9.0700,0.0000,-2.3125,1.0625,0.0980,0.2309,-0.9299,-0.2690,
2025-03-07 13:03:15.932,-0.5200,-4.8400,8.9700,-1.6250,-0.7500,1.2500,0.0978,0.2309,-0.9300,-0.2689,
2025-03-07 13:03:15.937,-0.5900,-5.0400,8.8400,-2.8750,0.5000,2.1875,0.0978,0.2311,-0.9300,-0.2687,
2025-03-07 13:03:15.946,-0.6700,-5.0000,8.7800,-1.5000,1.0625,2.6250,0.0980,0.2313,-0.9300,-0.2685,
2025-03-07 13:03:15.958,-0.6700,-5.0000,8.7800,1.1875,-0.0625,3.1250,0.0981,0.2313,-0.9300,-0.2683,
2025-03-07 13:03:15.974,-0.6400,-4.8600,8.6800,2.7500,-1.5000,3.1875,0.0981,0.2312,-0.9301,-0.2681,
2025-03-07 13:03:15.977,-0.1700,-4.5300,8.8100,2.6875,-2.8750,2.1250,0.0980,0.2310,-0.9302,-0.2678,
2025-03-07 13:03:15.987,-0.2200,-4.4800,8.7500,2.0625,-2.5000,1.6250,0.0978,0.2308,-0.9303,-0.2676,
2025-03-07 13:03:16.005,-0.4400,-4.3200,8.5500,0.0000,-1.6250,1.6875,0.0976,0.2307,-0.9304,-0.2675,
2025-03-07 13:03:16.005,-0.4400,-4.3200,8.5500,-2.1250,-1.0625,1.4375,0.0975,0.2307,-0.9305,-0.2673,
2025-03-07 13:03:16.024,-0.6600,-4.4300,8.4800,-2.1875,-1.3750,0.5625,0.0975,0.2309,-0.9305,-0.2673,
2025-03-07 13:03:16.024,-0.6700,-4.7900,8.2300,-0.8750,-2.5625,-0.0625,0.0975,0.2311,-0.9304,-0.2672,
2025-03-07 13:03:16.046,-0.4600,-4.7400,8.1900,0.0625,-4.3750,-0.0625,0.0973,0.2313,-0.9304,-0.2672,
2025-03-07 13:03:16.047,-0.3800,-4.6800,8.2300,-0.8750,-5.2500,-0.1250,0.0969,0.2313,-0.9305,-0.2671,
2025-03-07 13:03:16.056,-0.3800,-4.6800,8.2300,-2.8750,-5.0625,-0.7500,0.0966,0.2315,-0.9305,-0.2670,
2025-03-07 13:03:16.071,-0.4500,-4.4600,8.3100,-6.1250,-5.2500,-1.1250,0.0963,0.2319,-0.9304,-0.2671,
2025-03-07 13:03:16.080,-0.8700,-5.0900,8.4500,-8.1875,-5.5625,-1.7500,0.0959,0.2325,-0.9303,-0.2670,
2025-03-07 13:03:16.080,-0.9600,-5.2300,8.4400,-6.6250,-5.9375,-2.2500,0.0957,0.2333,-0.9301,-0.2670,
2025-03-07 13:03:16.090,-0.7800,-5.2200,8.4500,-2.6250,-8.0000,-2.0000,0.0953,0.2340,-0.9300,-0.2670,
2025-03-07 13:03:16.151,-0.7800,-5.2200,8.4500,1.1875,-9.3750,-1.8750,0.0947,0.2344,-0.9300,-0.2670,
2025-03-07 13:03:16.153,-0.2900,-4.8700,8.5400,2.6875,-9.4375,-2.0625,0.0939,0.2345,-0.9301,-0.2667,
2025-03-07 13:03:16.153,-0.2800,-4.5000,8.5200,1.3125,-9.4375,-2.0000,0.0930,0.2346,-0.9302,-0.2667,
2025-03-07 13:03:16.155,-0.5400,-4.6600,8.5700,-2.0000,-8.2500,-2.4375,0.0922,0.2347,-0.9302,-0.2667,
2025-03-07 13:03:16.155,-0.5800,-5.0400,8.6000,-5.1875,-7.8125,-3.1250,0.0916,0.2350,-0.9302,-0.2667,
2025-03-07 13:03:16.156,-0.5800,-5.0400,8.6000,-5.8125,-8.1875,-3.8125,0.0910,0.2357,-0.9301,-0.2668,
2025-03-07 13:03:16.172,-0.5800,-5.2700,8.5800,-4.0000,-9.2500,-3.6875,0.0905,0.2363,-0.9299,-0.2668,
2025-03-07 13:03:16.178,-0.3100,-4.9000,8.5500,-1.1875,-10.0625,-3.2500,0.0897,0.2369,-0.9298,-0.2670,
2025-03-07 13:03:16.201,-0.2600,-4.7500,8.5700,-0.2500,-10.2500,-2.9375,0.0889,0.2372,-0.9298,-0.2670,
2025-03-07 13:03:16.201,-0.2200,-4.5700,8.6900,-1.6875,-10.2500,-2.8750,0.0880,0.2375,-0.9298,-0.2670,
2025-03-07 13:03:16.209,-0.2200,-4.5700,8.6900,-4.3750,-10.1250,-2.7500,0.0872,0.2379,-0.9298,-0.2670,
2025-03-07 13:03:16.216,-0.2000,-4.6600,8.9100,-6.5625,-9.1250,-2.7500,0.0867,0.2383,-0.9295,-0.2679,
2025-03-07 13:03:16.224,-0.3800,-5.0200,8.7700,-7.1875,-8.0625,-2.6250,0.0861,0.2391,-0.9293,-0.2679,
2025-03-07 13:03:16.234,-0.4200,-5.1100,8.7500,-5.5625,-7.6250,-1.8125,0.0855,0.2399,-0.9292,-0.2679,
2025-03-07 13:03:16.245,-0.3400,-5.1700,8.6000,-2.6250,-7.7500,-1.1250,0.0850,0.2405,-0.9291,-0.2678,
2025-03-07 13:03:16.255,-0.3400,-5.1700,8.6000,-0.0625,-8.3750,-0.3750,0.0845,0.2409,-0.9291,-0.2677,
2025-03-07 13:03:16.266,-0.3400,-5.0800,8.4900,0.9375,-9.1875,0.1250,0.0838,0.2411,-0.9291,-0.2676,
2025-03-07 13:03:16.290,-0.2100,-4.5800,8.5000,0.0000,-10.0625,0.6250,0.0831,0.2412,-0.9292,-0.2674,
2025-03-07 13:03:16.290,-0.3000,-4.6500,8.6100,-3.1875,-9.3750,0.7500,0.0823,0.2414,-0.9293,-0.2671,
2025-03-07 13:03:16.290,-0.3200,-4.8600,8.7600,-7.5000,-9.3125,-0.1875,0.0816,0.2419,-0.9293,-0.2668,
2025-03-07 13:03:16.303,-0.3200,-4.8600,8.7600,-9.4375,-9.0625,-1.6875,0.0811,0.2427,-0.9292,-0.2666,
2025-03-07 13:03:16.310,-0.4200,-5.1400,8.8800,-7.0625,-8.6250,-2.6250,0.0805,0.2437,-0.9291,-0.2664,
2025-03-07 13:03:16.321,-0.1600,-5.5900,8.7200,-1.3750,-9.7500,-2.3125,0.0799,0.2444,-0.9289,-0.2664,
2025-03-07 13:03:16.338,-0.0900,-5.3200,8.4800,4.8750,-11.1875,-1.2500,0.0791,0.2448,-0.9289,-0.2663,
2025-03-07 13:03:16.348,0.0200,-4.5800,8.1300,8.4375,-12.9375,0.2500,0.0781,0.2447,-0.9291,-0.2662,
2025-03-07 13:03:16.356,0.0200,-4.5800,8.1300,8.0625,-13.6250,1.0000,0.0769,0.2443,-0.9293,-0.2660,
2025-03-07 13:03:16.367,-0.1200,-4.3300,8.0700,4.1250,-14.1250,1.1875,0.0757,0.2439,-0.9295,-0.2659,
2025-03-07 13:03:16.378,-0.1700,-4.4000,8.1100,-0.9375,-14.6250,1.0000,0.0745,0.2439,-0.9298,-0.2656,
2025-03-07 13:03:16.388,0.0500,-4.8200,8.3700,-4.5000,-15.2500,0.5625,0.0734,0.2443,-0.9298,-0.2652,
2025-03-07 13:03:16.398,0.1200,-5.0800,8.5500,-6.1250,-16.3125,-0.2500,0.0723,0.2450,-0.9298,-0.2648,
2025-03-07 13:03:16.408,0.1200,-5.0800,8.5500,-5.7500,-16.9375,-0.5000,0.0712,0.2458,-0.9298,-0.2645,
2025-03-07 13:03:16.446,0.0800,-5.2500,8.5700,-3.5625,-18.2500,-0.1250,0.0700,0.2467,-0.9298,-0.2640,
2025-03-07 13:03:16.446,-0.1100,-5.0800,8.2000,-0.5000,-19.5625,0.0000,0.0687,0.2474,-0.9298,-0.2637,
2025-03-07 13:03:16.446,0.0000,-4.9400,8.0300,2.1875,-21.6250,0.2500,0.0671,0.2478,-0.9299,-0.2632,
2025-03-07 13:03:16.446,0.0300,-4.8100,7.8900,3.5625,-24.2500,0.9375,0.0654,0.2481,-0.9301,-0.2628,
2025-03-07 13:03:16.456,0.0300,-4.8100,7.8900,3.5625,-24.2500,0.9375,0.0634,0.2484,-0.9303,-0.2622,
2025-03-07 13:03:16.470,0.1900,-4.7400,8.1600,3.2500,-26.2500,1.3750,0.0611,0.2487,-0.9307,-0.2610,
2025-03-07 13:03:16.477,0.4600,-5.1300,8.6000,3.1875,-29.8750,0.5625,0.0589,0.2491,-0.9310,-0.2604,
2025-03-07 13:03:16.486,0.5500,-5.2700,8.6500,5.2500,-31.5000,0.4375,0.0565,0.2495,-0.9312,-0.2598,
2025-03-07 13:03:16.497,0.6800,-5.2100,8.4200,8.8750,-32.9375,1.1250,0.0538,0.2498,-0.9314,-0.2591,
2025-03-07 13:03:16.506,0.6800,-5.2100,8.4200,8.8750,-32.9375,1.1250,0.0511,0.2498,-0.9318,-0.2584,
2025-03-07 13:03:16.516,0.5700,-5.0100,8.3600,12.4375,-33.8125,1.8750,0.0484,0.2495,-0.9320,-0.2584,
2025-03-07 13:03:16.532,0.1200,-4.4000,8.3600,14.7500,-34.4375,2.6875,0.0455,0.2490,-0.9325,-0.2576,
2025-03-07 13:03:16.532,0.3900,-4.4300,8.6800,11.3750,-36.3125,1.9375,0.0425,0.2487,-0.9330,-0.2567,
2025-03-07 13:03:16.546,0.8000,-4.7900,8.8400,7.3125,-37.4375,0.0000,0.0394,0.2485,-0.9334,-0.2558,
2025-03-07 13:03:16.552,0.8000,-4.7900,8.8400,3.3125,-37.1250,-0.9375,0.0363,0.2487,-0.9337,-0.2550,
2025-03-07 13:03:16.567,1.0900,-5.1000,8.8100,0.0000,-35.8125,-0.8750,0.0333,0.2493,-0.9338,-0.2543,
2025-03-07 13:03:16.579,0.9100,-4.9300,8.4000,-1.2500,-34.1875,-0.8125,0.0304,0.2501,-0.9339,-0.2536,
2025-03-07 13:03:16.592,0.7000,-4.8800,8.1600,-1.0625,-33.1875,-0.8750,0.0277,0.2509,-0.9340,-0.2530,
2025-03-07 13:03:16.597,0.5000,-4.4600,8.0300,-0.7500,-33.1250,0.0000,0.0251,0.2516,-0.9340,-0.2523,
2025-03-07 13:03:16.597,0.5000,-4.4600,8.0300,-1.0000,-33.4375,1.2500,0.0225,0.2524,-0.9340,-0.2517,
2025-03-07 13:03:16.627,0.4900,-4.2400,8.4000,-2.3125,-33.3750,1.3125,0.0197,0.2532,-0.9343,-0.2501,
2025-03-07 13:03:16.627,1.0800,-4.6100,9.0900,-3.8125,-32.1875,-0.0625,0.0172,0.2542,-0.9343,-0.2492,
2025-03-07 13:03:16.640,1.4900,-5.2800,8.8300,-5.2500,-31.8750,-0.6875,0.0147,0.2551,-0.9343,-0.2485,
2025-03-07 13:03:16.647,1.4100,-5.2900,8.5500,-5.6250,-32.8750,-1.1250,0.0123,0.2562,-0.9342,-0.2479,
2025-03-07 13:03:16.653,1.4100,-5.2900,8.5500,-5.6250,-32.8750,-1.1250,0.0098,0.2573,-0.9341,-0.2473,
2025-03-07 13:03:16.663,1.2600,-5.1200,8.2500,-3.3750,-33.7500,-1.6250,0.0072,0.2583,-0.9340,-0.2468,
2025-03-07 13:03:16.673,0.6800,-4.0700,7.8400,4.9375,-33.3750,-1.1250,0.0044,0.2590,-0.9340,-0.2462,
2025-03-07 13:03:16.687,0.8900,-3.7500,8.3600,6.1250,-33.0625,-0.5000,0.0016,0.2593,-0.9341,-0.2455,
2025-03-07 13:03:16.697,1.2600,-4.1000,8.7500,5.0625,-33.1875,-0.8125,-0.0011,0.2595,-0.9342,-0.2448,
2025-03-07 13:03:16.706,1.2600,-4.1000,8.7500,5.0625,-33.1875,-0.8125,-0.0038,0.2597,-0.9343,-0.2441,
2025-03-07 13:03:16.747,1.7800,-5.2400,8.7000,0.6250,-32.6875,-1.6875,-0.0065,0.2604,-0.9343,-0.2433,
2025-03-07 13:03:16.749,1.4900,-5.1200,8.3100,-4.0000,-32.5000,-3.8125,-0.0090,0.2614,-0.9341,-0.2429,
2025-03-07 13:03:16.749,1.2600,-4.6100,7.7700,-2.5000,-34.0000,-4.3125,-0.0116,0.2623,-0.9339,-0.2425,
2025-03-07 13:03:16.749,1.1000,-4.4500,7.6100,-1.2500,-34.5000,-4.9375,-0.0143,0.2632,-0.9338,-0.2421,
2025-03-07 13:03:16.749,1.1000,-4.4500,7.6100,-1.2500,-34.5000,-4.9375,-0.0172,0.2640,-0.9336,-0.2417,
2025-03-07 13:03:16.766,1.1300,-4.2600,7.8900,-0.7500,-34.6875,-4.7500,-0.0200,0.2648,-0.9334,-0.2412,
2025-03-07 13:03:16.779,2.0000,-4.9400,8.7600,-1.6875,-34.8125,-4.2500,-0.0229,0.2656,-0.9333,-0.2407,
2025-03-07 13:03:16.785,2.1100,-5.1100,8.8000,-6.0000,-34.5625,-4.4375,-0.0257,0.2664,-0.9331,-0.2403,
2025-03-07 13:03:16.795,2.0200,-5.1500,8.6700,-9.4375,-35.3125,-6.0000,-0.0284,0.2676,-0.9328,-0.2399,
2025-03-07 13:03:16.805,2.0200,-5.1500,8.6700,-9.4375,-35.3125,-6.0000,-0.0311,0.2690,-0.9323,-0.2396,
2025-03-07 13:03:16.815,1.7800,-5.0000,8.1000,-9.3125,-35.9375,-6.9375,-0.0339,0.2704,-0.9318,-0.2397,
2025-03-07 13:03:16.835,1.7500,-4.8300,7.8500,-2.8750,-38.4375,-8.7500,-0.0369,0.2717,-0.9314,-0.2395,
2025-03-07 13:03:16.835,2.0300,-4.6700,8.0600,1.0000,-39.4375,-9.6875,-0.0400,0.2727,-0.9310,-0.2393,
2025-03-07 13:03:16.847,2.2200,-4.9100,8.4900,5.5000,-39.3750,-10.3750,-0.0433,0.2734,-0.9307,-0.2391,
2025-03-07 13:03:16.859,2.2200,-4.9100,8.4900,5.5000,-39.3750,-10.3750,-0.0468,0.2737,-0.9305,-0.2390,
2025-03-07 13:03:16.866,2.2800,-5.0800,8.5900,8.5625,-39.3125,-10.3125,-0.0504,0.2737,-0.9304,-0.2386,
2025-03-07 13:03:16.879,2.2700,-5.2000,8.4600,12.8750,-42.2500,-12.2500,-0.0541,0.2737,-0.9302,-0.2385,
2025-03-07 13:03:16.884,2.3100,-4.9200,8.0100,16.5625,-44.1875,-13.1250,-0.0579,0.2735,-0.9301,-0.2384,
2025-03-07 13:03:16.894,2.2700,-4.6600,7.8600,21.2500,-45.3750,-14.3125,-0.0620,0.2730,-0.9300,-0.2383,
2025-03-07 13:03:16.904,2.2700,-4.6600,7.8600,21.2500,-45.3750,-14.3125,-0.0663,0.2722,-0.9299,-0.2383,
2025-03-07 13:03:16.918,2.3700,-4.4100,7.9400,25.7500,-46.1250,-15.4375,-0.0709,0.2710,-0.9299,-0.2383,
2025-03-07 13:03:16.927,2.2700,-4.3400,7.8400,29.8750,-47.1875,-16.5625,-0.0755,0.2696,-0.9300,-0.2383,
2025-03-07 13:03:16.939,2.2700,-4.3400,7.8400,27.6250,-48.1875,-17.1875,-0.0802,0.2681,-0.9300,-0.2383,
2025-03-07 13:03:16.948,2.5400,-4.1800,7.9700,25.6250,-49.0625,-18.6250,-0.0850,0.2667,-0.9299,-0.2384,
2025-03-07 13:03:16.950,2.5400,-4.1800,7.9700,25.6250,-49.0625,-18.6250,-0.0897,0.2656,-0.9298,-0.2386,
2025-03-07 13:03:16.960,2.9500,-4.0100,7.9300,25.0625,-49.3750,-19.7500,-0.0946,0.2644,-0.9296,-0.2386,
2025-03-07 13:03:16.980,3.1800,-3.9000,7.9200,24.0625,-50.5625,-20.3750,-0.0995,0.2634,-0.9293,-0.2389,
2025-03-07 13:03:16.991,3.3600,-3.8100,7.7500,22.4375,-52.1875,-19.3750,-0.1044,0.2623,-0.9290,-0.2391,
2025-03-07 13:03:16.999,3.5500,-3.5000,7.5700,18.2500,-53.9375,-18.8125,-0.1094,0.2614,-0.9287,-0.2393,
2025-03-07 13:03:17.047,3.5200,-3.4200,7.5200,18.2500,-53.9375,-18.8125,-0.1144,0.2609,-0.9282,-0.2394,
2025-03-07 13:03:17.047,3.4500,-3.4300,7.5400,12.3750,-54.8750,-18.6250,-0.1195,0.2608,-0.9277,-0.2390,
2025-03-07 13:03:17.059,3.4700,-3.5400,7.6200,2.8125,-55.0000,-18.7500,-0.1244,0.2612,-0.9269,-0.2392,
2025-03-07 13:03:17.059,3.2400,-3.9600,7.5600,2.0625,-55.7500,-18.4375,-0.1292,0.2619,-0.9260,-0.2394,
2025-03-07 13:03:17.060,3.3100,-4.1400,7.7000,5.0625,-56.8125,-18.5625,-0.1340,0.2626,-0.9250,-0.2396,
2025-03-07 13:03:17.060,3.4300,-4.2700,7.7900,5.0625,-56.8125,-18.5625,-0.1390,0.2632,-0.9241,-0.2397,
2025-03-07 13:03:17.071,3.7300,-4.4000,7.7200,10.0625,-58.2500,-18.6250,-0.1442,0.2633,-0.9233,-0.2396,
2025-03-07 13:03:17.077,3.9500,-4.1700,7.6000,17.6250,-64.8125,-18.7500,-0.1497,0.2632,-0.9225,-0.2395,
2025-03-07 13:03:17.083,4.3800,-3.7300,7.5100,18.1875,-67.0625,-18.7500,-0.1555,0.2629,-0.9217,-0.2393,
2025-03-07 13:03:17.095,4.6400,-3.3300,7.3600,14.9375,-66.2500,-19.2500,-0.1615,0.2626,-0.9208,-0.2390,
2025-03-07 13:03:17.105,4.5200,-3.2500,7.1900,14.9375,-66.2500,-19.2500,-0.1674,0.2625,-0.9198,-0.2388,
2025-03-07 13:03:17.114,4.4300,-3.3800,7.2900,4.5625,-65.7500,-21.6250,-0.1730,0.2632,-0.9185,-0.2391,
2025-03-07 13:03:17.137,4.2800,-3.6500,7.3400,5.5625,-67.4375,-21.3125,-0.1787,0.2638,-0.9172,-0.2392,
2025-03-07 13:03:17.139,4.3200,-4.3500,7.3500,14.3125,-77.2500,-19.0000,-0.1845,0.2644,-0.9159,-0.2393,
2025-03-07 13:03:17.148,4.7000,-4.5600,7.4000,21.1875,-82.3125,-17.9375,-0.1912,0.2646,-0.9146,-0.2388,
2025-03-07 13:03:17.157,5.1700,-4.4300,7.2500,21.1875,-82.3125,-17.9375,-0.1984,0.2643,-0.9133,-0.2380,
2025-03-07 13:03:17.166,5.7000,-4.0600,7.0800,26.6250,-84.4375,-18.0625,-0.2059,0.2636,-0.9122,-0.2369,
2025-03-07 13:03:17.178,5.7300,-3.3600,6.8500,24.5625,-85.6250,-20.7500,-0.2133,0.2629,-0.9109,-0.2360,
2025-03-07 13:03:17.191,5.4600,-3.0700,6.7300,21.6250,-89.3125,-21.7500,-0.2209,0.2623,-0.9094,-0.2353,
2025-03-07 13:03:17.191,5.1800,-2.9400,6.5700,18.3125,-95.5000,-21.7500,-0.2286,0.2620,-0.9078,-0.2346,
2025-03-07 13:03:17.201,5.3900,-3.1000,6.6000,18.3125,-95.5000,-21.7500,-0.2368,0.2620,-0.9059,-0.2338,
2025-03-07 13:03:17.221,6.0500,-3.0000,6.4300,17.4375,-99.3125,-20.8750,-0.2452,0.2622,-0.9039,-0.2326,
2025-03-07 13:03:17.221,6.0400,-3.0800,5.8700,8.8750,-95.0000,-19.3125,-0.2534,0.2626,-0.9018,-0.2316,
2025-03-07 13:03:17.231,5.8700,-2.9900,5.7600,5.8750,-93.3750,-20.6250,-0.2612,0.2633,-0.8996,-0.2308,
2025-03-07 13:03:17.248,5.6300,-2.9400,6.1100,3.5625,-94.3125,-20.1875,-0.2688,0.2642,-0.8972,-0.2301,
2025-03-07 13:03:17.256,5.6700,-3.0700,5.8700,3.5625,-94.3125,-20.1875,-0.2765,0.2653,-0.8947,-0.2294,
2025-03-07 13:03:17.265,5.8200,-3.0900,5.6000,0.0625,-98.1875,-18.2500,-0.2843,0.2668,-0.8920,-0.2286,
2025-03-07 13:03:17.291,5.9600,-2.9500,5.3900,-12.7500,-111.9375,-16.8125,-0.2924,0.2689,-0.8890,-0.2278,
2025-03-07 13:03:17.300,5.9300,-2.6900,5.6900,-11.6250,-119.3125,-14.6875,-0.3009,0.2716,-0.8856,-0.2268,
2025-03-07 13:03:17.300,7.6200,-2.4600,5.5400,-14.9375,-113.1875,-15.1875,-0.3099,0.2744,-0.8820,-0.2255,
2025-03-07 13:03:17.302,8.3900,-2.4100,5.0000,-14.9375,-113.1875,-15.1875,-0.3184,0.2772,-0.8783,-0.2244,
2025-03-07 13:03:17.353,7.8200,-3.1600,5.3300,-24.1250,-109.6250,-19.3750,-0.3267,0.2803,-0.8745,-0.2233,
2025-03-07 13:03:17.353,7.8400,-3.6300,5.6200,-10.3750,-108.1875,-27.1875,-0.3350,0.2831,-0.8706,-0.2231,
2025-03-07 13:03:17.353,7.9000,-3.9800,5.5700,-2.3750,-111.1250,-27.7500,-0.3433,0.2852,-0.8667,-0.2228,
2025-03-07 13:03:17.353,7.8800,-4.2400,5.5400,1.1875,-113.6250,-28.0000,-0.3521,0.2866,-0.8629,-0.2222,
2025-03-07 13:03:17.356,7.7400,-3.4900,5.2100,1.1875,-113.6250,-28.0000,-0.3610,0.2878,-0.8589,-0.2215,
2025-03-07 13:03:17.379,7.6900,-2.9700,4.9900,-0.3750,-116.4375,-27.6875,-0.3701,0.2891,-0.8548,-0.2206,
2025-03-07 13:03:17.379,7.7300,-2.5600,4.8400,-13.6875,-123.1875,-26.1250,-0.3793,0.2910,-0.8504,-0.2199,
2025-03-07 13:03:17.391,8.2300,-2.1700,4.6200,-24.6875,-123.3125,-24.7500,-0.3886,0.2933,-0.8455,-0.2191,
2025-03-07 13:03:17.400,8.6200,-2.1200,4.4200,-39.8125,-118.1250,-25.0000,-0.3975,0.2966,-0.8404,-0.2186,
2025-03-07 13:03:17.411,8.7100,-2.0800,4.2200,-39.8125,-118.1250,-25.0000,-0.4058,0.3007,-0.8349,-0.2188,
2025-03-07 13:03:17.421,8.5800,-2.1400,4.3600,-56.1250,-112.9375,-26.6250,-0.4133,0.3058,-0.8291,-0.2197,
2025-03-07 13:03:17.421,8.9000,-2.9000,4.6200,-69.3125,-110.2500,-28.6875,-0.4206,0.3115,-0.8229,-0.2211,
2025-03-07 13:03:17.438,9.0500,-3.2800,4.3800,-68.9375,-111.3750,-26.5000,-0.4277,0.3173,-0.8166,-0.2226,
2025-03-07 13:03:17.494,8.8900,-3.6400,4.2600,-65.3750,-114.4375,-24.7500,-0.4348,0.3232,-0.8102,-0.2239,
2025-03-07 13:03:17.494,9.2900,-3.5100,4.1500,-65.3750,-114.4375,-24.7500,-0.4420,0.3289,-0.8037,-0.2248,
2025-03-07 13:03:17.494,10.0700,-3.0000,3.9600,-61.3125,-119.1250,-24.7500,-0.4496,0.3343,-0.7971,-0.2253,
2025-03-07 13:03:17.494,10.6700,-2.9500,3.7200,-63.3750,-111.6875,-30.7500,-0.4572,0.3395,-0.7903,-0.2259,
2025-03-07 13:03:17.494,10.2200,-2.9700,3.2100,-71.8750,-106.9375,-38.6250,-0.4643,0.3447,-0.7835,-0.2272,
2025-03-07 13:03:17.507,9.4500,-3.0200,3.4300,-67.4375,-106.1250,-42.8125,-0.4711,0.3500,-0.7765,-0.2294,
2025-03-07 13:03:17.507,9.6700,-3.4500,3.5300,-67.4375,-106.1250,-42.8125,-0.4780,0.3547,-0.7694,-0.2318,
2025-03-07 13:03:17.522,9.8000,-4.1000,3.3900,-52.9375,-105.3750,-42.8125,-0.4853,0.3582,-0.7628,-0.2330,
2025-03-07 13:03:17.528,9.7300,-4.8300,3.3500,-13.8125,-108.1250,-40.5000,-0.4927,0.3607,-0.7566,-0.2338,
2025-03-07 13:03:17.531,9.6800,-4.7400,3.4600,3.5625,-111.0625,-40.0625,-0.5006,0.3621,-0.7508,-0.2337,
2025-03-07 13:03:17.556,10.0900,-4.3100,3.4600,18.5625,-111.4375,-40.5000,-0.5089,0.3623,-0.7454,-0.2327,
2025-03-07 13:03:17.556,10.8400,-3.6300,3.0100,18.5625,-111.4375,-40.5000,-0.5175,0.3616,-0.7403,-0.2310,
2025-03-07 13:03:17.566,9.9000,-3.0600,2.3200,24.6875,-101.5000,-43.6250,-0.5261,0.3594,-0.7360,-0.2287,
2025-03-07 13:03:17.589,9.5000,-2.8000,2.4700,29.8125,-92.1250,-47.5625,-0.5338,0.3577,-0.7316,-0.2276,
2025-03-07 13:03:17.589,9.6700,-2.8600,2.6100,41.2500,-88.4375,-47.0000,-0.5415,0.3555,-0.7275,-0.2264,
2025-03-07 13:03:17.598,9.6500,-3.4500,2.4700,50.5000,-85.4375,-44.8750,-0.5491,0.3525,-0.7237,-0.2247,
2025-03-07 13:03:17.599,9.6300,-3.3800,2.5200,50.5000,-85.4375,-44.8750,-0.5566,0.3489,-0.7204,-0.2226,
2025-03-07 13:03:17.630,9.6900,-3.2700,2.4600,53.8750,-84.2500,-42.3750,-0.5646,0.3442,-0.7175,-0.2189,
2025-03-07 13:03:17.653,9.7600,-3.1300,2.3100,50.3750,-79.6875,-37.6875,-0.5717,0.3405,-0.7144,-0.2164,
2025-03-07 13:03:17.653,9.8800,-2.0200,2.0200,41.2500,-76.4375,-33.8125,-0.5785,0.3371,-0.7113,-0.2139,
2025-03-07 13:03:17.666,10.0700,-1.3700,1.9600,28.5625,-73.2500,-31.0625,-0.5848,0.3344,-0.7081,-0.2117,
2025-03-07 13:03:17.666,10.0300,-1.0500,1.9100,28.5625,-73.2500,-31.0625,-0.5906,0.3324,-0.7047,-0.2101,
2025-03-07 13:03:17.666,9.9600,-1.3900,1.8000,15.3750,-69.1250,-29.5625,-0.5958,0.3312,-0.7012,-0.2091,
2025-03-07 13:03:17.674,9.9900,-1.6500,1.6400,4.8125,-60.9375,-26.1875,-0.6005,0.3304,-0.6976,-0.2086,
2025-03-07 13:03:17.690,10.1800,-1.9800,1.3900,6.7500,-58.5625,-24.7500,-0.6049,0.3299,-0.6942,-0.2082,
2025-03-07 13:03:17.700,10.3300,-2.3800,1.2300,10.0625,-55.8750,-23.2500,-0.6091,0.3293,-0.6910,-0.2076,
2025-03-07 13:03:17.707,11.0300,-2.9600,0.8600,10.0625,-55.8750,-23.2500,-0.6132,0.3284,-0.6879,-0.2070,
2025-03-07 13:03:17.719,11.2300,-2.8500,0.7400,10.8750,-50.7500,-22.9375,-0.6170,0.3275,-0.6852,-0.2063,
2025-03-07 13:03:17.730,11.1900,-2.6300,0.6800,5.3125,-40.3125,-22.2500,-0.6203,0.3267,-0.6827,-0.2060,
2025-03-07 13:03:17.738,11.0500,-2.3400,0.6300,5.4375,-37.3125,-22.4375,-0.6233,0.3259,-0.6803,-0.2059,
2025-03-07 13:03:17.748,10.5500,-1.9900,0.5000,7.4375,-35.5625,-22.3125,-0.6262,0.3250,-0.6781,-0.2058,
2025-03-07 13:03:17.759,10.3500,-2.0500,0.5800,7.4375,-35.5625,-22.3125,-0.6290,0.3240,-0.6760,-0.2058,
2025-03-07 13:03:17.766,10.2100,-2.1800,0.6400,11.1250,-33.7500,-20.0625,-0.6318,0.3228,-0.6743,-0.2051,
2025-03-07 13:03:17.775,10.3600,-2.0700,0.5700,18.3125,-26.3750,-14.1250,-0.6343,0.3215,-0.6727,-0.2045,
2025-03-07 13:03:17.790,10.4500,-1.7100,0.5200,17.8750,-20.7500,-11.6250,-0.6365,0.3201,-0.6716,-0.2035,
2025-03-07 13:03:17.796,10.5200,-1.4100,0.5500,11.8125,-17.5000,-10.2500,-0.6383,0.3189,-0.6707,-0.2027,
2025-03-07 13:03:17.805,10.6100,-1.2900,0.4500,11.8125,-17.5000,-10.2500,-0.6397,0.3179,-0.6699,-0.2022,
