A1,,,,,,,,,,,
time,accx,accy,accz,gyrox,gyroy,gyroz,w1,w2,w3,w4,
2025-03-04 18:59:38.723,4.8300,-3.8700,7.6700,-1.5625,0.8750,1.1875,-0.1701,-0.2902,0.1244,0.9335,
2025-03-04 18:59:38.734,4.9100,-3.8700,7.6600,-1.4375,0.3125,1.1875,-0.1702,-0.2902,0.1244,0.9335,
2025-03-04 18:59:38.744,4.9200,-3.7400,7.6300,-1.4375,0.0625,0.9375,-0.1704,-0.2902,0.1245,0.9334,
2025-03-04 18:59:38.756,4.8500,-3.6800,7.6300,-1.6875,-0.1250,0.1875,-0.1705,-0.2902,0.1245,0.9334,
2025-03-04 18:59:38.814,4.6900,-3.7100,7.7000,-1.1250,-0.1875,-0.4375,-0.1707,-0.2901,0.1243,0.9334,
2025-03-04 18:59:38.814,4.6900,-3.7200,7.6800,-0.1875,-0.4375,-0.3750,-0.1706,-0.2900,0.1244,0.9334,
2025-03-04 18:59:38.814,4.7700,-3.7600,7.6000,-1.5625,-1.6875,0.1875,-0.1706,-0.2900,0.1244,0.9334,
2025-03-04 18:59:38.830,4.8200,-3.6900,7.5800,-3.0625,-1.8125,0.2500,-0.1709,-0.2903,0.1243,0.9333,
2025-03-04 18:59:38.832,4.8000,-3.6800,7.5900,-4.1875,-2.3125,0.1250,-0.1711,-0.2905,0.1242,0.9332,
2025-03-04 18:59:38.873,4.7100,-3.6900,7.6300,-5.0625,-2.8750,-0.3750,-0.1715,-0.2908,0.1241,0.9331,
2025-03-04 18:59:38.874,4.7000,-3.7100,7.6200,-5.0625,-3.2500,-0.9375,-0.1718,-0.2910,0.1240,0.9330,
2025-03-04 18:59:38.874,4.7500,-3.7900,7.5700,-4.1250,-3.0625,-1.5625,-0.1723,-0.2916,0.1237,0.9327,
2025-03-04 18:59:38.883,4.8600,-3.7900,7.4700,-3.8125,-2.8125,-1.6875,-0.1726,-0.2918,0.1235,0.9326,
2025-03-04 18:59:38.954,4.9300,-3.7400,7.4100,-3.6875,-2.9375,-1.7500,-0.1727,-0.2921,0.1232,0.9326,
2025-03-04 18:59:38.954,4.9700,-3.7000,7.4300,-3.8125,-3.3125,-1.9375,-0.1730,-0.2925,0.1230,0.9324,
2025-03-04 18:59:38.954,5.0900,-3.7800,7.5000,-3.4375,-4.1250,-1.7500,-0.1733,-0.2933,0.1227,0.9322,
2025-03-04 18:59:38.954,5.1200,-3.8900,7.4900,-2.8750,-4.5000,-1.5000,-0.1734,-0.2937,0.1226,0.9320,
2025-03-04 18:59:38.954,5.1400,-3.9800,7.4600,-2.6250,-4.8125,-1.0000,-0.1735,-0.2942,0.1224,0.9318,
2025-03-04 18:59:38.954,5.1900,-3.9800,7.4600,-2.8125,-4.8125,-0.5625,-0.1737,-0.2946,0.1224,0.9317,
2025-03-04 18:59:39.025,5.2900,-3.8100,7.5200,-2.8125,-4.3750,-0.1250,-0.1741,-0.2955,0.1224,0.9313,
2025-03-04 18:59:39.025,5.3300,-3.7600,7.5700,-3.0625,-3.6250,0.3125,-0.1742,-0.2960,0.1224,0.9312,
2025-03-04 18:59:39.025,5.2800,-3.7900,7.5700,-3.3125,-2.4375,0.9375,-0.1744,-0.2963,0.1223,0.9310,
2025-03-04 18:59:39.025,5.2500,-3.8500,7.5100,-4.0625,-1.5000,1.4375,-0.1747,-0.2965,0.1223,0.9309,
2025-03-04 18:59:39.025,5.2200,-3.9000,7.4000,-5.3125,-0.7500,2.1875,-0.1755,-0.2968,0.1224,0.9307,
2025-03-04 18:59:39.033,5.2000,-3.9400,7.3700,-5.6250,-0.5625,2.3125,-0.1760,-0.2969,0.1224,0.9305,
2025-03-04 18:59:39.095,5.2500,-4.0200,7.3300,-5.6875,-0.3750,2.4375,-0.1764,-0.2971,0.1224,0.9304,
2025-03-04 18:59:39.095,5.2600,-4.1100,7.3200,-5.9375,-0.2500,3.1250,-0.1771,-0.2971,0.1225,0.9302,
2025-03-04 18:59:39.095,5.4000,-4.1200,7.5000,-5.9375,-1.1250,3.4375,-0.1782,-0.2974,0.1227,0.9299,
2025-03-04 18:59:39.095,5.4800,-3.9700,7.4300,-5.7500,-2.2500,3.0625,-0.1787,-0.2978,0.1228,0.9297,
2025-03-04 18:59:39.095,5.2600,-3.9300,7.3400,-8.2500,-1.8125,2.4375,-0.1794,-0.2981,0.1228,0.9295,
2025-03-04 18:59:39.105,5.1400,-4.0000,7.3900,-12.0000,-0.8750,3.6250,-0.1804,-0.2983,0.1227,0.9292,
2025-03-04 18:59:39.122,5.1700,-4.3200,7.2800,-13.6875,0.4375,6.6875,-0.1829,-0.2986,0.1230,0.9286,
2025-03-04 18:59:39.174,5.1800,-4.3800,7.2200,-12.4375,1.0000,7.1250,-0.1841,-0.2985,0.1232,0.9283,
2025-03-04 18:59:39.174,5.1600,-4.3400,7.2100,-10.6875,0.7500,7.8750,-0.1851,-0.2984,0.1236,0.9281,
2025-03-04 18:59:39.174,5.0300,-4.1100,7.6100,-5.5000,-2.1250,8.4375,-0.1869,-0.2985,0.1245,0.9276,
2025-03-04 18:59:39.184,4.9900,-4.1300,7.7200,-3.6250,-1.3750,9.2500,-0.1880,-0.2986,0.1257,0.9272,
2025-03-04 18:59:39.245,4.9200,-4.2000,7.6400,-4.1250,1.8750,11.7500,-0.1885,-0.2985,0.1264,0.9270,
2025-03-04 18:59:39.245,4.8400,-4.1900,7.5900,-5.3125,3.5625,12.4375,-0.1899,-0.2978,0.1280,0.9267,
2025-03-04 18:59:39.245,4.8700,-4.0500,7.6400,-6.6250,5.0625,11.9375,-0.1916,-0.2966,0.1295,0.9266,
2025-03-04 18:59:39.246,4.7900,-4.0100,7.7300,-5.9375,5.0000,10.6875,-0.1922,-0.2960,0.1300,0.9266,
2025-03-04 18:59:39.255,4.7100,-4.0500,7.7900,-4.4375,5.6875,9.7500,-0.1927,-0.2953,0.1306,0.9266,
2025-03-04 18:59:39.273,4.4700,-4.2600,7.5800,-2.1250,8.5000,10.4375,-0.1936,-0.2936,0.1318,0.9268,
2025-03-04 18:59:39.321,4.4900,-4.3800,7.4100,-2.8750,10.7500,11.6250,-0.1943,-0.2926,0.1324,0.9269,
2025-03-04 18:59:39.321,4.5200,-4.4800,7.2700,-6.4375,12.3750,13.3125,-0.1951,-0.2915,0.1331,0.9270,
2025-03-04 18:59:39.321,4.9700,-4.3100,7.0600,-8.0000,10.4375,12.3750,-0.1971,-0.2894,0.1344,0.9270,
2025-03-04 18:59:39.336,4.9400,-4.2100,7.1800,-7.3125,7.0625,9.5000,-0.1990,-0.2880,0.1354,0.9269,
2025-03-04 18:59:39.345,4.8500,-4.1600,7.1500,-4.8750,6.0625,8.4375,-0.1997,-0.2875,0.1358,0.9268,
2025-03-04 18:59:39.391,4.6500,-4.2400,6.8000,-1.3750,7.1875,8.6250,-0.2005,-0.2863,0.1367,0.9269,
2025-03-04 18:59:39.391,4.5400,-4.2300,6.7800,-3.3125,5.5000,8.9375,-0.2015,-0.2851,0.1378,0.9269,
2025-03-04 18:59:39.399,4.5900,-4.3100,7.0100,-4.8750,4.0000,8.6250,-0.2021,-0.2847,0.1383,0.9268,
2025-03-04 18:59:39.417,4.6000,-4.7000,7.5000,-7.1250,3.6250,6.0625,-0.2036,-0.2841,0.1390,0.9266,
2025-03-04 18:59:39.479,4.6500,-4.9000,7.4300,-12.3750,10.6250,5.0000,-0.2057,-0.2828,0.1389,0.9265,
2025-03-04 18:59:39.479,4.8200,-4.6400,7.4000,-17.0000,13.5625,5.6250,-0.2073,-0.2819,0.1387,0.9265,
2025-03-04 18:59:39.481,5.2600,-4.2400,7.3300,-33.5000,16.5000,6.5625,-0.2125,-0.2798,0.1378,0.9261,
2025-03-04 18:59:39.604,5.5500,-3.8900,7.3800,-54.4375,21.8750,4.1250,-0.2210,-0.2776,0.1355,0.9251,
2025-03-04 18:59:39.609,5.4100,-3.8300,7.0700,-62.3125,24.8125,2.3125,-0.2262,-0.2763,0.1338,0.9244,
2025-03-04 18:59:39.609,5.1800,-3.5400,5.8400,-73.1250,16.1875,-0.5625,-0.2377,-0.2748,0.1298,0.9226,
2025-03-04 18:59:39.609,5.4200,-3.1200,5.8800,-71.7500,1.2500,-3.6250,-0.2491,-0.2758,0.1257,0.9198,
2025-03-04 18:59:39.609,5.5000,-2.9400,6.0400,-65.5625,-2.3750,-6.1875,-0.2540,-0.2768,0.1238,0.9184,
2025-03-04 18:59:39.609,4.9500,-1.8900,5.9400,-51.5000,-6.0625,-16.2500,-0.2618,-0.2793,0.1194,0.9161,
2025-03-04 18:59:39.609,4.8300,-1.4600,6.1700,-60.4375,-10.8125,-30.6875,-0.2690,-0.2831,0.1130,0.9136,
2025-03-04 18:59:39.609,4.9200,-1.7900,5.9500,-65.7500,-10.5000,-39.1250,-0.2731,-0.2855,0.1086,0.9122,
2025-03-04 18:59:39.616,5.3900,-2.7700,5.4500,-75.1875,-15.3125,-52.0000,-0.2817,-0.2912,0.0981,0.9090,
2025-03-04 18:59:39.632,6.1100,-3.5000,4.7300,-78.4375,-23.1875,-62.2500,-0.2902,-0.2983,0.0861,0.9052,
2025-03-04 18:59:39.804,6.4800,-3.6500,4.6900,-78.1250,-32.2500,-68.1250,-0.2943,-0.3030,0.0797,0.9029,
2025-03-04 18:59:39.804,7.6600,-4.1300,5.5500,-72.6250,-43.6875,-78.4375,-0.3010,-0.3141,0.0665,0.8980,
2025-03-04 18:59:39.804,7.5600,-4.5700,5.7600,-79.8125,-33.9375,-93.5000,-0.3075,-0.3251,0.0507,0.8928,
2025-03-04 18:59:39.804,7.1300,-5.0400,5.0400,-80.0625,-27.0000,-94.9375,-0.3108,-0.3300,0.0421,0.8904,
2025-03-04 18:59:39.804,6.8800,-5.4500,3.5600,-66.0625,-26.5625,-90.1875,-0.3160,-0.3390,0.0258,0.8857,
2025-03-04 18:59:39.804,7.4900,-5.0200,3.8200,-53.2500,-42.0000,-93.6875,-0.3187,-0.3497,0.0107,0.8809,
2025-03-04 18:59:39.804,7.7600,-4.4500,4.4000,-53.3125,-52.1250,-98.5625,-0.3198,-0.3563,0.0032,0.8779,
2025-03-04 18:59:39.804,8.4600,-3.8200,4.5900,-42.2500,-52.9375,-109.6250,-0.3199,-0.3701,-0.0124,0.8721,
2025-03-04 18:59:39.804,8.1900,-4.5800,3.7100,-33.4375,-40.8750,-121.8125,-0.3177,-0.3828,-0.0298,0.8670,
2025-03-04 18:59:39.804,8.0500,-4.8400,2.7100,-29.8125,-42.0000,-122.6250,-0.3160,-0.3891,-0.0387,0.8644,
2025-03-04 18:59:39.816,8.2700,-4.9100,2.4100,-26.4375,-53.5000,-124.3125,-0.3120,-0.4028,-0.0558,0.8587,
2025-03-04 18:59:39.834,8.0800,-4.7900,4.0000,-25.1875,-62.1250,-131.1875,-0.3074,-0.4179,-0.0731,0.8518,
2025-03-04 18:59:39.875,8.3900,-4.8400,4.3500,-24.2500,-65.7500,-136.7500,-0.3047,-0.4260,-0.0820,0.8479,
2025-03-04 18:59:39.926,8.3200,-5.2400,3.7900,-23.3125,-62.6250,-138.5625,-0.2989,-0.4419,-0.1003,0.8398,
2025-03-04 18:59:39.926,8.8100,-5.2700,3.5300,-31.5000,-72.3125,-129.3125,-0.2941,-0.4576,-0.1177,0.8308,
2025-03-04 18:59:39.926,9.0600,-5.3400,3.7500,-39.5000,-82.3750,-125.3125,-0.2928,-0.4661,-0.1259,0.8253,
2025-03-04 18:59:39.926,9.4400,-6.2000,5.1000,-34.3750,-93.9375,-125.8125,-0.2902,-0.4841,-0.1418,0.8132,
2025-03-04 18:59:39.933,8.7400,-6.8600,5.7800,-12.4375,-84.6250,-116.4375,-0.2847,-0.5016,-0.1554,0.8020,
2025-03-04 18:59:39.945,8.4500,-6.8200,5.6800,-12.3750,-75.0000,-104.1875,-0.2821,-0.5090,-0.1611,0.7971,
2025-03-04 18:59:39.974,8.8400,-6.5400,5.2800,-7.6250,-77.4375,-81.6875,-0.2780,-0.5229,-0.1702,0.7876,
2025-03-04 18:59:39.983,8.8300,-5.7800,4.7900,-4.3125,-76.7500,-58.6875,-0.2751,-0.5362,-0.1754,0.7785,
2025-03-04 18:59:40.005,8.4800,-5.5700,4.3400,4.6875,-62.1875,-47.8125,-0.2735,-0.5414,-0.1769,0.7751,
2025-03-04 18:59:40.014,8.4900,-5.6300,4.0000,31.9375,-45.2500,-40.3125,-0.2677,-0.5502,-0.1776,0.7708,
2025-03-04 18:59:40.034,8.5900,-5.0400,3.2200,47.1250,-37.9375,-38.8125,-0.2596,-0.5586,-0.1770,0.7676,
2025-03-04 18:59:40.044,8.7500,-4.4000,2.1400,52.3750,-31.3750,-29.8750,-0.2552,-0.5621,-0.1758,0.7668,
2025-03-04 18:59:40.064,8.6800,-3.6400,1.9300,48.1250,-24.3750,-11.3750,-0.2480,-0.5675,-0.1719,0.7661,
2025-03-04 18:59:40.104,10.1000,-2.8700,2.4200,33.1250,-31.1250,-2.2500,-0.2437,-0.5726,-0.1677,0.7646,
2025-03-04 18:59:40.104,10.4400,-2.8800,2.4700,28.8750,-27.0000,1.6250,-0.2423,-0.5747,-0.1656,0.7639,
2025-03-04 18:59:40.116,9.8000,-3.8000,2.7800,25.3125,-5.9375,15.8125,-0.2403,-0.5764,-0.1610,0.7642,
2025-03-04 18:59:40.124,8.5600,-3.8900,2.4300,14.4375,8.2500,32.3125,-0.2407,-0.5749,-0.1559,0.7663,
2025-03-04 18:59:40.164,8.1200,-3.0600,2.1000,16.3125,7.6875,37.0000,-0.2413,-0.5739,-0.1529,0.7675,
2025-03-04 18:59:40.164,8.7200,-2.4300,1.8600,20.1250,-9.1250,32.0000,-0.2422,-0.5735,-0.1464,0.7687,
2025-03-04 18:59:40.183,9.6000,-2.5900,1.8700,31.1250,-16.1875,20.1875,-0.2412,-0.5754,-0.1401,0.7689,
2025-03-04 18:59:40.214,9.6500,-2.7800,2.0700,34.5625,-12.6875,18.6250,-0.2400,-0.5762,-0.1369,0.7692,
2025-03-04 18:59:40.214,9.3100,-2.2800,2.5600,33.8750,-3.7500,23.2500,-0.2378,-0.5769,-0.1305,0.7704,
2025-03-04 18:59:40.225,9.2000,-1.2600,2.3200,31.1875,-4.3750,28.0000,-0.2363,-0.5769,-0.1237,0.7721,
2025-03-04 18:59:40.247,9.3400,-0.9800,2.0700,29.3750,-11.6875,24.2500,-0.2357,-0.5774,-0.1205,0.7723,
2025-03-04 18:59:40.265,9.5300,-1.4600,1.8800,26.1250,-17.1875,12.1875,-0.2340,-0.5796,-0.1152,0.7721,
2025-03-04 18:59:40.274,9.3800,-2.2200,2.3200,13.3125,-13.5000,10.2500,-0.2330,-0.5815,-0.1116,0.7714,
2025-03-04 18:59:40.338,9.3000,-2.2500,2.3300,7.7500,-10.0625,12.5000,-0.2332,-0.5820,-0.1102,0.7712,
2025-03-04 18:59:40.338,9.3400,-2.3500,2.1400,6.6250,-11.2500,12.1875,-0.2339,-0.5830,-0.1075,0.7706,
2025-03-04 18:59:40.338,9.5700,-2.4500,1.9300,12.0625,-15.0000,12.0000,-0.2339,-0.5845,-0.1044,0.7699,
2025-03-04 18:59:40.355,9.5600,-2.3600,1.8900,14.0000,-15.1875,13.6875,-0.2338,-0.5853,-0.1025,0.7695,
2025-03-04 18:59:40.375,9.5100,-1.8300,2.0300,16.6250,-12.6875,15.5625,-0.2335,-0.5867,-0.0983,0.7691,
2025-03-04 18:59:40.383,9.6000,-1.7500,2.3600,14.0000,-9.1250,11.5625,-0.2329,-0.5878,-0.0948,0.7689,
2025-03-04 18:59:40.416,9.6300,-1.7700,2.6100,9.4375,-7.1250,10.4375,-0.2329,-0.5881,-0.0936,0.7688,
2025-03-04 18:59:40.416,9.5800,-2.3500,2.6000,-1.8750,-2.5000,9.3125,-0.2338,-0.5882,-0.0921,0.7687,
2025-03-04 18:59:40.434,9.6500,-4.2100,2.5300,-10.1250,-0.1250,9.4375,-0.2358,-0.5878,-0.0917,0.7684,
2025-03-04 18:59:40.473,9.4100,-4.6200,2.6600,-10.5000,4.8125,12.2500,-0.2371,-0.5872,-0.0915,0.7685,
2025-03-04 18:59:40.475,9.1600,-3.2200,2.3300,-6.0000,9.8750,23.6875,-0.2401,-0.5849,-0.0900,0.7695,
2025-03-04 18:59:40.475,9.1100,-2.4900,1.9000,2.4375,5.6250,24.5000,-0.2410,-0.5840,-0.0883,0.7701,
2025-03-04 18:59:40.475,9.0600,-1.8900,1.4900,13.1250,1.6875,20.0000,-0.2411,-0.5836,-0.0864,0.7706,
2025-03-04 18:59:40.514,9.1400,-1.5300,1.1400,20.6250,-2.8125,12.8750,-0.2405,-0.5837,-0.0845,0.7709,
2025-03-04 18:59:40.514,9.2100,-2.3700,1.2300,12.5625,-7.0625,1.6250,-0.2388,-0.5846,-0.0822,0.7710,
2025-03-04 18:59:40.533,9.1000,-2.5400,1.9500,-2.4375,-4.0625,4.5625,-0.2393,-0.5851,-0.0813,0.7706,
2025-03-04 18:59:40.544,9.0800,-2.5300,2.0300,-6.3750,-2.2500,3.8125,-0.2399,-0.5852,-0.0814,0.7703,
2025-03-04 18:59:40.566,9.0800,-2.6000,2.0800,-11.1875,-1.5625,1.6875,-0.2414,-0.5852,-0.0820,0.7698,
2025-03-04 18:59:40.585,9.1200,-2.8800,2.0700,-14.2500,-1.8125,1.3750,-0.2433,-0.5851,-0.0831,0.7691,
2025-03-04 18:59:40.594,9.1100,-2.9300,1.9900,-14.2500,-1.8125,1.3750,-0.2444,-0.5851,-0.0837,0.7687,
2025-03-04 18:59:40.634,8.9900,-2.9400,1.8300,-11.5000,-0.9375,2.0625,-0.2462,-0.5850,-0.0846,0.7681,
2025-03-04 18:59:40.634,9.0600,-3.0100,1.8200,-9.3125,-2.0625,0.7500,-0.2476,-0.5849,-0.0853,0.7676,
2025-03-04 18:59:40.634,9.1300,-3.1600,1.8500,-9.3125,-2.0625,0.7500,-0.2484,-0.5850,-0.0856,0.7673,
2025-03-04 18:59:40.658,9.2000,-3.2300,1.8700,-9.6875,-2.6250,0.5625,-0.2493,-0.5850,-0.0858,0.7670,
2025-03-04 18:59:40.663,9.3200,-3.2300,1.8800,-7.0000,-3.3125,1.7500,-0.2504,-0.5853,-0.0862,0.7664,
2025-03-04 18:59:40.683,9.3500,-3.2000,1.9100,-5.6250,-3.1250,2.5000,-0.2510,-0.5854,-0.0863,0.7661,
2025-03-04 18:59:40.694,9.3700,-3.1600,1.9400,-4.7500,-2.5000,3.2500,-0.2516,-0.5853,-0.0861,0.7659,
2025-03-04 18:59:40.715,9.4200,-3.0800,1.9400,-4.0625,-1.9375,3.4375,-0.2521,-0.5853,-0.0859,0.7658,
2025-03-04 18:59:40.715,9.3900,-2.9500,1.9900,-3.9375,-0.8750,3.7500,-0.2526,-0.5852,-0.0859,0.7657,
2025-03-04 18:59:40.726,9.3500,-2.9300,1.9500,-4.5000,-0.1875,3.8750,-0.2531,-0.5851,-0.0858,0.7657,
2025-03-04 18:59:40.736,9.3300,-2.8800,1.9200,-5.1250,0.1875,3.6250,-0.2537,-0.5850,-0.0858,0.7656,
2025-03-04 18:59:40.775,9.2700,-2.8400,1.8700,-6.0000,0.3750,2.9375,-0.2542,-0.5848,-0.0859,0.7655,
2025-03-04 18:59:40.775,9.3100,-2.8800,1.8300,-7.0625,0.6875,2.5625,-0.2548,-0.5847,-0.0861,0.7654,
2025-03-04 18:59:40.775,9.2600,-2.9100,1.8300,-8.0625,1.3750,1.5625,-0.2554,-0.5845,-0.0864,0.7653,
2025-03-04 18:59:40.775,9.2700,-2.9200,1.8200,-9.0625,1.7500,0.5000,-0.2559,-0.5843,-0.0869,0.7652,
2025-03-04 18:59:40.783,9.2900,-2.9800,1.8400,-9.8750,2.2500,-0.6875,-0.2565,-0.5841,-0.0875,0.7651,
2025-03-04 18:59:40.826,9.2900,-3.0100,1.8700,-10.6250,3.5000,-2.2500,-0.2577,-0.5836,-0.0889,0.7649,
2025-03-04 18:59:40.826,9.2600,-3.0100,1.8800,-10.2500,4.0625,-2.8750,-0.2582,-0.5833,-0.0897,0.7649,
2025-03-04 18:59:40.826,9.2700,-3.0200,1.8800,-9.3125,4.1250,-3.2500,-0.2586,-0.5831,-0.0904,0.7648,
2025-03-04 18:59:40.834,9.2800,-3.0200,1.8700,-7.8125,3.8750,-3.7500,-0.2589,-0.5828,-0.0911,0.7648,
2025-03-04 18:59:40.843,9.2900,-3.0100,1.8700,-6.3125,4.0625,-3.6875,-0.2592,-0.5826,-0.0917,0.7649,
2025-03-04 18:59:40.854,9.3900,-2.9300,1.8500,-4.7500,4.0000,-3.5000,-0.2593,-0.5823,-0.0923,0.7649,
2025-03-04 18:59:40.866,9.4000,-2.8600,1.8600,-3.6875,4.2500,-3.3750,-0.2593,-0.5821,-0.0928,0.7651,
2025-03-04 18:59:40.873,9.4200,-2.8500,1.8700,-3.8750,4.8125,-3.3750,-0.2593,-0.5818,-0.0933,0.7652,
2025-03-04 18:59:40.903,9.3900,-2.8900,1.9300,-4.6250,5.8125,-3.3750,-0.2595,-0.5815,-0.0939,0.7653,
2025-03-04 18:59:40.903,9.3700,-2.9400,1.9500,-6.1250,6.7500,-3.5625,-0.2596,-0.5811,-0.0945,0.7655,
2025-03-04 18:59:40.934,9.3500,-2.9500,1.9600,-7.6250,7.5625,-3.4375,-0.2599,-0.5806,-0.0953,0.7657,
2025-03-04 18:59:40.934,9.3200,-3.0500,2.0500,-10.6875,7.7500,-4.8750,-0.2607,-0.5796,-0.0972,0.7660,
2025-03-04 18:59:40.934,9.3200,-3.0800,2.0300,-12.0000,7.9375,-6.0000,-0.2611,-0.5790,-0.0983,0.7661,
2025-03-04 18:59:40.946,9.2800,-3.1300,2.0800,-12.9375,7.7500,-7.3125,-0.2616,-0.5786,-0.0995,0.7661,
2025-03-04 18:59:40.953,9.2400,-3.3700,2.0700,-14.0000,8.1250,-8.4375,-0.2620,-0.5781,-0.1010,0.7662,
2025-03-04 18:59:40.965,9.2100,-3.5000,2.0900,-14.4375,8.5625,-9.2500,-0.2624,-0.5776,-0.1024,0.7662,
2025-03-04 18:59:40.974,9.1600,-3.5500,2.0700,-14.4375,9.1875,-9.7500,-0.2628,-0.5771,-0.1039,0.7662,
2025-03-04 18:59:40.974,9.1100,-3.6400,2.0900,-14.1250,9.4375,-10.1250,-0.2631,-0.5766,-0.1055,0.7663,
2025-03-04 18:59:40.996,8.9700,-3.8400,2.1400,-12.4375,9.2500,-10.3750,-0.2634,-0.5761,-0.1070,0.7664,
2025-03-04 18:59:41.026,8.9400,-3.7600,2.0900,-9.6875,8.7500,-10.7500,-0.2634,-0.5757,-0.1084,0.7665,
2025-03-04 18:59:41.026,8.9100,-3.6600,2.0700,-7.0000,7.6875,-11.3750,-0.2632,-0.5754,-0.1096,0.7666,
2025-03-04 18:59:41.034,9.0200,-3.5400,1.9000,-0.8125,4.9375,-12.6250,-0.2622,-0.5751,-0.1118,0.7668,
2025-03-04 18:59:41.073,9.0600,-3.5200,1.8700,1.6875,3.4375,-12.3750,-0.2625,-0.5748,-0.1116,0.7670,
2025-03-04 18:59:41.075,9.1100,-3.5300,1.8300,3.6250,2.2500,-11.3750,-0.2627,-0.5747,-0.1114,0.7670,
2025-03-04 18:59:41.075,9.1300,-3.6000,1.8600,5.4375,1.9375,-9.8125,-0.2629,-0.5745,-0.1110,0.7671,
2025-03-04 18:59:41.075,9.1400,-3.6200,1.8900,7.3750,1.6875,-7.5000,-0.2630,-0.5743,-0.1102,0.7673,
2025-03-04 18:59:41.084,9.1200,-3.5400,1.9100,8.5625,1.3750,-4.8125,-0.2631,-0.5741,-0.1094,0.7676,
2025-03-04 18:59:41.084,9.1400,-3.4600,1.9500,9.6250,1.0000,-2.2500,-0.2631,-0.5740,-0.1085,0.7678,
2025-03-04 18:59:41.136,9.1500,-3.0800,1.9700,10.9375,0.2500,-0.1875,-0.2629,-0.5740,-0.1075,0.7680,
2025-03-04 18:59:41.136,9.1100,-2.8900,1.9200,11.7500,-0.3750,2.0000,-0.2622,-0.5740,-0.1068,0.7683,
2025-03-04 18:59:41.136,9.0400,-2.3000,1.7400,11.5625,-0.9375,3.9375,-0.2611,-0.5741,-0.1052,0.7689,
2025-03-04 18:59:41.144,9.0700,-2.1600,1.6500,10.5625,-1.5625,3.5625,-0.2606,-0.5742,-0.1044,0.7691,
2025-03-04 18:59:41.153,9.0500,-2.0200,1.6100,8.8750,-2.3125,2.5625,-0.2601,-0.5744,-0.1038,0.7692,
2025-03-04 18:59:41.166,9.0200,-1.9300,1.5700,5.4375,-3.6250,1.0000,-0.2598,-0.5747,-0.1033,0.7691,
2025-03-04 18:59:41.166,9.1300,-1.9400,1.7800,1.5625,-3.9375,-1.3125,-0.2597,-0.5749,-0.1033,0.7690,
2025-03-04 18:59:41.174,9.1100,-2.0200,1.8500,-0.8750,-3.6250,-3.9375,-0.2596,-0.5753,-0.1035,0.7687,
2025-03-04 18:59:41.205,9.1000,-2.1100,1.8900,-2.7500,-3.6250,-5.0625,-0.2596,-0.5756,-0.1038,0.7684,
2025-03-04 18:59:41.205,9.1300,-2.2100,2.1200,-4.3125,-3.7500,-6.1875,-0.2596,-0.5759,-0.1044,0.7681,
2025-03-04 18:59:41.234,9.3000,-2.3200,2.3000,-5.1875,-4.5625,-7.5000,-0.2596,-0.5768,-0.1056,0.7673,
2025-03-04 18:59:41.234,9.3200,-2.3900,2.3700,-4.9375,-4.4375,-8.4375,-0.2596,-0.5772,-0.1063,0.7669,
2025-03-04 18:59:41.244,9.3900,-2.4800,2.3500,-4.8125,-3.7500,-9.5000,-0.2595,-0.5776,-0.1071,0.7666,
2025-03-04 18:59:41.254,9.4200,-2.4800,2.2800,-4.6250,-3.1250,-10.3125,-0.2593,-0.5780,-0.1079,0.7662,
2025-03-04 18:59:41.264,9.4300,-2.5000,2.1900,-3.9375,-2.3750,-11.0000,-0.2590,-0.5784,-0.1088,0.7659,
2025-03-04 18:59:41.275,9.4800,-2.4600,2.0700,-3.3750,-1.7500,-11.1875,-0.2586,-0.5786,-0.1097,0.7657,
2025-03-04 18:59:41.275,9.4600,-2.4500,2.0300,-2.8750,-0.6875,-11.0000,-0.2582,-0.5789,-0.1106,0.7655,
2025-03-04 18:59:41.293,9.4800,-2.4700,2.0400,-3.2500,0.6875,-10.5000,-0.2578,-0.5790,-0.1115,0.7654,
2025-03-04 18:59:41.304,9.4600,-2.5200,2.0400,-4.1250,1.8750,-9.6875,-0.2576,-0.5791,-0.1124,0.7653,
2025-03-04 18:59:41.324,9.4100,-2.7000,2.0800,-4.6250,2.8125,-9.3125,-0.2574,-0.5790,-0.1133,0.7653,
2025-03-04 18:59:41.324,9.4100,-2.7400,2.1100,-4.5625,3.0625,-8.8125,-0.2572,-0.5790,-0.1141,0.7653,
2025-03-04 18:59:41.327,9.4300,-2.7400,2.1100,-3.5000,3.0000,-8.3750,-0.2570,-0.5789,-0.1149,0.7653,
2025-03-04 18:59:41.343,9.4600,-2.6300,2.0500,-1.7500,2.7500,-8.3750,-0.2567,-0.5789,-0.1155,0.7653,
2025-03-04 18:59:41.375,9.4800,-2.5300,2.0100,0.4375,2.1250,-8.0000,-0.2563,-0.5789,-0.1161,0.7653,
2025-03-04 18:59:41.375,9.4800,-2.4300,1.9900,3.1875,1.3750,-7.7500,-0.2557,-0.5790,-0.1165,0.7654,
2025-03-04 18:59:41.375,9.4700,-2.3000,2.0300,5.6250,1.0000,-7.3750,-0.2549,-0.5792,-0.1167,0.7655,
2025-03-04 18:59:41.383,9.5000,-2.2100,2.0100,7.2500,1.0625,-6.8750,-0.2542,-0.5793,-0.1168,0.7656,
2025-03-04 18:59:41.396,9.4800,-2.2400,2.0200,8.0000,1.2500,-6.4375,-0.2533,-0.5794,-0.1169,0.7658,
2025-03-04 18:59:41.444,9.3700,-2.0800,1.9700,7.9375,1.3125,-4.8750,-0.2517,-0.5796,-0.1169,0.7662,
2025-03-04 18:59:41.444,9.3700,-1.9200,1.9300,7.6250,0.0625,-5.0000,-0.2510,-0.5798,-0.1168,0.7663,
2025-03-04 18:59:41.444,9.4000,-1.7100,1.9200,6.7500,-1.4375,-5.8125,-0.2502,-0.5801,-0.1168,0.7663,
2025-03-04 18:59:41.444,9.4300,-1.5700,1.8900,5.3125,-2.1875,-7.1250,-0.2496,-0.5804,-0.1169,0.7662,
2025-03-04 18:59:41.454,9.4300,-1.5600,1.8500,3.1250,-2.3750,-7.8750,-0.2490,-0.5808,-0.1172,0.7661,
2025-03-04 18:59:41.464,9.4400,-1.6900,1.8400,1.1875,-2.1250,-8.6875,-0.2485,-0.5811,-0.1177,0.7659,
2025-03-04 18:59:41.464,9.4500,-1.7900,1.8400,-0.3125,-2.3750,-9.1250,-0.2481,-0.5815,-0.1183,0.7657,
2025-03-04 18:59:41.483,9.4600,-2.0500,1.8700,-1.3125,-2.1250,-9.4375,-0.2477,-0.5818,-0.1189,0.7655,
2025-03-04 18:59:41.514,9.4600,-2.1300,1.8900,-1.6250,-1.9375,-9.6875,-0.2474,-0.5821,-0.1196,0.7653,
2025-03-04 18:59:41.514,9.4300,-2.2100,1.9000,-0.9375,-1.8125,-9.7500,-0.2470,-0.5824,-0.1202,0.7650,
2025-03-04 18:59:41.514,9.4200,-2.2700,1.9200,0.3125,-2.1250,-9.8125,-0.2465,-0.5828,-0.1208,0.7649,
2025-03-04 18:59:41.527,9.4600,-2.3100,1.9100,1.9375,-2.8125,-9.5625,-0.2460,-0.5832,-0.1213,0.7646,
2025-03-04 18:59:41.544,9.4800,-2.3100,1.8900,3.7500,-3.0625,-9.5000,-0.2453,-0.5836,-0.1216,0.7645,
2025-03-04 18:59:41.544,9.4800,-2.3400,1.8800,5.3750,-3.0625,-8.3750,-0.2446,-0.5840,-0.1218,0.7643,
2025-03-04 18:59:41.554,9.4500,-2.2900,1.8600,7.3750,-3.1250,-7.1250,-0.2437,-0.5845,-0.1219,0.7643,
2025-03-04 18:59:41.564,9.4400,-2.2100,1.8400,8.8750,-3.4375,-6.0000,-0.2429,-0.5849,-0.1218,0.7642,
2025-03-04 18:59:41.574,9.4400,-2.0600,1.8300,10.0625,-4.0000,-5.1250,-0.2421,-0.5854,-0.1215,0.7642,
2025-03-04 18:59:41.583,9.4700,-1.9300,1.8200,10.6250,-4.4375,-5.0625,-0.2411,-0.5859,-0.1213,0.7641,
2025-03-04 18:59:41.594,9.5600,-1.6600,1.7900,10.5625,-4.5625,-5.0000,-0.2402,-0.5865,-0.1210,0.7640,
2025-03-04 18:59:41.624,9.5800,-1.5600,1.7600,10.2500,-4.4375,-5.1875,-0.2393,-0.5870,-0.1207,0.7639,
2025-03-04 18:59:41.624,9.6000,-1.4600,1.7700,9.3750,-4.0625,-5.3125,-0.2385,-0.5875,-0.1205,0.7639,
2025-03-04 18:59:41.628,9.6400,-1.3800,1.8100,8.0000,-3.8125,-5.5625,-0.2377,-0.5879,-0.1204,0.7638,
2025-03-04 18:59:41.668,9.6600,-1.4100,1.8300,6.3750,-3.3125,-5.5625,-0.2371,-0.5883,-0.1204,0.7637,
2025-03-04 18:59:41.668,9.6700,-1.4300,1.8700,4.7500,-2.8750,-5.5625,-0.2366,-0.5886,-0.1204,0.7636,
2025-03-04 18:59:41.673,9.6500,-1.4600,1.8700,3.0000,-2.5000,-5.6875,-0.2361,-0.5889,-0.1206,0.7635,
2025-03-04 18:59:41.673,9.7100,-1.5300,1.8900,1.3750,-2.2500,-5.8125,-0.2357,-0.5892,-0.1208,0.7633,
2025-03-04 18:59:41.673,9.7600,-1.6100,1.8900,0.0625,-2.1250,-6.0000,-0.2350,-0.5897,-0.1216,0.7630,
2025-03-04 18:59:41.675,9.7500,-1.6900,1.9000,-0.7500,-1.7500,-6.1875,-0.2344,-0.5901,-0.1224,0.7628,
2025-03-04 18:59:41.695,9.7300,-1.8000,1.8900,-1.1250,-1.3125,-6.5000,-0.2339,-0.5905,-0.1230,0.7626,
2025-03-04 18:59:41.708,9.6800,-1.9300,1.8700,-0.5625,-0.8125,-6.1875,-0.2336,-0.5906,-0.1234,0.7625,
2025-03-04 18:59:41.715,9.6500,-1.9600,1.8500,0.6875,-0.8750,-6.0000,-0.2332,-0.5908,-0.1238,0.7624,
2025-03-04 18:59:41.735,9.6300,-1.9600,1.8400,2.4375,-1.3125,-5.4375,-0.2328,-0.5910,-0.1240,0.7623,
2025-03-04 18:59:41.735,9.6500,-1.9800,1.7900,4.0625,-1.5000,-4.7500,-0.2324,-0.5912,-0.1240,0.7623,
2025-03-04 18:59:41.743,9.6500,-1.9500,1.7800,5.3750,-1.5625,-3.6875,-0.2318,-0.5915,-0.1240,0.7623,
2025-03-04 18:59:41.753,9.6800,-1.9300,1.7600,6.3750,-1.6250,-2.3750,-0.2313,-0.5918,-0.1238,0.7622,
2025-03-04 18:59:41.766,9.6600,-1.8800,1.7600,6.7500,-1.6875,-1.0625,-0.2308,-0.5920,-0.1235,0.7622,
2025-03-04 18:59:41.773,9.5800,-1.7000,1.7500,6.6250,-2.0000,0.2500,-0.2303,-0.5923,-0.1232,0.7622,
2025-03-04 18:59:41.784,9.5400,-1.6100,1.7400,6.0000,-2.0625,1.3750,-0.2299,-0.5926,-0.1229,0.7621,
2025-03-04 18:59:41.794,9.5100,-1.5100,1.7300,4.6250,-2.1875,2.0000,-0.2297,-0.5927,-0.1225,0.7622,
2025-03-04 18:59:41.924,9.5400,-1.4900,1.7600,2.7500,-1.8125,2.3750,-0.2297,-0.5928,-0.1221,0.7622,
2025-03-04 18:59:41.924,9.5800,-1.5600,1.7700,0.8750,-1.0625,2.4375,-0.2297,-0.5929,-0.1219,0.7621,
2025-03-04 18:59:41.924,9.5900,-1.6400,1.7900,-0.6875,-0.2500,2.8750,-0.2300,-0.5928,-0.1218,0.7622,
2025-03-04 18:59:41.924,9.6100,-1.7000,1.8100,-2.0000,0.3125,3.6875,-0.2303,-0.5927,-0.1216,0.7621,
2025-03-04 18:59:41.924,9.6000,-1.8300,1.8500,-2.7500,0.5625,4.2500,-0.2305,-0.5927,-0.1216,0.7621,
2025-03-04 18:59:41.924,9.5600,-1.8500,1.8700,-3.0625,0.9375,4.4375,-0.2308,-0.5926,-0.1216,0.7621,
2025-03-04 18:59:41.924,9.5300,-1.9000,1.8800,-3.5000,1.1875,4.6250,-0.2312,-0.5924,-0.1216,0.7621,
2025-03-04 18:59:41.924,9.5600,-2.0000,1.8600,-3.8750,1.3125,5.1875,-0.2318,-0.5922,-0.1215,0.7622,
2025-03-04 18:59:41.924,9.5500,-2.0400,1.8300,-4.2500,1.5625,5.6250,-0.2322,-0.5919,-0.1213,0.7622,
2025-03-04 18:59:41.924,9.5600,-2.0800,1.8100,-4.3750,2.0000,6.1875,-0.2329,-0.5916,-0.1212,0.7623,
2025-03-04 18:59:41.924,9.5800,-2.0900,1.7600,-4.5625,2.2500,6.8125,-0.2335,-0.5913,-0.1210,0.7624,
2025-03-04 18:59:41.924,9.6000,-2.0900,1.7200,-4.8750,2.3125,7.3125,-0.2341,-0.5910,-0.1208,0.7624,
2025-03-04 18:59:41.924,9.6100,-2.1100,1.7300,-5.0000,2.5625,7.9375,-0.2348,-0.5906,-0.1207,0.7625,
2025-03-04 18:59:41.933,9.6000,-2.1300,1.7500,-5.3125,2.8750,8.1875,-0.2355,-0.5903,-0.1205,0.7626,
2025-03-04 18:59:42.096,9.5500,-2.1500,1.7600,-5.6875,3.0625,8.5625,-0.2363,-0.5899,-0.1202,0.7627,
2025-03-04 18:59:42.106,9.5300,-2.1400,1.8100,-6.0000,3.2500,8.6250,-0.2371,-0.5895,-0.1201,0.7628,
2025-03-04 18:59:42.106,9.5000,-2.1300,1.8200,-6.4375,3.3750,8.3125,-0.2379,-0.5890,-0.1199,0.7629,
2025-03-04 18:59:42.106,9.4500,-2.1600,1.8400,-6.6250,3.3750,8.0000,-0.2386,-0.5886,-0.1198,0.7630,
2025-03-04 18:59:42.106,9.4500,-2.1700,1.8500,-6.4375,3.3125,7.5625,-0.2394,-0.5882,-0.1198,0.7631,
2025-03-04 18:59:42.107,9.4500,-2.2400,1.8500,-6.1875,3.1250,7.1875,-0.2402,-0.5878,-0.1196,0.7632,
2025-03-04 18:59:42.107,9.4800,-2.2700,1.8200,-5.6875,3.0625,6.8750,-0.2408,-0.5874,-0.1196,0.7633,
2025-03-04 18:59:42.107,9.4700,-2.3300,1.8300,-4.7500,3.0000,6.8750,-0.2415,-0.5870,-0.1194,0.7634,
2025-03-04 18:59:42.107,9.4600,-2.3300,1.8500,-3.6875,2.8125,7.1875,-0.2421,-0.5867,-0.1192,0.7636,
2025-03-04 18:59:42.107,9.4600,-2.3000,1.8600,-2.4375,2.5625,7.3750,-0.2426,-0.5863,-0.1189,0.7637,
2025-03-04 18:59:42.107,9.4600,-2.2800,1.8700,-1.3125,2.6250,7.5625,-0.2430,-0.5860,-0.1185,0.7639,
2025-03-04 18:59:42.107,9.4600,-2.2000,1.9000,-1.0625,2.6875,7.4375,-0.2434,-0.5856,-0.1182,0.7641,
2025-03-04 18:59:42.107,9.4500,-2.1800,1.9100,-1.1250,3.1250,7.0000,-0.2438,-0.5853,-0.1178,0.7643,
2025-03-04 18:59:42.107,9.4700,-2.1800,1.9300,-1.5625,3.3125,6.5000,-0.2441,-0.5850,-0.1176,0.7645,
2025-03-04 18:59:42.107,9.4500,-2.2600,1.9400,-2.5000,3.1250,6.0625,-0.2446,-0.5846,-0.1174,0.7646,
2025-03-04 18:59:42.107,9.4600,-2.3100,1.9300,-3.1250,3.2500,5.7500,-0.2450,-0.5843,-0.1172,0.7648,
2025-03-04 18:59:42.107,9.4500,-2.3700,1.9000,-3.3750,3.3125,5.3750,-0.2454,-0.5839,-0.1171,0.7649,
2025-03-04 18:59:42.114,9.4200,-2.4200,1.9200,-3.2500,3.3125,5.3750,-0.2459,-0.5835,-0.1170,0.7651,
2025-03-04 18:59:42.129,9.3700,-2.4800,1.9300,-2.6875,3.1875,5.5625,-0.2463,-0.5832,-0.1168,0.7652,
2025-03-04 18:59:42.134,9.3100,-2.5100,1.9200,-2.1250,3.1250,5.6250,-0.2467,-0.5828,-0.1166,0.7654,
2025-03-04 18:59:42.143,9.3200,-2.5000,1.9300,-1.1875,2.8750,5.5625,-0.2471,-0.5825,-0.1164,0.7656,
2025-03-04 18:59:42.154,9.2600,-2.4700,1.9100,-0.3750,2.5000,5.5625,-0.2473,-0.5823,-0.1161,0.7657,
2025-03-04 18:59:42.284,9.2700,-2.4400,1.9400,0.1250,2.2500,5.3750,-0.2476,-0.5820,-0.1158,0.7659,
2025-03-04 18:59:42.284,9.2700,-2.4100,1.9500,0.6250,2.3750,5.1250,-0.2477,-0.5817,-0.1154,0.7661,
2025-03-04 18:59:42.284,9.2600,-2.3900,1.9600,1.0625,2.7500,5.0625,-0.2479,-0.5815,-0.1151,0.7663,
2025-03-04 18:59:42.284,9.2800,-2.3800,1.9800,0.8750,2.6875,5.3125,-0.2481,-0.5812,-0.1148,0.7665,
2025-03-04 18:59:42.284,9.2700,-2.3700,1.9600,0.3125,2.8750,5.0000,-0.2483,-0.5809,-0.1145,0.7667,
2025-03-04 18:59:42.284,9.2900,-2.3700,1.9700,-0.3750,2.6250,4.8750,-0.2485,-0.5806,-0.1143,0.7668,
2025-03-04 18:59:42.284,9.2800,-2.3900,1.9900,-1.0625,2.2500,4.5000,-0.2488,-0.5804,-0.1141,0.7670,
2025-03-04 18:59:42.284,9.2800,-2.4100,1.9800,-1.2500,2.0000,4.1250,-0.2490,-0.5801,-0.1139,0.7671,
2025-03-04 18:59:42.284,9.3200,-2.4500,1.9700,-1.6875,1.8125,4.1875,-0.2493,-0.5799,-0.1138,0.7672,
2025-03-04 18:59:42.284,9.3400,-2.4700,1.9600,-1.9375,1.5625,3.8750,-0.2496,-0.5797,-0.1136,0.7673,
2025-03-04 18:59:42.284,9.3700,-2.5200,1.9900,-2.0000,1.4375,3.5625,-0.2499,-0.5795,-0.1135,0.7673,
2025-03-04 18:59:42.284,9.3900,-2.5100,1.9600,-1.6250,1.0625,3.1250,-0.2502,-0.5794,-0.1134,0.7674,
2025-03-04 18:59:42.284,9.4400,-2.5200,1.9100,-1.4375,0.7500,2.8125,-0.2504,-0.5793,-0.1133,0.7674,
2025-03-04 18:59:42.284,9.4300,-2.5400,1.8700,-1.5625,0.1250,2.6250,-0.2507,-0.5792,-0.1132,0.7674,
2025-03-04 18:59:42.303,9.4400,-2.5800,1.8600,-0.9375,-0.9375,2.3750,-0.2509,-0.5792,-0.1131,0.7673,
2025-03-04 18:59:42.303,9.4600,-2.5200,1.8500,0.6875,-1.9375,2.3750,-0.2510,-0.5794,-0.1129,0.7672,
2025-03-04 18:59:42.329,9.5000,-2.4900,1.8400,2.2500,-2.5000,2.5625,-0.2510,-0.5795,-0.1125,0.7671,
2025-03-04 18:59:42.345,9.5300,-2.3900,1.8300,3.5625,-2.7500,2.7500,-0.2509,-0.5797,-0.1121,0.7671,
2025-03-04 18:59:42.345,9.5300,-2.3500,1.8400,4.3125,-2.3750,2.5625,-0.2507,-0.5799,-0.1117,0.7670,
2025-03-04 18:59:42.364,9.4900,-2.2900,1.7900,4.9375,-2.3125,2.3125,-0.2505,-0.5801,-0.1113,0.7670,
2025-03-04 18:59:42.364,9.4600,-2.2100,1.8200,5.0000,-1.8125,2.3750,-0.2503,-0.5803,-0.1110,0.7670,
2025-03-04 18:59:42.374,9.4800,-2.1900,1.8200,4.6250,-1.5625,2.3125,-0.2500,-0.5806,-0.1107,0.7670,
2025-03-04 18:59:42.384,9.5000,-2.1200,1.8600,4.3750,-1.5000,2.1875,-0.2497,-0.5808,-0.1104,0.7669,
2025-03-04 18:59:42.388,9.4700,-2.1000,1.8500,4.8750,-1.0000,2.0625,-0.2493,-0.5811,-0.1102,0.7669,
2025-03-04 18:59:42.402,9.4000,-2.1100,1.7900,5.0625,-0.4375,1.9375,-0.2489,-0.5812,-0.1100,0.7669,
2025-03-04 18:59:42.413,9.3900,-2.1000,1.7900,5.1875,-0.4375,1.8125,-0.2485,-0.5814,-0.1098,0.7669,
2025-03-04 18:59:42.423,9.3900,-2.0300,1.7900,4.9375,-0.6875,1.8750,-0.2480,-0.5817,-0.1096,0.7669,
2025-03-04 18:59:42.434,9.4100,-1.9900,1.8000,4.8750,-0.6875,2.1875,-0.2476,-0.5820,-0.1094,0.7668,
2025-03-04 18:59:42.483,9.3500,-1.9100,1.8000,4.8125,-1.0000,2.4375,-0.2471,-0.5823,-0.1093,0.7668,
2025-03-04 18:59:42.483,9.3700,-1.7700,1.7500,4.6250,-0.8125,2.1875,-0.2465,-0.5826,-0.1093,0.7667,
2025-03-04 18:59:42.483,9.3600,-1.6500,1.7600,3.8750,-0.7500,1.1875,-0.2463,-0.5827,-0.1090,0.7667,
2025-03-04 18:59:42.485,9.3700,-1.5100,1.7900,2.2500,-0.6875,0.0000,-0.2462,-0.5828,-0.1089,0.7668,
2025-03-04 18:59:42.488,9.3700,-1.4600,1.8000,0.0625,-0.7500,-1.6250,-0.2461,-0.5828,-0.1090,0.7667,
2025-03-04 18:59:42.494,9.3900,-1.4500,1.8400,-2.8125,-1.0000,-2.8750,-0.2461,-0.5829,-0.1093,0.7666,
2025-03-04 18:59:42.505,9.3500,-1.4500,1.8600,-6.1875,-1.3750,-4.5000,-0.2463,-0.5831,-0.1099,0.7663,
2025-03-04 18:59:42.566,9.3600,-1.6700,1.9000,-9.9375,-1.2500,-6.2500,-0.2467,-0.5832,-0.1108,0.7660,
2025-03-04 18:59:42.566,9.4500,-1.8500,1.9300,-13.3750,-0.4375,-7.4375,-0.2472,-0.5832,-0.1119,0.7657,
2025-03-04 18:59:42.566,9.4800,-2.0300,1.9600,-15.8125,-0.0625,-8.6250,-0.2478,-0.5832,-0.1132,0.7652,
2025-03-04 18:59:42.566,9.6200,-2.5300,1.9300,-17.5000,0.4375,-9.5000,-0.2485,-0.5833,-0.1147,0.7648,
2025-03-04 18:59:42.584,9.6500,-2.7800,1.9100,-18.0000,0.9375,-9.6250,-0.2491,-0.5833,-0.1163,0.7643,
2025-03-04 18:59:42.584,9.6200,-2.9600,1.8900,-17.3125,0.5625,-8.9375,-0.2498,-0.5833,-0.1177,0.7639,
2025-03-04 18:59:42.584,9.5600,-3.0600,1.8700,-15.1875,0.2500,-7.8750,-0.2504,-0.5833,-0.1190,0.7635,
2025-03-04 18:59:42.584,9.3200,-2.9100,1.8700,-12.0625,-0.4375,-6.7500,-0.2509,-0.5833,-0.1200,0.7632,
2025-03-04 18:59:42.604,9.1900,-2.7000,1.8200,-9.0000,-1.6875,-6.3750,-0.2511,-0.5835,-0.1208,0.7628,
2025-03-04 18:59:42.604,9.1400,-2.4600,1.7800,-5.8125,-3.3125,-6.3750,-0.2512,-0.5837,-0.1214,0.7625,
2025-03-04 18:59:42.624,9.1800,-2.2100,1.6800,-3.6875,-4.0625,-7.0625,-0.2512,-0.5841,-0.1219,0.7621,
2025-03-04 18:59:42.624,9.1600,-2.1900,1.6900,-2.6250,-3.6875,-7.5000,-0.2510,-0.5845,-0.1225,0.7618,
2025-03-04 18:59:42.644,9.2100,-2.2400,1.6600,-2.7500,-2.8750,-7.6250,-0.2508,-0.5848,-0.1231,0.7615,
2025-03-04 18:59:42.644,9.3500,-2.3400,1.6500,-3.3125,-1.8125,-7.2500,-0.2507,-0.5850,-0.1237,0.7613,
2025-03-04 18:59:42.654,9.4500,-2.4300,1.7600,-4.2500,-0.5625,-6.0000,-0.2507,-0.5851,-0.1243,0.7612,
2025-03-04 18:59:42.693,9.4600,-2.3400,1.7900,-4.9375,0.5000,-4.3750,-0.2508,-0.5852,-0.1248,0.7610,
2025-03-04 18:59:42.704,9.4700,-2.1800,1.8400,-5.0625,0.8125,-3.2500,-0.2509,-0.5852,-0.1253,0.7609,
2025-03-04 18:59:42.704,9.5500,-1.9200,1.8300,-4.8750,0.6250,-3.2500,-0.2510,-0.5852,-0.1258,0.7608,
2025-03-04 18:59:42.704,9.5700,-1.8900,1.7300,-5.2500,0.8125,-3.6250,-0.2512,-0.5851,-0.1263,0.7606,
2025-03-04 18:59:42.704,9.5600,-1.9000,1.6500,-6.0625,0.8750,-3.6250,-0.2514,-0.5851,-0.1269,0.7605,
2025-03-04 18:59:42.714,9.5500,-2.0200,1.6700,-7.0625,0.5000,-3.3750,-0.2517,-0.5851,-0.1274,0.7603,
2025-03-04 18:59:42.730,9.6700,-2.3300,1.7500,-7.6250,0.0000,-3.3125,-0.2520,-0.5851,-0.1280,0.7601,
2025-03-04 18:59:42.730,9.7700,-2.5000,1.8200,-7.4375,0.5000,-2.8125,-0.2523,-0.5850,-0.1286,0.7600,
2025-03-04 18:59:42.744,9.7800,-2.5900,1.8700,-6.7500,2.2500,-1.6250,-0.2527,-0.5848,-0.1291,0.7599,
2025-03-04 18:59:42.774,9.5000,-2.5000,1.9500,-5.3750,4.6250,0.3750,-0.2530,-0.5845,-0.1295,0.7600,
2025-03-04 18:59:42.798,9.4300,-2.2800,1.9400,-3.8125,5.0625,1.5000,-0.2532,-0.5841,-0.1296,0.7602,
2025-03-04 18:59:42.798,9.3800,-2.0300,1.9400,-3.2500,3.2500,1.3125,-0.2535,-0.5838,-0.1298,0.7603,
2025-03-04 18:59:42.798,9.3300,-1.7900,1.8900,-3.8750,1.8125,0.3750,-0.2537,-0.5837,-0.1300,0.7603,
2025-03-04 18:59:42.798,9.3100,-1.6600,1.8500,-5.9375,0.7500,-0.8750,-0.2540,-0.5836,-0.1304,0.7602,
2025-03-04 18:59:42.805,9.4400,-1.7800,1.8500,-9.4375,0.0000,-2.6875,-0.2545,-0.5835,-0.1310,0.7600,
2025-03-04 18:59:42.834,9.5200,-2.0500,1.8400,-11.8750,0.3125,-4.1250,-0.2551,-0.5835,-0.1319,0.7597,
2025-03-04 18:59:42.834,9.4200,-2.6000,1.8900,-13.5625,2.5000,-3.7500,-0.2557,-0.5832,-0.1329,0.7595,
2025-03-04 18:59:42.834,9.4300,-2.7400,1.9200,-15.0625,4.3750,-1.5625,-0.2566,-0.5828,-0.1338,0.7593,
2025-03-04 18:59:42.898,9.4000,-2.8400,1.9900,-15.3125,5.3750,0.1250,-0.2575,-0.5823,-0.1346,0.7593,
2025-03-04 18:59:42.898,9.4100,-2.9100,2.0100,-14.7500,5.6250,1.3750,-0.2584,-0.5817,-0.1354,0.7592,
2025-03-04 18:59:42.898,9.2700,-2.7400,2.0300,-13.7500,5.8750,2.2500,-0.2593,-0.5812,-0.1361,0.7593,
2025-03-04 18:59:42.898,9.2000,-2.5800,1.9700,-12.6875,5.3125,2.3125,-0.2602,-0.5806,-0.1367,0.7593,
2025-03-04 18:59:42.898,9.2100,-2.4300,1.9400,-12.5625,3.7500,1.2500,-0.2611,-0.5802,-0.1373,0.7592,
2025-03-04 18:59:42.898,9.2900,-2.4100,1.8800,-12.8125,2.0000,-0.1250,-0.2619,-0.5799,-0.1380,0.7590,
2025-03-04 18:59:42.904,9.3000,-2.5500,1.8700,-13.0625,1.9375,-0.5000,-0.2627,-0.5797,-0.1387,0.7588,
2025-03-04 18:59:42.914,9.3300,-2.6900,1.8900,-12.8750,3.3125,0.0625,-0.2635,-0.5793,-0.1393,0.7587,
2025-03-04 18:59:42.924,9.3800,-2.8300,1.9100,-12.2500,4.4375,1.1875,-0.2644,-0.5787,-0.1398,0.7587,
2025-03-04 18:59:42.930,9.4100,-2.9600,2.0400,-11.5625,5.3750,2.2500,-0.2652,-0.5782,-0.1404,0.7587,
2025-03-04 18:59:42.944,9.4200,-2.9600,2.1000,-11.1250,5.5625,2.9375,-0.2660,-0.5776,-0.1409,0.7588,
2025-03-04 18:59:42.954,9.3800,-2.9000,2.1000,-11.3125,6.0000,3.3125,-0.2668,-0.5770,-0.1414,0.7589,
2025-03-04 18:59:42.964,9.2700,-2.7600,2.1100,-11.8750,5.8750,3.3750,-0.2677,-0.5765,-0.1418,0.7589,
2025-03-04 18:59:42.976,9.2200,-2.6400,2.0400,-11.8750,5.1250,3.0625,-0.2686,-0.5759,-0.1423,0.7589,
2025-03-04 18:59:42.984,9.1900,-2.5300,1.9900,-11.1875,3.8125,2.1875,-0.2694,-0.5754,-0.1428,0.7589,
2025-03-04 18:59:42.996,9.1600,-2.4700,1.9300,-10.5000,2.5625,1.1875,-0.2701,-0.5751,-0.1432,0.7588,
2025-03-04 18:59:43.004,9.1100,-2.4900,1.9000,-9.9375,2.4375,0.2500,-0.2707,-0.5748,-0.1438,0.7587,
2025-03-04 18:59:43.015,9.1700,-2.5700,1.9300,-9.2500,2.7500,-0.0625,-0.2712,-0.5745,-0.1443,0.7587,
2025-03-04 18:59:43.030,9.2300,-2.6900,1.9100,-8.2500,3.1250,-0.3750,-0.2717,-0.5742,-0.1448,0.7586,
2025-03-04 18:59:43.033,9.2700,-2.7900,1.9700,-7.6875,3.1875,-0.4375,-0.2723,-0.5738,-0.1451,0.7587,
2025-03-04 18:59:43.044,9.3100,-2.9800,2.0600,-7.1875,3.3750,0.0625,-0.2727,-0.5735,-0.1456,0.7587,
2025-03-04 18:59:43.055,9.3100,-2.9300,2.1100,-6.8125,3.2500,1.0625,-0.2732,-0.5732,-0.1459,0.7587,
2025-03-04 18:59:43.064,9.2400,-2.8500,2.0700,-6.8750,2.8750,2.1250,-0.2737,-0.5729,-0.1462,0.7587,
2025-03-04 18:59:43.073,9.0700,-2.6000,2.0200,-7.6875,1.6875,2.6875,-0.2743,-0.5726,-0.1464,0.7586,
2025-03-04 18:59:43.074,9.0000,-2.4500,1.9500,-7.7500,-0.0625,2.3125,-0.2749,-0.5725,-0.1466,0.7584,
2025-03-04 18:59:43.094,8.9800,-2.3200,1.8900,-7.6875,-1.4375,1.4375,-0.2755,-0.5724,-0.1469,0.7582,
2025-03-04 18:59:43.104,8.9900,-2.3100,1.8800,-8.4375,-1.8125,0.2500,-0.2761,-0.5724,-0.1472,0.7579,
2025-03-04 18:59:43.114,9.1600,-2.6000,1.8900,-9.6875,-1.3750,-0.6875,-0.2767,-0.5724,-0.1477,0.7576,
2025-03-04 18:59:43.123,9.1900,-2.7700,1.9200,-10.3750,-0.1250,-0.8750,-0.2773,-0.5723,-0.1483,0.7574,
2025-03-04 18:59:43.133,9.1900,-2.9000,1.9800,-10.3125,1.1875,-0.3750,-0.2779,-0.5721,-0.1488,0.7572,
2025-03-04 18:59:43.174,9.2100,-2.9700,2.0800,-9.5000,1.1875,0.1250,-0.2785,-0.5719,-0.1493,0.7570,
2025-03-04 18:59:43.174,9.2400,-2.9300,2.0800,-8.3125,0.8125,0.5000,-0.2790,-0.5717,-0.1497,0.7569,
2025-03-04 18:59:43.183,9.2200,-2.8500,2.0800,-7.0000,0.3125,0.3750,-0.2795,-0.5716,-0.1501,0.7567,
2025-03-04 18:59:43.183,9.2200,-2.8100,2.0100,-6.1250,-0.2500,0.0625,-0.2799,-0.5716,-0.1503,0.7565,
2025-03-04 18:59:43.184,9.1500,-2.6800,1.9300,-5.5625,-1.2500,-0.2500,-0.2803,-0.5715,-0.1505,0.7564,
2025-03-04 18:59:43.193,9.2100,-2.6500,1.9200,-4.9375,-2.7500,-1.0625,-0.2808,-0.5715,-0.1506,0.7562,
2025-03-04 18:59:43.203,9.3200,-2.7000,1.8900,-4.5625,-2.9375,-1.1250,-0.2811,-0.5716,-0.1508,0.7560,
2025-03-04 18:59:43.214,9.3600,-2.9500,1.9300,-4.1250,-1.8750,-0.6250,-0.2814,-0.5716,-0.1509,0.7559,
2025-03-04 18:59:43.223,9.3500,-3.1400,1.9900,-3.1875,-0.3750,0.5625,-0.2819,-0.5714,-0.1508,0.7559,
2025-03-04 18:59:43.234,9.3500,-3.2400,2.0100,-2.3750,0.3125,2.3125,-0.2822,-0.5713,-0.1508,0.7558,
2025-03-04 18:59:43.244,9.3400,-3.2700,2.0400,-1.1250,0.3125,3.9375,-0.2824,-0.5712,-0.1506,0.7559,
2025-03-04 18:59:43.264,9.2400,-2.9600,2.0000,0.4375,0.0000,4.9375,-0.2827,-0.5711,-0.1503,0.7559,
2025-03-04 18:59:43.264,9.2300,-2.7200,1.9700,1.3750,-0.7500,5.5000,-0.2828,-0.5710,-0.1498,0.7560,
2025-03-04 18:59:43.273,9.2400,-2.5000,1.9200,1.9375,-1.8750,4.8125,-0.2830,-0.5710,-0.1494,0.7560,
2025-03-04 18:59:43.284,9.2000,-2.2700,1.8300,2.0000,-2.6875,3.6250,-0.2831,-0.5711,-0.1490,0.7560,
2025-03-04 18:59:43.296,9.2100,-2.3100,1.7500,1.5000,-3.3750,2.1875,-0.2831,-0.5713,-0.1487,0.7559,
2025-03-04 18:59:43.304,9.2500,-2.4600,1.7300,0.6250,-3.6875,1.5000,-0.2832,-0.5715,-0.1484,0.7557,
2025-03-04 18:59:43.314,9.2900,-2.6500,1.8200,0.5625,-3.1250,2.1250,-0.2833,-0.5717,-0.1483,0.7556,
2025-03-04 18:59:43.316,9.2800,-3.0000,1.9500,0.3125,-1.8125,3.3750,-0.2836,-0.5717,-0.1480,0.7555,
2025-03-04 18:59:43.336,9.2600,-3.0500,2.0500,0.5625,-0.4375,4.7500,-0.2838,-0.5716,-0.1477,0.7556,
2025-03-04 18:59:43.344,9.2300,-3.0700,2.1000,0.8750,0.1250,5.6875,-0.2840,-0.5715,-0.1473,0.7557,
2025-03-04 18:59:43.363,9.2600,-2.9000,2.0500,0.9375,0.0625,5.8750,-0.2842,-0.5713,-0.1468,0.7558,
2025-03-04 18:59:43.363,9.2700,-2.8800,2.0000,0.1250,0.0000,5.6250,-0.2845,-0.5712,-0.1465,0.7559,
2025-03-04 18:59:43.363,9.2900,-2.9000,1.9200,-0.6875,-0.1250,4.8125,-0.2848,-0.5710,-0.1462,0.7559,
2025-03-04 18:59:43.388,9.2600,-2.9500,1.8700,-0.7500,-0.6250,4.5625,-0.2852,-0.5709,-0.1458,0.7560,
2025-03-04 18:59:43.394,9.2000,-3.0300,1.8500,0.0625,-0.8750,4.6875,-0.2856,-0.5707,-0.1453,0.7561,
2025-03-04 18:59:43.394,9.2000,-3.0500,1.8600,1.3125,-1.1250,5.0625,-0.2859,-0.5705,-0.1448,0.7561,
2025-03-04 18:59:43.413,9.1700,-3.0200,1.8800,2.7500,-1.1250,5.4375,-0.2862,-0.5704,-0.1440,0.7563,
2025-03-04 18:59:43.423,9.1700,-2.9200,1.9300,4.1250,-0.8750,5.9375,-0.2864,-0.5703,-0.1433,0.7565,
2025-03-04 18:59:43.433,9.1700,-2.8000,1.9700,4.7500,-0.5000,5.8125,-0.2864,-0.5701,-0.1426,0.7567,
2025-03-04 18:59:43.474,9.1900,-2.6800,1.9800,4.6875,-0.3125,5.6250,-0.2864,-0.5699,-0.1420,0.7570,
2025-03-04 18:59:43.474,9.2100,-2.6000,1.9400,4.1250,-0.3125,4.8750,-0.2864,-0.5699,-0.1415,0.7571,
2025-03-04 18:59:43.474,9.2600,-2.5700,1.9000,2.3125,-0.2500,3.7500,-0.2864,-0.5698,-0.1412,0.7572,
2025-03-04 18:59:43.474,9.2700,-2.6500,1.9100,0.2500,0.0625,3.1875,-0.2865,-0.5697,-0.1410,0.7572,
2025-03-04 18:59:43.474,9.2700,-2.7700,1.9300,-1.8125,0.3750,2.5000,-0.2868,-0.5697,-0.1409,0.7572,
2025-03-04 18:59:43.494,9.3100,-3.0400,1.9600,-3.3125,1.1250,2.3125,-0.2871,-0.5695,-0.1409,0.7573,
2025-03-04 18:59:43.514,9.3900,-3.1500,1.9500,-3.7500,1.8750,2.3750,-0.2875,-0.5692,-0.1410,0.7573,
2025-03-04 18:59:43.514,9.3900,-3.2200,1.9400,-2.6250,3.0000,2.8750,-0.2877,-0.5689,-0.1410,0.7574,
2025-03-04 18:59:43.514,9.4100,-3.2400,1.9000,-0.5000,4.3750,3.3750,-0.2879,-0.5686,-0.1409,0.7577,
2025-03-04 18:59:43.538,9.4200,-3.0800,1.8500,2.0000,5.1250,4.0625,-0.2878,-0.5682,-0.1406,0.7580,
2025-03-04 18:59:43.544,9.4000,-2.9100,1.8500,3.6250,4.8750,4.3750,-0.2878,-0.5678,-0.1403,0.7584,
2025-03-04 18:59:43.555,9.3700,-2.7800,1.8900,4.1250,4.6875,4.8750,-0.2877,-0.5674,-0.1399,0.7587,
2025-03-04 18:59:43.564,9.5400,-2.5900,2.2000,3.8750,5.0625,4.9375,-0.2876,-0.5670,-0.1395,0.7592,
2025-03-04 18:59:43.564,9.5500,-2.5300,2.4100,3.6250,7.0625,4.7500,-0.2875,-0.5665,-0.1392,0.7596,
2025-03-04 18:59:43.584,9.2600,-2.5500,2.6300,5.1250,12.1250,5.0625,-0.2873,-0.5656,-0.1389,0.7604,
2025-03-04 18:59:43.595,9.0300,-2.5100,2.7800,6.8125,19.8750,6.3125,-0.2869,-0.5643,-0.1387,0.7616,
2025-03-04 18:59:43.604,9.3000,-2.4800,2.7500,3.8750,24.1250,6.3125,-0.2867,-0.5626,-0.1387,0.7629,
2025-03-04 18:59:43.613,9.5000,-2.5400,2.6500,-1.6875,24.6250,5.4375,-0.2868,-0.5609,-0.1390,0.7641,
2025-03-04 18:59:43.630,9.6100,-2.5600,2.5300,-6.3750,25.6875,5.0000,-0.2871,-0.5590,-0.1396,0.7652,
2025-03-04 18:59:43.633,9.5200,-2.6100,2.2500,-10.8750,26.8750,4.8125,-0.2877,-0.5570,-0.1404,0.7663,
2025-03-04 18:59:43.644,9.5100,-2.5700,2.1200,-14.9375,26.5625,4.8750,-0.2886,-0.5550,-0.1415,0.7672,
2025-03-04 18:59:43.656,9.5500,-2.5200,2.1500,-18.3750,25.4375,4.9375,-0.2897,-0.5530,-0.1426,0.7681,
2025-03-04 18:59:43.664,9.5900,-2.5300,2.2400,-21.1875,24.3125,4.8125,-0.2911,-0.5510,-0.1439,0.7687,
2025-03-04 18:59:43.664,9.5400,-2.9000,2.6800,-22.5000,24.9375,4.1250,-0.2924,-0.5491,-0.1453,0.7693,
2025-03-04 18:59:43.684,9.5300,-3.1100,2.8100,-21.8750,28.4375,4.6250,-0.2937,-0.5468,-0.1467,0.7702,
2025-03-04 18:59:43.693,9.5000,-3.2900,3.0100,-19.5000,32.8750,6.8750,-0.2949,-0.5443,-0.1480,0.7713,
2025-03-04 18:59:43.704,9.4200,-3.2400,3.2100,-15.8125,36.4375,9.5625,-0.2959,-0.5414,-0.1490,0.7727,
2025-03-04 18:59:43.714,9.3700,-2.5900,3.3300,-11.7500,38.9375,11.1875,-0.2967,-0.5384,-0.1498,0.7743,
2025-03-04 18:59:43.718,9.4000,-2.3100,3.3500,-10.6250,40.6250,11.0625,-0.2974,-0.5354,-0.1506,0.7761,
2025-03-04 18:59:43.733,9.4400,-2.1700,3.2800,-13.6875,42.5000,10.0000,-0.2982,-0.5322,-0.1516,0.7778,
2025-03-04 18:59:43.780,9.4300,-2.2300,3.0800,-18.4375,44.5625,8.5000,-0.2992,-0.5288,-0.1530,0.7794,
2025-03-04 18:59:43.780,9.3700,-2.4700,3.0200,-23.4375,46.1250,6.6875,-0.3005,-0.5253,-0.1547,0.7809,
2025-03-04 18:59:43.780,9.3400,-2.7000,3.0600,-26.1875,47.1875,5.3750,-0.3018,-0.5217,-0.1567,0.7824,
2025-03-04 18:59:43.780,9.2300,-2.8100,3.0900,-26.2500,48.3125,4.0625,-0.3031,-0.5180,-0.1589,0.7839,
2025-03-04 18:59:43.786,9.1000,-2.9000,3.2900,-25.3125,50.3125,2.4375,-0.3042,-0.5143,-0.1611,0.7855,
2025-03-04 18:59:43.797,9.0300,-2.9400,3.3500,-23.9375,52.5625,0.2500,-0.3051,-0.5104,-0.1635,0.7872,
2025-03-04 18:59:43.805,8.9900,-2.9700,3.3800,-21.5625,54.4375,-2.0625,-0.3057,-0.5066,-0.1660,0.7889,
2025-03-04 18:59:43.814,9.0000,-2.9200,3.4200,-19.5000,56.2500,-2.8750,-0.3060,-0.5026,-0.1685,0.7908,
2025-03-04 18:59:43.823,9.0000,-2.8200,3.4700,-18.3125,57.7500,-2.0625,-0.3063,-0.4985,-0.1708,0.7927,
2025-03-04 18:59:43.834,9.0100,-2.7200,3.4800,-18.1875,58.3125,-1.3750,-0.3066,-0.4944,-0.1732,0.7947,
2025-03-04 18:59:43.843,9.0200,-2.6500,3.5200,-19.3750,58.6875,-1.7500,-0.3068,-0.4903,-0.1758,0.7966,
2025-03-04 18:59:43.854,8.9100,-2.7200,3.6300,-21.9375,60.0625,-3.0000,-0.3071,-0.4860,-0.1786,0.7985,
2025-03-04 18:59:43.864,8.9500,-2.7900,3.6900,-24.8125,62.7500,-4.0000,-0.3074,-0.4816,-0.1816,0.8004,
2025-03-04 18:59:43.873,9.0200,-2.9800,3.8100,-29.0625,64.9375,-5.0000,-0.3082,-0.4768,-0.1849,0.8022,
2025-03-04 18:59:43.884,8.9300,-3.4200,4.0500,-33.7500,67.5625,-5.5000,-0.3092,-0.4719,-0.1884,0.8039,
2025-03-04 18:59:43.895,8.8300,-3.5100,4.0600,-37.1250,70.8125,-5.2500,-0.3104,-0.4666,-0.1920,0.8056,
2025-03-04 18:59:43.904,8.7900,-3.5400,4.1100,-38.5625,71.8750,-4.6875,-0.3116,-0.4612,-0.1957,0.8074,
2025-03-04 18:59:43.924,8.7700,-3.5900,4.1400,-38.8750,71.1875,-3.8750,-0.3130,-0.4558,-0.1994,0.8090,
2025-03-04 18:59:43.924,8.6500,-3.5700,4.3300,-38.1875,71.1875,-2.7500,-0.3143,-0.4503,-0.2029,0.8107,
2025-03-04 18:59:43.930,8.5700,-3.5700,4.4100,-37.0625,71.5625,-1.5000,-0.3156,-0.4448,-0.2064,0.8124,
2025-03-04 18:59:43.943,8.5400,-3.5400,4.5900,-34.8125,71.2500,-0.2500,-0.3166,-0.4393,-0.2096,0.8141,
2025-03-04 18:59:43.968,8.6700,-2.7900,4.6400,-30.1875,69.7500,0.1250,-0.3175,-0.4340,-0.2126,0.8159,
2025-03-04 18:59:43.968,8.8700,-2.2400,4.7200,-19.6875,68.9375,-0.6875,-0.3176,-0.4289,-0.2151,0.8179,
2025-03-04 18:59:43.974,8.9700,-1.8100,4.8900,-10.6875,71.3125,-2.2500,-0.3169,-0.4238,-0.2176,0.8201,
2025-03-04 18:59:43.983,8.8500,-1.6600,5.0500,-12.6875,77.1250,-4.3750,-0.3163,-0.4183,-0.2205,0.8224,
2025-03-04 18:59:43.993,8.4700,-2.5200,5.2300,-22.1875,82.2500,-7.4375,-0.3160,-0.4124,-0.2239,0.8246,
2025-03-04 18:59:44.004,8.4000,-3.2900,5.2900,-30.0625,86.5625,-8.5000,-0.3162,-0.4060,-0.2279,0.8266,
2025-03-04 18:59:44.023,8.4300,-3.9600,5.4100,-33.3125,89.5625,-6.8125,-0.3165,-0.3993,-0.2319,0.8286,
2025-03-04 18:59:44.023,8.4400,-4.9400,5.6500,-32.4375,90.8125,-2.6250,-0.3169,-0.3923,-0.2356,0.8308,
2025-03-04 18:59:44.031,8.4900,-5.1200,5.7500,-28.5000,92.7500,2.5000,-0.3171,-0.3852,-0.2388,0.8331,
2025-03-04 18:59:44.065,8.6200,-5.2400,5.8000,-23.3750,93.5625,7.9375,-0.3171,-0.3779,-0.2415,0.8356,
2025-03-04 18:59:44.094,8.6000,-5.2900,5.7900,-20.1875,94.6875,11.6250,-0.3170,-0.3705,-0.2439,0.8383,
2025-03-04 18:59:44.094,8.3600,-5.1700,6.0700,-18.8125,96.7500,13.8125,-0.3168,-0.3628,-0.2461,0.8411,
2025-03-04 18:59:44.094,8.2100,-5.1300,6.2800,-19.0000,98.3750,16.3750,-0.3165,-0.3550,-0.2481,0.8439,
2025-03-04 18:59:44.094,8.0200,-5.0700,6.4200,-20.8750,100.1875,19.5625,-0.3165,-0.3469,-0.2500,0.8467,
2025-03-04 18:59:44.094,7.7300,-4.9900,6.7200,-23.9375,102.6250,23.2500,-0.3167,-0.3384,-0.2518,0.8496,
2025-03-04 18:59:44.103,7.7200,-5.0300,6.6500,-28.1250,104.5625,27.0000,-0.3173,-0.3296,-0.2535,0.8523,
2025-03-04 18:59:44.114,7.6600,-4.9900,6.6400,-31.6250,106.7500,31.3125,-0.3181,-0.3204,-0.2549,0.8551,
2025-03-04 18:59:44.114,7.5900,-4.8000,6.6500,-33.7500,109.3125,34.6875,-0.3192,-0.3108,-0.2562,0.8578,
2025-03-04 18:59:44.133,7.4800,-4.3300,6.5700,-33.5000,110.8750,38.0000,-0.3201,-0.3010,-0.2573,0.8607,
2025-03-04 18:59:44.144,7.2900,-4.2500,6.4700,-33.8125,112.4375,41.0625,-0.3212,-0.2910,-0.2582,0.8634,
2025-03-04 18:59:44.154,7.1300,-4.2100,6.4000,-37.0000,114.6250,43.0000,-0.3224,-0.2806,-0.2591,0.8661,
2025-03-04 18:59:44.173,7.1000,-4.3600,6.4800,-39.8750,116.0000,43.5625,-0.3238,-0.2700,-0.2600,0.8687,
2025-03-04 18:59:44.173,7.0700,-4.5200,6.5300,-43.0625,116.6250,45.3125,-0.3254,-0.2593,-0.2609,0.8711,
2025-03-04 18:59:44.204,6.9000,-4.5500,6.5800,-45.6250,117.3125,47.1250,-0.3272,-0.2483,-0.2616,0.8734,
2025-03-04 18:59:44.204,6.6900,-4.4900,6.6900,-46.8750,118.1875,49.0625,-0.3291,-0.2372,-0.2622,0.8756,
2025-03-04 18:59:44.204,6.3300,-4.1800,6.6200,-45.9375,118.3750,50.4375,-0.3309,-0.2260,-0.2627,0.8778,
2025-03-04 18:59:44.228,6.2100,-4.1600,6.6500,-43.4375,118.0000,51.3750,-0.3324,-0.2148,-0.2630,0.8799,
2025-03-04 18:59:44.228,6.0500,-4.1800,6.6400,-41.0625,118.0625,51.0000,-0.3337,-0.2037,-0.2632,0.8820,
2025-03-04 18:59:44.233,5.6100,-4.4700,6.8300,-39.6250,118.3750,50.0625,-0.3349,-0.1926,-0.2635,0.8839,
2025-03-04 18:59:44.244,5.4200,-4.7700,6.7900,-39.7500,119.4375,48.8125,-0.3360,-0.1813,-0.2638,0.8858,
2025-03-04 18:59:44.255,5.1300,-5.1500,6.8400,-38.5000,120.3125,47.7500,-0.3369,-0.1701,-0.2643,0.8875,
2025-03-04 18:59:44.263,4.9500,-5.4200,6.8600,-35.8125,120.7500,47.6250,-0.3376,-0.1589,-0.2646,0.8893,
2025-03-04 18:59:44.274,4.8600,-5.3000,7.1300,-31.2500,119.1875,48.5000,-0.3379,-0.1478,-0.2648,0.8910,
2025-03-04 18:59:44.284,4.9000,-5.1400,7.1200,-26.6875,117.1875,49.6250,0.1320,-0.3398,0.8887,0.2779,
2025-03-04 18:59:44.294,4.7400,-4.9700,7.0600,-21.8750,116.2500,49.5625,0.1213,-0.3393,0.8905,0.2777,
2025-03-04 18:59:44.304,4.4900,-4.8700,6.9600,-17.3125,115.5000,48.6875,0.1108,-0.3384,0.8923,0.2775,
2025-03-04 18:59:44.315,4.0100,-4.9900,6.8900,-15.1250,115.3750,47.7500,0.1004,-0.3372,0.8940,0.2773,
2025-03-04 18:59:44.323,3.7600,-4.9400,6.8200,-13.6250,115.3750,46.8750,0.0900,-0.3359,0.8956,0.2772,
2025-03-04 18:59:44.334,3.5500,-4.7700,6.8300,-13.5000,114.5000,46.7500,0.0803,-0.3345,0.8977,0.2755,
2025-03-04 18:59:44.384,3.4700,-5.0700,6.8500,-16.1875,112.5625,47.9375,0.0700,-0.3334,0.8990,0.2752,
2025-03-04 18:59:44.384,3.2800,-4.9500,6.8700,-19.3125,112.3750,45.3125,0.0598,-0.3325,0.9001,0.2750,
2025-03-04 18:59:44.384,3.1900,-4.9500,6.8500,-20.0000,112.4375,42.3125,0.0495,-0.3316,0.9011,0.2750,
2025-03-04 18:59:44.384,3.0200,-4.9500,6.9000,-21.4375,111.2500,41.1875,0.0394,-0.3308,0.9019,0.2751,
2025-03-04 18:59:44.385,2.6700,-5.2500,7.1600,-24.7500,110.6875,40.7500,0.0293,-0.3303,0.9025,0.2749,
2025-03-04 18:59:44.394,2.4900,-5.4200,7.2700,-27.6250,109.9375,40.7500,0.0192,-0.3299,0.9029,0.2749,
2025-03-04 18:59:44.404,2.4200,-5.6400,7.3200,-30.6250,108.5000,40.3750,0.0090,-0.3298,0.9031,0.2749,
2025-03-04 18:59:44.414,2.1300,-6.0700,7.5300,-32.4375,108.5000,39.2500,-0.0011,-0.3297,0.9032,0.2749,
2025-03-04 18:59:44.423,1.9900,-6.2800,7.6800,-33.8125,109.0625,38.5625,-0.0113,-0.3298,0.9031,0.2750,
2025-03-04 18:59:44.434,1.7700,-6.3900,7.8400,-34.1875,108.6875,38.8750,-0.0212,-0.3298,0.9030,0.2744,
2025-03-04 18:59:44.434,1.5000,-6.4100,7.8100,-33.6250,109.6875,39.6875,-0.0315,-0.3298,0.9028,0.2744,
2025-03-04 18:59:44.465,0.9900,-6.3500,7.5300,-31.3125,109.9375,41.8125,-0.0417,-0.3295,0.9025,0.2742,
2025-03-04 18:59:44.465,0.9100,-6.4100,7.3800,-27.1250,108.6875,44.0000,-0.0519,-0.3289,0.9023,0.2737,
2025-03-04 18:59:44.474,0.8400,-6.4500,7.3600,-20.6875,106.8125,45.7500,-0.0618,-0.3278,0.9023,0.2731,
2025-03-04 18:59:44.484,0.9200,-6.7200,7.5300,-8.1875,103.6250,48.7500,-0.0712,-0.3257,0.9026,0.2722,
2025-03-04 18:59:44.494,1.1400,-7.0100,7.5100,-8.1875,103.6250,48.7500,-0.0807,-0.3236,0.9029,0.2713,
2025-03-04 18:59:44.504,1.0600,-7.1800,7.5500,-5.1250,104.0000,49.5000,-0.0901,-0.3213,0.9031,0.2703,
2025-03-04 18:59:44.514,0.8800,-7.1000,7.4600,-2.1250,103.9375,51.4375,-0.0994,-0.3187,0.9034,0.2692,
2025-03-04 18:59:44.523,0.3300,-6.7000,7.3300,1.8125,103.8125,53.2500,-0.1088,-0.3157,0.9037,0.2679,
2025-03-04 18:59:44.533,0.0900,-6.5100,7.2200,13.8125,100.1875,54.6250,-0.1177,-0.3118,0.9042,0.2671,
2025-03-04 18:59:44.543,0.0000,-6.4300,7.2000,13.8125,100.1875,54.6250,-0.1265,-0.3079,0.9048,0.2657,
2025-03-04 18:59:44.564,-0.2800,-6.2700,7.4700,24.5625,99.1875,54.4375,-0.1349,-0.3032,0.9055,0.2643,
2025-03-04 18:59:44.564,-0.4400,-6.1900,7.5800,28.3125,97.3750,52.5625,-0.1431,-0.2983,0.9063,0.2631,
2025-03-04 18:59:44.589,-0.6600,-5.9400,7.6200,26.3750,97.1250,53.9375,-0.1513,-0.2934,0.9069,0.2617,
2025-03-04 18:59:44.589,-0.9700,-5.7700,7.6800,21.7500,97.1250,53.7500,-0.1595,-0.2889,0.9074,0.2602,
2025-03-04 18:59:44.593,-1.1400,-5.7100,7.4600,16.5625,98.0000,51.5000,-0.1680,-0.2848,0.9076,0.2588,
2025-03-04 18:59:44.604,-1.2200,-5.6700,7.3000,11.1875,98.3125,48.1875,-0.1764,-0.2811,0.9075,0.2576,
2025-03-04 18:59:44.613,-1.3000,-5.8000,7.2100,8.6250,96.0000,47.8125,-0.1847,-0.2776,0.9072,0.2564,
2025-03-04 18:59:44.623,-1.5900,-5.9200,7.2000,8.5625,94.7500,50.3750,-0.1930,-0.2741,0.9070,0.2549,
2025-03-04 18:59:44.633,-1.8100,-6.0100,7.2500,9.8125,92.3125,52.6250,-0.2011,-0.2705,0.9068,0.2532,
2025-03-04 18:59:44.664,-1.9400,-6.0100,7.1900,11.0000,90.3750,54.1250,-0.2090,-0.2667,0.9067,0.2513,
2025-03-04 18:59:44.685,-2.0000,-5.9000,7.0800,10.8750,88.8750,54.3125,-0.2168,-0.2631,0.9064,0.2493,
2025-03-04 18:59:44.685,-2.0500,-5.5700,6.8100,10.4375,86.6250,53.7500,-0.2244,-0.2595,0.9062,0.2473,
2025-03-04 18:59:44.685,-2.1000,-5.4200,6.7300,10.2500,84.3125,51.8750,-0.2317,-0.2559,0.9059,0.2454,
2025-03-04 18:59:44.685,-2.1500,-5.4200,6.8700,12.4375,82.3750,49.3750,-0.2387,-0.2524,0.9056,0.2432,
2025-03-04 18:59:44.693,-2.6500,-5.7200,7.0600,16.7500,80.7500,47.5625,-0.2456,-0.2485,0.9053,0.2416,
2025-03-04 18:59:44.703,-2.8900,-5.8800,6.9900,18.3750,78.0625,47.1875,-0.2521,-0.2444,0.9050,0.2400,
2025-03-04 18:59:44.714,-3.0700,-5.8200,6.9800,17.3125,74.5625,46.1250,-0.2584,-0.2407,0.9047,0.2384,
2025-03-04 18:59:44.724,-3.2800,-5.5500,7.0300,15.5000,72.0625,45.1875,-0.2646,-0.2370,0.9043,0.2368,
2025-03-04 18:59:44.734,-3.6600,-5.0100,6.9900,13.5000,70.8750,43.6250,-0.2704,-0.2338,0.9040,0.2345,
2025-03-04 18:59:44.744,-3.6800,-4.8300,6.9100,12.1250,69.6875,40.8125,-0.2763,-0.2305,0.9034,0.2330,
2025-03-04 18:59:44.754,-3.6400,-4.7100,6.7500,9.6250,68.2500,38.5625,-0.2820,-0.2275,0.9028,0.2316,
2025-03-04 18:59:44.765,-3.6800,-4.6800,6.6900,5.7500,67.6875,37.1875,-0.2878,-0.2249,0.9020,0.2302,
2025-03-04 18:59:44.774,-3.7400,-4.6800,6.7100,2.0625,66.3750,35.9375,-0.2935,-0.2225,0.9011,0.2288,
2025-03-04 18:59:44.785,-3.8000,-4.7800,6.7300,-1.5625,64.3750,32.9375,-0.2990,-0.2208,0.9002,0.2269,
2025-03-04 18:59:44.794,-3.8800,-4.8300,6.7000,-4.5000,63.1250,29.1250,-0.3044,-0.2192,0.8991,0.2258,
2025-03-04 18:59:44.803,-4.2600,-4.8200,6.5700,-6.6875,61.3750,25.3750,-0.3096,-0.2178,0.8979,0.2248,
2025-03-04 18:59:44.814,-4.1300,-5.0300,6.3700,-5.8125,58.5000,23.3125,-0.3146,-0.2166,0.8967,0.2239,
2025-03-04 18:59:44.814,-4.1400,-5.0300,6.2400,-0.2500,56.8125,25.0000,-0.3193,-0.2148,0.8956,0.2231,
2025-03-04 18:59:44.836,-1.3000,-4.3000,5.4000,4.0625,56.2500,26.5625,-0.3240,-0.2128,0.8947,0.2221,
2025-03-04 18:59:44.843,-2.3900,-4.8100,5.8000,4.6250,53.6250,30.6250,-0.3285,-0.2106,0.8938,0.2209,
2025-03-04 18:59:44.853,-6.0800,-4.4100,6.1400,-0.0625,51.3125,16.2500,-0.3326,-0.2092,0.8927,0.2206,
2025-03-04 18:59:44.864,-7.9700,-4.3600,6.0800,-0.6250,54.5625,18.5000,-0.3371,-0.2076,0.8915,0.2202,
2025-03-04 18:59:44.895,-4.8800,-4.4900,6.0900,-6.7500,49.2500,14.7500,-0.3412,-0.2068,0.8903,0.2197,
2025-03-04 18:59:44.907,-4.8000,-4.5100,6.0600,-13.6875,44.4375,12.1250,-0.3412,-0.2068,0.8903,0.2197,
2025-03-04 18:59:44.907,-4.7000,-4.5700,6.0600,-18.3750,43.0625,11.2500,-0.3488,-0.2070,0.8876,0.2184,
2025-03-04 18:59:44.907,-4.7200,-4.8800,6.0500,-19.5625,43.1250,11.6875,-0.3525,-0.2073,0.8862,0.2177,
2025-03-04 18:59:44.912,-4.8500,-4.9400,6.0000,-17.3125,44.0000,13.1250,-0.3564,-0.2074,0.8848,0.2169,
2025-03-04 18:59:44.925,-4.9200,-4.9700,5.9600,-14.1250,43.8750,13.5000,-0.3602,-0.2073,0.8835,0.2162,
2025-03-04 18:59:44.931,-5.0400,-5.0300,5.9900,-11.0000,42.1875,13.8750,-0.3638,-0.2069,0.8823,0.2156,
2025-03-04 18:59:44.975,-5.2000,-5.0000,5.8700,-6.8125,39.4375,13.6875,-0.3671,-0.2062,0.8812,0.2151,
2025-03-04 18:59:44.975,-5.2200,-4.8600,5.7800,-3.0000,37.1875,12.6250,-0.3701,-0.2054,0.8802,0.2147,
2025-03-04 18:59:44.975,-5.3600,-4.7700,5.7500,-1.7500,34.7500,11.5625,-0.3729,-0.2045,0.8793,0.2144,
2025-03-04 18:59:44.975,-5.1500,-4.7200,5.5000,-1.7500,32.9375,10.9375,-0.3756,-0.2037,0.8784,0.2140,
2025-03-04 18:59:44.975,-5.4000,-4.9500,5.5400,-3.3125,31.4375,11.8750,-0.3781,-0.2032,0.8777,0.2132,
2025-03-04 18:59:44.994,-5.5600,-5.1200,5.6100,-3.5625,30.7500,13.3125,-0.3807,-0.2025,0.8769,0.2126,
2025-03-04 18:59:44.994,-5.6100,-5.2000,5.6300,-0.3125,28.8750,12.6250,-0.3830,-0.2016,0.8762,0.2122,
2025-03-04 18:59:45.014,-5.5300,-4.9200,5.5700,3.8125,25.8125,11.7500,-0.3851,-0.2004,0.8756,0.2118,
2025-03-04 18:59:45.014,-5.4600,-4.6700,5.5100,6.8125,23.1250,11.1250,-0.3868,-0.1992,0.8752,0.2116,
2025-03-04 18:59:45.031,-5.5500,-4.5500,5.4400,6.6250,21.0000,10.3125,-0.3884,-0.1979,0.8748,0.2114,
2025-03-04 18:59:45.044,-5.7400,-4.4800,5.3800,2.6250,19.7500,8.8125,-0.3900,-0.1971,0.8743,0.2112,
2025-03-04 18:59:45.054,-5.7900,-4.6100,5.4600,-1.6875,20.0000,7.6875,-0.3917,-0.1966,0.8738,0.2109,
2025-03-04 18:59:45.054,-5.6000,-4.7100,5.5000,-3.8125,19.5625,6.3750,-0.3933,-0.1964,0.8732,0.2106,
2025-03-04 18:59:45.074,-5.7000,-4.8300,5.5000,-4.0625,17.8750,6.8750,-0.3948,-0.1961,0.8726,0.2103,
2025-03-04 18:59:45.074,-5.7400,-4.9400,5.4000,-3.2500,16.0000,7.5625,-0.3962,-0.1959,0.8721,0.2099,
2025-03-04 18:59:45.086,-5.6400,-4.9100,5.3000,-2.0625,13.9375,7.1250,-0.3974,-0.1956,0.8717,0.2095,
2025-03-04 18:59:45.093,-5.9000,-4.9200,5.2900,-0.5000,12.1250,4.6250,-0.3984,-0.1952,0.8714,0.2094,
2025-03-04 18:59:45.113,-5.7500,-4.6200,5.3800,1.0625,10.3750,4.8125,-0.3992,-0.1948,0.8712,0.2092,
2025-03-04 18:59:45.118,-5.9000,-4.5900,5.5400,1.0000,9.5000,4.0625,-0.4000,-0.1944,0.8709,0.2091,
2025-03-04 18:59:45.131,-5.9500,-4.7800,5.6100,0.3125,9.3125,3.3750,-0.4008,-0.1941,0.8706,0.2090,
2025-03-04 18:59:45.133,-5.9200,-5.1100,5.7200,0.7500,8.0625,3.5625,-0.4014,-0.1938,0.8704,0.2089,
2025-03-04 18:59:45.144,-5.8100,-5.3000,5.6300,2.8750,6.5625,3.9375,-0.4019,-0.1933,0.8703,0.2088,
2025-03-04 18:59:45.164,-5.8700,-5.1700,5.5600,5.6875,5.2500,4.5625,-0.4023,-0.1926,0.8703,0.2087,
2025-03-04 18:59:45.175,-5.9600,-4.8800,5.4300,8.1250,3.6250,5.5625,-0.4025,-0.1918,0.8704,0.2087,
2025-03-04 18:59:45.184,-5.9400,-4.5800,5.2900,7.3125,1.6250,6.3125,-0.4026,-0.1910,0.8706,0.2084,
2025-03-04 18:59:45.188,-6.3800,-4.5400,5.4400,5.3750,0.0625,6.3125,-0.4026,-0.1904,0.8708,0.2082,
2025-03-04 18:59:45.204,-6.3700,-4.6500,5.5900,3.8125,-0.8125,4.1250,-0.4025,-0.1900,0.8710,0.2080,
2025-03-04 18:59:45.204,-6.0600,-4.9600,5.6900,3.3125,-0.6875,1.5625,-0.4025,-0.1897,0.8711,0.2080,
2025-03-04 18:59:45.224,-6.0100,-5.1300,5.7200,4.9375,-0.1250,0.0625,-0.4024,-0.1893,0.8712,0.2081,
2025-03-04 18:59:45.231,-6.0000,-5.0000,5.6400,5.3750,-1.0000,-0.1875,-0.4019,-0.1895,0.8716,0.2070,
2025-03-04 18:59:45.264,-5.9900,-4.8400,5.4600,4.1875,-2.6250,0.8750,-0.4017,-0.1893,0.8718,0.2071,
2025-03-04 18:59:45.283,-5.9800,-4.5100,5.2700,1.8125,-4.0000,2.8125,-0.4014,-0.1891,0.8720,0.2069,
2025-03-04 18:59:45.283,-5.9400,-4.2600,5.2400,-2.5000,-4.8750,5.3750,-0.4012,-0.1891,0.8722,0.2063,
2025-03-04 18:59:45.283,-6.2200,-4.5500,5.5900,-6.6250,-5.3125,4.3750,-0.4009,-0.1896,0.8724,0.2056,
2025-03-04 18:59:45.283,-6.1400,-4.9900,5.9300,-7.3125,-5.6875,-0.5000,-0.4001,-0.1915,0.8730,0.2026,
2025-03-04 18:59:45.294,-5.8400,-5.4100,5.8900,-4.3750,-5.4375,-3.5000,-0.3997,-0.1920,0.8731,0.2026,
2025-03-04 18:59:45.304,-5.8600,-5.0600,5.7500,-0.9375,-5.3125,-3.5000,-0.3992,-0.1923,0.8732,0.2028,
2025-03-04 18:59:45.314,-5.9200,-4.5700,5.6500,0.7500,-7.0625,-2.6875,-0.3987,-0.1925,0.8734,0.2028,
2025-03-04 18:59:45.314,-5.9300,-4.2400,5.6900,0.5000,-9.5000,-2.3125,-0.3979,-0.1927,0.8737,0.2029,
2025-03-04 18:59:45.334,-5.8600,-4.4500,5.8700,-0.6875,-11.6250,-2.8125,-0.3961,-0.1949,0.8750,0.1987,
2025-03-04 18:59:45.354,-5.8800,-4.8600,5.9400,-2.8125,-10.6875,-4.1875,-0.3953,-0.1955,0.8752,0.1987,
2025-03-04 18:59:45.373,-5.8600,-5.1500,5.9400,-4.0625,-8.8125,-4.8750,-0.3946,-0.1961,0.8754,0.1988,
2025-03-04 18:59:45.373,-5.7800,-5.1800,5.9700,-4.2500,-7.9375,-4.3750,-0.3940,-0.1967,0.8755,0.1989,
2025-03-04 18:59:45.373,-5.7400,-5.0800,5.9400,-4.1250,-8.6875,-3.3750,-0.3934,-0.1973,0.8757,0.1989,
2025-03-04 18:59:45.385,-5.7600,-4.9300,6.0100,-3.1250,-9.9375,-3.3750,-0.3934,-0.1973,0.8757,0.1989,
2025-03-04 18:59:45.394,-5.8800,-4.8500,6.0900,-0.5000,-10.6875,-3.7500,-0.3918,-0.1994,0.8767,0.1952,
2025-03-04 18:59:45.404,-5.9200,-4.8500,6.0800,1.3125,-11.1250,-4.0000,-0.3901,-0.1999,0.8773,0.1954,
2025-03-04 18:59:45.413,-5.8900,-4.8900,6.0900,0.9375,-11.5000,-4.6875,-0.3891,-0.2002,0.8776,0.1956,
2025-03-04 18:59:45.413,-5.8500,-4.9000,6.1100,-1.5000,-11.6875,-5.1875,-0.3882,-0.2007,0.8779,0.1957,
2025-03-04 18:59:45.464,-5.7900,-4.9900,6.0200,-5.4375,-10.6875,-5.3125,-0.3882,-0.2007,0.8779,0.1957,
2025-03-04 18:59:45.464,-5.7700,-4.9000,5.9700,-9.0000,-9.8125,-5.5625,-0.3873,-0.2017,0.8782,0.1953,
2025-03-04 18:59:45.484,-5.7400,-4.7300,5.9100,-10.8125,-10.1250,-6.1875,-0.3859,-0.2039,0.8783,0.1952,
2025-03-04 18:59:45.484,-5.7200,-4.6300,5.8500,-11.2500,-11.9375,-7.3750,-0.3851,-0.2051,0.8784,0.1951,
2025-03-04 18:59:45.484,-5.5900,-4.6200,5.7800,-10.6250,-14.8125,-8.4375,-0.3840,-0.2064,0.8785,0.1952,
2025-03-04 18:59:45.484,-5.4300,-4.6400,5.7900,-8.8125,-16.7500,-9.8750,-0.3840,-0.2064,0.8785,0.1952,
2025-03-04 18:59:45.484,-5.4400,-4.7300,5.8800,-7.6875,-16.1250,-10.9375,-0.3824,-0.2083,0.8791,0.1938,
2025-03-04 18:59:45.504,-5.5600,-5.0000,5.9100,-7.4375,-15.3125,-11.9375,-0.3799,-0.2107,0.8795,0.1944,
2025-03-04 18:59:45.516,-5.5400,-5.0400,5.8700,-7.3750,-15.0625,-12.5625,-0.3787,-0.2119,0.8796,0.1948,
2025-03-04 18:59:45.523,-5.4700,-4.9500,5.8900,-5.6875,-16.1875,-13.1875,-0.3773,-0.2130,0.8798,0.1954,
2025-03-04 18:59:45.575,-5.3300,-4.8200,5.9200,-2.6875,-18.1875,-14.1250,-0.3773,-0.2130,0.8798,0.1954,
2025-03-04 18:59:45.575,-5.2800,-4.5700,5.9500,-0.4375,-20.0625,-15.1250,-0.3754,-0.2145,0.8804,0.1948,
2025-03-04 18:59:45.575,-5.2700,-4.5500,5.9500,-0.1250,-21.6250,-16.0000,-0.3718,-0.2162,0.8812,0.1963,
2025-03-04 18:59:45.575,-5.2600,-4.5900,5.9000,-1.6250,-22.3125,-17.1875,-0.3698,-0.2172,0.8816,0.1971,
2025-03-04 18:59:45.575,-5.1900,-4.8800,5.7800,-4.0000,-22.0625,-18.5000,-0.3679,-0.2184,0.8819,0.1980,
2025-03-04 18:59:45.575,-5.2200,-5.0500,5.7100,-6.4375,-21.6875,-19.3750,-0.3679,-0.2184,0.8819,0.1980,
2025-03-04 18:59:45.594,-5.2400,-5.2300,5.6800,-7.7500,-21.8125,-19.3125,-0.3638,-0.2220,0.8826,0.1984,
2025-03-04 18:59:45.604,-5.2700,-5.2200,5.7100,-7.3125,-24.0625,-18.9375,-0.3618,-0.2235,0.8829,0.1991,
2025-03-04 18:59:45.614,-5.3400,-5.1200,5.9600,-5.6250,-27.6250,-19.5000,-0.3595,-0.2250,0.8833,0.1998,
2025-03-04 18:59:45.644,-5.2400,-5.0700,5.9800,-4.6250,-31.0000,-20.6875,-0.3568,-0.2265,0.8838,0.2007,
2025-03-04 18:59:45.644,-5.1200,-5.0600,6.0000,-4.7500,-32.8750,-21.2500,-0.3537,-0.2286,0.8846,0.2001,
2025-03-04 18:59:45.644,-4.7600,-5.1600,5.7400,-6.8125,-34.2500,-21.9375,-0.3508,-0.2304,0.8852,0.2009,
2025-03-04 18:59:45.652,-4.7900,-5.1700,5.6100,-10.8750,-34.6250,-23.3125,-0.3480,-0.2324,0.8856,0.2016,
2025-03-04 18:59:45.664,-4.9100,-5.1200,5.5100,-14.6875,-35.0000,-25.0625,-0.3451,-0.2349,0.8859,0.2024,
2025-03-04 18:59:45.674,-5.0000,-5.0400,5.4500,-17.3125,-37.7500,-26.3125,-0.3420,-0.2376,0.8862,0.2031,
2025-03-04 18:59:45.674,-4.8400,-4.9800,5.6200,-19.6250,-42.3750,-28.0625,-0.3386,-0.2406,0.8865,0.2037,
2025-03-04 18:59:45.725,-4.5800,-5.0200,5.7700,-22.1250,-46.8125,-30.0000,-0.3349,-0.2439,0.8869,0.2044,
2025-03-04 18:59:45.725,-4.3800,-5.2500,5.8800,-25.0625,-48.3125,-32.8125,-0.3311,-0.2476,0.8871,0.2051,
2025-03-04 18:59:45.725,-4.2100,-5.9000,5.9100,-28.1250,-47.4375,-34.5000,-0.3272,-0.2515,0.8873,0.2060,
2025-03-04 18:59:45.725,-4.1300,-6.0700,5.9200,-29.1875,-47.0000,-35.5625,-0.3234,-0.2554,0.8873,0.2068,
2025-03-04 18:59:45.734,-4.1400,-6.1000,5.9200,-27.1250,-46.8750,-36.5000,-0.3196,-0.2593,0.8874,0.2076,
2025-03-04 18:59:45.745,-4.2300,-6.0600,5.8300,-21.6875,-48.3125,-36.6250,-0.3155,-0.2628,0.8876,0.2087,
2025-03-04 18:59:45.754,-4.2500,-5.7400,5.7000,-15.1250,-52.1250,-35.6875,-0.3111,-0.2658,0.8880,0.2099,
2025-03-04 18:59:45.765,-4.1900,-5.4400,5.8100,-10.1250,-58.2500,-35.2500,-0.3061,-0.2685,0.8887,0.2109,
2025-03-04 18:59:45.794,-4.0500,-5.1400,6.0400,-8.8750,-66.0000,-36.7500,-0.3005,-0.2713,0.8895,0.2120,
2025-03-04 18:59:45.794,-3.2700,-4.9900,6.0600,-12.4375,-71.8750,-40.8125,-0.3005,-0.2713,0.8895,0.2120,
2025-03-04 18:59:45.796,-3.1700,-5.4200,5.9700,-22.0000,-71.2500,-44.6250,-0.2943,-0.2746,0.8903,0.2130,
2025-03-04 18:59:45.800,-3.2800,-5.8900,5.8700,-33.5625,-68.5000,-47.3750,-0.2827,-0.2835,0.8907,0.2153,
2025-03-04 18:59:45.817,-3.4500,-6.2700,5.9200,-41.1250,-68.5000,-49.6250,-0.2770,-0.2891,0.8904,0.2164,
2025-03-04 18:59:45.823,-3.6100,-6.4000,5.6200,-40.1250,-72.0000,-50.8125,-0.2770,-0.2891,0.8904,0.2164,
2025-03-04 18:59:45.832,-3.3800,-6.0900,5.5500,-32.0625,-80.3125,-50.7500,-0.2711,-0.2945,0.8902,0.2175,
2025-03-04 18:59:45.876,-3.0200,-5.7100,5.7200,-22.6875,-89.9375,-50.4375,-0.2641,-0.2999,0.8905,0.2178,
2025-03-04 18:59:45.876,-2.0800,-5.1200,5.9400,-17.3125,-97.1250,-51.0625,-0.2565,-0.3043,0.8909,0.2188,
2025-03-04 18:59:45.876,-1.4800,-5.1600,5.8000,-20.1875,-98.4375,-55.0625,-0.2482,-0.3085,0.8916,0.2197,
2025-03-04 18:59:45.876,-1.0500,-5.4700,5.3900,-29.6250,-93.8125,-60.6875,-0.2396,-0.3130,0.8921,0.2209,
2025-03-04 18:59:45.876,-1.1000,-5.9700,5.1400,-40.1875,-87.1250,-63.8125,-0.2315,-0.3182,0.8920,0.2223,
2025-03-04 18:59:45.893,-1.8200,-6.3100,5.1300,-46.5625,-87.3750,-64.5000,-0.2238,-0.3242,0.8915,0.2236,
2025-03-04 18:59:45.900,-1.9000,-6.0400,5.3500,-44.8750,-95.3125,-66.1875,-0.2164,-0.3306,0.8906,0.2252,
2025-03-04 18:59:45.936,-1.6900,-5.6800,5.6700,-35.7500,-104.6250,-68.9375,-0.2082,-0.3370,0.8898,0.2266,
2025-03-04 18:59:45.936,-0.8800,-5.3500,5.8800,-27.3125,-110.6250,-72.8750,-0.1990,-0.3428,0.8892,0.2282,
2025-03-04 18:59:45.936,-0.3200,-5.8800,5.5900,-29.6875,-111.8125,-76.3750,-0.1891,-0.3483,0.8889,0.2300,
2025-03-04 18:59:45.936,0.1500,-6.7900,5.3300,-40.6875,-108.1875,-77.2500,-0.1789,-0.3539,0.8883,0.2317,
2025-03-04 18:59:45.953,0.1300,-7.7900,5.4500,-50.0000,-101.3125,-75.0625,-0.1693,-0.3602,0.8871,0.2336,
2025-03-04 18:59:45.965,-0.7600,-8.9200,6.0800,-47.8750,-98.7500,-72.9375,-0.1603,-0.3670,0.8855,0.2354,
2025-03-04 18:59:45.970,-0.8800,-8.6600,6.3300,-32.1875,-101.4375,-72.0625,-0.1517,-0.3735,0.8839,0.2372,
2025-03-04 18:59:46.005,-0.6400,-7.8800,6.3800,-8.5625,-106.6875,-70.9375,-0.1425,-0.3788,0.8827,0.2389,
2025-03-04 18:59:46.005,-0.2100,-7.0200,6.3600,11.6250,-112.2500,-71.6250,-0.1323,-0.3826,0.8823,0.2404,
2025-03-04 18:59:46.005,0.7900,-5.9600,5.8600,19.7500,-116.5000,-74.7500,-0.1213,-0.3847,0.8824,0.2422,
2025-03-04 18:59:46.014,1.5000,-6.0400,5.6100,10.1250,-116.6250,-77.4375,-0.1098,-0.3864,0.8826,0.2441,
2025-03-04 18:59:46.025,1.7100,-6.5900,5.6500,-7.6875,-107.9375,-76.5000,-0.0983,-0.3887,0.8824,0.2462,
2025-03-04 18:59:46.034,0.7000,-8.2800,6.2100,-23.3125,-101.1875,-74.5625,-0.0879,-0.3921,0.8814,0.2483,
2025-03-04 18:59:46.044,0.4500,-8.6000,6.3900,-27.8750,-102.2500,-73.1250,-0.0784,-0.3965,0.8798,0.2502,
2025-03-04 18:59:46.053,0.4900,-8.3800,6.5300,-20.7500,-105.3750,-71.5625,-0.0690,-0.4012,0.8779,0.2521,
2025-03-04 18:59:46.085,1.1900,-6.8100,6.5000,-8.5625,-108.9375,-69.5000,-0.0591,-0.4054,0.8762,0.2537,
2025-03-04 18:59:46.085,1.7400,-6.0000,6.2800,2.8125,-113.6250,-70.9375,-0.0489,-0.4087,0.8750,0.2550,
2025-03-04 18:59:46.085,0.9900,-5.4100,5.7700,6.2500,-116.2500,-74.6875,-0.0380,-0.4112,0.8739,0.2563,
2025-03-04 18:59:46.093,1.4500,-5.5400,5.8900,-4.3750,-111.6875,-74.1875,-0.0263,-0.4135,0.8731,0.2571,
2025-03-04 18:59:46.104,1.2200,-7.0200,6.2500,-21.3750,-107.2500,-69.8125,-0.0156,-0.4164,0.8715,0.2586,
2025-03-04 18:59:46.113,5.7900,-8.9700,5.5000,-35.6875,-102.9375,-68.8750,-0.0057,-0.4203,0.8693,0.2599,
2025-03-04 18:59:46.124,7.3400,-7.8200,5.7800,-43.9375,-111.6250,-83.8750,0.0035,-0.4253,0.8665,0.2613,
2025-03-04 18:59:46.175,3.4400,-8.3700,6.8500,-27.0000,-110.1250,-79.8125,0.0137,-0.4309,0.8630,0.2634,
2025-03-04 18:59:46.175,3.4400,-6.6100,6.4700,-4.5000,-102.5000,-79.0625,0.0242,-0.4352,0.8601,0.2651,
2025-03-04 18:59:46.184,3.8600,-6.1000,5.8200,13.0000,-108.8750,-81.5000,0.0344,-0.4376,0.8579,0.2671,
2025-03-04 18:59:46.184,4.1300,-5.6800,5.4400,19.9375,-112.3750,-83.0625,0.0457,-0.4389,0.8562,0.2689,
2025-03-04 18:59:46.184,4.6400,-5.8000,5.3100,16.3750,-112.6250,-83.5000,0.0573,-0.4396,0.8545,0.2706,
2025-03-04 18:59:46.184,4.6300,-6.4500,5.2600,3.5000,-108.2500,-82.2500,0.0689,-0.4406,0.8526,0.2724,
2025-03-04 18:59:46.184,4.4500,-7.1500,5.2900,-8.4375,-104.6250,-78.8750,0.0800,-0.4423,0.8502,0.2741,
2025-03-04 18:59:46.235,4.4200,-7.4500,5.4500,-12.1875,-107.4375,-78.3125,0.0902,-0.4448,0.8473,0.2758,
2025-03-04 18:59:46.235,5.1600,-6.9000,5.5400,-3.8125,-112.5000,-80.0000,0.1005,-0.4475,0.8442,0.2775,
2025-03-04 18:59:46.235,5.7300,-6.4200,5.3100,10.7500,-117.2500,-80.6250,0.1115,-0.4497,0.8411,0.2789,
2025-03-04 18:59:46.235,6.3100,-6.0200,4.8600,23.4375,-121.3750,-80.5000,0.1232,-0.4509,0.8385,0.2801,
2025-03-04 18:59:46.244,6.5300,-5.8700,4.1800,30.0625,-123.3750,-80.1250,0.1354,-0.4512,0.8362,0.2807,
2025-03-04 18:59:46.253,6.3000,-6.1200,4.4400,28.6250,-122.1250,-80.0000,0.1479,-0.4510,0.8340,0.2813,
2025-03-04 18:59:46.264,6.4300,-6.8400,4.8100,15.6250,-118.1875,-88.8750,0.1602,-0.4509,0.8316,0.2819,
2025-03-04 18:59:46.306,6.7900,-7.9500,5.0500,10.6875,-115.0000,-91.1250,0.1723,-0.4514,0.8284,0.2834,
2025-03-04 18:59:46.306,7.3400,-9.4500,5.7000,12.1250,-112.0625,-87.7500,0.1841,-0.4520,0.8249,0.2852,
2025-03-04 18:59:46.306,7.4900,-9.2700,5.8300,31.7500,-114.5625,-80.6875,0.1955,-0.4525,0.8214,0.2869,
2025-03-04 18:59:46.306,7.5100,-8.3600,5.9400,59.3750,-121.0625,-71.1875,0.2073,-0.4517,0.8187,0.2875,
2025-03-04 18:59:46.313,7.5300,-6.5500,4.8200,83.1875,-125.7500,-64.5625,0.2198,-0.4492,0.8171,0.2868,
2025-03-04 18:59:46.323,6.9900,-5.9300,4.3500,93.5625,-123.5625,-62.5000,0.2329,-0.4453,0.8163,0.2848,
2025-03-04 18:59:46.336,6.7500,-5.2400,4.4700,85.7500,-122.3750,-62.8750,0.2460,-0.4405,0.8158,0.2826,
2025-03-04 18:59:46.343,6.9500,-4.5900,4.8700,65.3750,-124.4375,-62.8750,0.2591,-0.4360,0.8150,0.2802,
2025-03-04 18:59:46.375,6.8600,-5.1000,4.8500,36.8125,-118.8125,-56.3750,0.2715,-0.4331,0.8131,0.2784,
2025-03-04 18:59:46.375,6.6000,-5.4600,4.7800,8.8750,-114.0000,-45.0625,0.2826,-0.4320,0.8104,0.2771,
2025-03-04 18:59:46.375,6.8500,-5.3300,4.8400,-8.8750,-116.0000,-35.9375,0.2922,-0.4330,0.8069,0.2758,
2025-03-04 18:59:46.385,8.2300,-4.5300,4.4800,-13.4375,-119.2500,-33.1875,0.3012,-0.4354,0.8028,0.2742,
2025-03-04 18:59:46.387,9.0000,-4.1000,4.1800,-11.3125,-120.3125,-33.6875,0.3102,-0.4382,0.7985,0.2723,
2025-03-04 18:59:46.406,9.7300,-3.7800,3.8300,-7.6250,-121.2500,-37.5625,0.3193,-0.4408,0.7941,0.2704,
2025-03-04 18:59:46.418,10.0600,-3.9500,3.5100,-5.3125,-120.3750,-49.6250,0.3287,-0.4430,0.7896,0.2686,
2025-03-04 18:59:46.473,9.6100,-4.5600,3.3900,-3.6250,-113.5000,-60.9375,0.3384,-0.4447,0.7849,0.2676,
2025-03-04 18:59:46.473,9.4200,-5.0500,3.5600,1.5000,-106.6875,-67.1250,0.3482,-0.4457,0.7801,0.2675,
2025-03-04 18:59:46.483,9.2800,-5.5300,3.7300,10.8750,-103.6250,-65.5625,0.3577,-0.4460,0.7755,0.2677,
2025-03-04 18:59:46.483,8.6500,-5.7300,3.9100,20.8125,-103.6875,-59.2500,0.3672,-0.4457,0.7712,0.2678,
2025-03-04 18:59:46.483,8.4900,-5.2500,4.0200,27.8750,-107.0625,-52.0000,0.3767,-0.4448,0.7674,0.2670,
2025-03-04 18:59:46.483,8.5700,-4.6500,4.1900,35.2500,-111.5000,-44.1875,0.3862,-0.4437,0.7639,0.2655,
2025-03-04 18:59:46.484,9.1600,-3.2400,4.2100,47.1875,-113.0000,-36.6875,0.3958,-0.4425,0.7605,0.2630,
2025-03-04 18:59:46.494,9.5300,-2.5200,3.6500,57.8750,-111.5000,-37.9375,0.4055,-0.4406,0.7577,0.2594,
2025-03-04 18:59:46.516,9.1700,-3.0200,3.2400,56.1250,-104.9375,-41.5000,0.4153,-0.4381,0.7551,0.2557,
2025-03-04 18:59:46.516,8.7700,-3.8600,3.2100,42.6250,-96.6250,-48.3125,0.4247,-0.4352,0.7526,0.2525,
2025-03-04 18:59:46.524,9.0500,-5.5600,3.7200,29.1875,-93.0625,-50.6875,0.4335,-0.4329,0.7496,0.2505,
2025-03-04 18:59:46.536,9.1400,-6.2700,4.0600,24.3125,-90.0625,-45.1875,0.4419,-0.4311,0.7462,0.2492,
2025-03-04 18:59:46.536,9.1900,-6.8500,4.3500,27.5625,-85.8750,-36.6875,0.4497,-0.4297,0.7427,0.2479,
2025-03-04 18:59:46.556,9.3100,-6.7800,4.4200,42.1875,-80.9375,-28.5625,0.4570,-0.4284,0.7397,0.2460,
2025-03-04 18:59:46.594,9.3500,-5.4200,4.3000,59.8750,-77.4375,-22.7500,0.4639,-0.4263,0.7374,0.2432,
2025-03-04 18:59:46.594,9.7600,-5.3200,4.8200,71.4375,-77.0000,-17.6875,0.4708,-0.4233,0.7361,0.2395,
2025-03-04 18:59:46.594,9.7600,-5.3200,4.8200,80.3125,-75.3125,-14.7500,0.4777,-0.4197,0.7352,0.2350,
2025-03-04 18:59:46.594,10.0700,-9.6600,4.1200,85.8750,-58.2500,-10.7500,0.4843,-0.4158,0.7346,0.2302,
2025-03-04 18:59:46.605,8.6200,-9.8200,4.2300,80.0000,-32.6250,7.4375,0.4899,-0.4111,0.7350,0.2253,
2025-03-04 18:59:46.614,9.2100,-7.8200,4.3000,88.0625,-36.0625,35.8750,0.4932,-0.4070,0.7365,0.2204,
2025-03-04 18:59:46.634,10.8300,-3.8600,4.0200,130.4375,-46.2500,48.1875,0.4959,-0.4037,0.7387,0.2133,
2025-03-04 18:59:46.665,10.3400,-0.0700,1.9200,156.3750,-34.1875,27.1250,0.4994,-0.3984,0.7420,0.2032,
2025-03-04 18:59:46.665,9.7100,-0.2300,0.6200,141.6875,-22.8750,6.1875,0.5033,-0.3903,0.7462,0.1937,
2025-03-04 18:59:46.665,9.5800,-2.3400,-0.1900,96.3125,-28.0000,2.1875,0.5068,-0.3820,0.7500,0.1865,
2025-03-04 18:59:46.665,9.3600,-4.5600,0.6100,50.3125,-37.6875,2.9375,0.5100,-0.3764,0.7519,0.1813,
2025-03-04 18:59:46.665,9.3400,-5.0100,1.3800,18.8125,-42.0625,4.9375,0.5131,-0.3739,0.7519,0.1778,
2025-03-04 18:59:46.674,9.2200,-5.0100,1.9500,9.1875,-40.1250,10.1875,0.5159,-0.3735,0.7507,0.1754,
2025-03-04 18:59:46.686,9.0400,-4.6900,2.3200,17.5625,-35.1875,15.7500,0.5181,-0.3741,0.7494,0.1732,
2025-03-04 18:59:46.703,9.0300,-3.4400,2.6500,32.6250,-30.5000,18.6250,0.5201,-0.3742,0.7486,0.1703,
2025-03-04 18:59:46.775,8.8500,-2.6200,2.6500,44.7500,-25.0625,17.1250,0.5219,-0.3734,0.7486,0.1667,
2025-03-04 18:59:46.784,8.7400,-1.8700,2.5200,51.7500,-21.8125,12.1875,0.5236,-0.3716,0.7491,0.1628,
2025-03-04 18:59:46.784,8.7400,-1.8700,2.5200,53.5625,-23.3750,7.4375,0.5253,-0.3692,0.7500,0.1591,
2025-03-04 18:59:46.784,8.7000,-1.0500,2.2200,48.4375,-26.1875,4.1875,0.5272,-0.3666,0.7507,0.1557,
2025-03-04 18:59:46.784,8.6800,-1.4800,2.1900,36.7500,-26.0000,0.9375,0.5294,-0.3640,0.7510,0.1524,
2025-03-04 18:59:46.784,8.6900,-2.0300,2.1500,23.9375,-23.6875,-1.0000,0.5314,-0.3621,0.7510,0.1499,
2025-03-04 18:59:46.784,8.7400,-3.0100,2.0200,14.7500,-21.0000,-2.2500,0.5333,-0.3608,0.7507,0.1482,
2025-03-04 18:59:46.784,8.7400,-3.0100,2.0200,11.0625,-18.6875,-3.4375,0.5349,-0.3600,0.7501,0.1470,
2025-03-04 18:59:46.803,8.7500,-3.3800,1.9200,11.3750,-17.1250,-4.0000,0.5361,-0.3596,0.7495,0.1465,
2025-03-04 18:59:46.803,8.7600,-3.8600,1.7200,12.9375,-16.3750,-3.7500,0.5375,-0.3590,0.7490,0.1457,
2025-03-04 18:59:46.814,8.8000,-3.7600,1.7000,13.6250,-15.3125,-2.8125,0.5388,-0.3581,0.7486,0.1448,
2025-03-04 18:59:46.823,8.8700,-3.5900,1.7400,12.5625,-14.8125,-2.3125,0.5401,-0.3573,0.7483,0.1439,
2025-03-04 18:59:46.836,9.0300,-3.4800,1.7400,9.3750,-13.7500,-3.0000,0.5412,-0.3566,0.7480,0.1431,
2025-03-04 18:59:46.845,9.2400,-3.5400,1.8900,4.7500,-11.3125,-4.4375,0.5421,-0.3564,0.7475,0.1429,
2025-03-04 18:59:46.884,9.3600,-3.8100,1.9600,-0.3125,-7.1875,-6.0625,0.5430,-0.3560,0.7471,0.1426,
2025-03-04 18:59:46.884,9.3000,-4.1800,2.0200,-2.8125,-2.6875,-7.0625,0.5436,-0.3558,0.7467,0.1428,
2025-03-04 18:59:46.884,9.0400,-4.6000,2.0400,-2.4375,0.7500,-6.6875,0.5439,-0.3557,0.7464,0.1432,
2025-03-04 18:59:46.884,9.0400,-4.6000,2.0400,-1.6875,1.3750,-5.4375,0.5441,-0.3555,0.7463,0.1438,
2025-03-04 18:59:46.884,9.1000,-4.6400,2.0900,-1.1250,-0.1250,-4.1875,0.5441,-0.3553,0.7462,0.1443,
2025-03-04 18:59:46.904,9.1500,-4.4700,2.0900,0.4375,-1.8125,-3.1875,0.5442,-0.3552,0.7461,0.1446,
2025-03-04 18:59:46.913,9.2000,-3.9700,2.0800,3.1875,-1.6250,-2.3750,0.5444,-0.3551,0.7460,0.1448,
2025-03-04 18:59:46.923,9.2000,-3.6900,2.0900,5.7500,-0.6250,-1.8750,0.5447,-0.3548,0.7460,0.1447,
2025-03-04 18:59:46.954,9.2000,-3.6900,2.0900,6.4375,0.8750,-1.7500,0.5448,-0.3544,0.7461,0.1445,
2025-03-04 18:59:46.954,9.2100,-3.5700,2.0200,5.8125,2.6875,-1.6875,0.5449,-0.3539,0.7463,0.1444,
2025-03-04 18:59:46.954,8.9300,-3.5500,1.8600,5.0625,4.4375,-1.5625,0.5448,-0.3534,0.7466,0.1443,
2025-03-04 18:59:46.965,8.8700,-3.5400,1.8600,4.1875,4.9375,-1.0625,0.5447,-0.3530,0.7469,0.1443,
2025-03-04 18:59:46.974,8.9100,-3.5200,1.8700,3.2500,4.7500,-0.7500,0.5444,-0.3525,0.7473,0.1443,
2025-03-04 18:59:46.986,8.9100,-3.3400,1.8900,2.2500,4.5625,-0.3125,0.5442,-0.3522,0.7476,0.1443,
2025-03-04 18:59:46.994,8.9500,-3.2500,1.8900,0.8125,5.2500,-0.3125,0.5440,-0.3521,0.7479,0.1444,
2025-03-04 18:59:47.002,8.9600,-3.1600,1.8800,-1.2500,6.0625,-0.3125,0.5436,-0.3519,0.7482,0.1445,
2025-03-04 18:59:47.025,8.9500,-3.1000,1.8500,-3.1250,6.6875,-0.3750,0.5432,-0.3519,0.7484,0.1448,
2025-03-04 18:59:47.025,8.9800,-3.1300,1.7700,-5.3750,6.6875,-0.6875,0.5427,-0.3521,0.7486,0.1451,
2025-03-04 18:59:47.034,8.9800,-3.1300,1.7700,-7.4375,6.3125,-1.0625,0.5423,-0.3523,0.7487,0.1456,
2025-03-04 18:59:47.095,8.9400,-3.2300,1.7500,-8.5625,5.6875,-1.0000,0.5418,-0.3527,0.7488,0.1462,
2025-03-04 18:59:47.095,8.8700,-3.5800,1.6100,-9.1250,5.1250,-0.6875,0.5414,-0.3531,0.7488,0.1469,
2025-03-04 18:59:47.095,8.8700,-3.6600,1.6100,-9.0625,4.6250,-0.3125,0.5409,-0.3535,0.7488,0.1475,
2025-03-04 18:59:47.095,8.9100,-3.7200,1.5700,-8.3750,3.7500,-0.0625,0.5405,-0.3540,0.7487,0.1480,
2025-03-04 18:59:47.095,8.9100,-3.7200,1.5700,-7.9375,3.1875,0.0625,0.5402,-0.3545,0.7486,0.1485,
2025-03-04 18:59:47.095,8.9400,-3.8400,1.6100,-7.6875,3.1250,0.3125,0.5398,-0.3551,0.7485,0.1492,
2025-03-04 18:59:47.103,8.9500,-4.0000,1.8100,-6.6250,2.9375,0.8750,0.5395,-0.3555,0.7484,0.1497,
2025-03-04 18:59:47.113,8.9300,-3.9800,1.9000,-5.1250,3.1875,1.7500,0.5392,-0.3560,0.7484,0.1500,
2025-03-04 18:59:47.124,8.9000,-4.0900,1.9800,-3.8125,3.2500,2.1875,0.5389,-0.3563,0.7484,0.1502,
2025-03-04 18:59:47.136,8.8600,-4.0900,2.0100,-2.6250,3.5625,2.4375,0.5386,-0.3566,0.7484,0.1503,
2025-03-04 18:59:47.144,8.8100,-4.1000,1.9600,-1.1875,4.6250,2.8125,0.5381,-0.3571,0.7485,0.1508,
2025-03-04 18:59:47.175,8.8000,-4.0500,1.9000,0.4375,5.6250,2.9375,0.5377,-0.3573,0.7487,0.1508,
2025-03-04 18:59:47.175,8.9200,-4.0800,1.8900,1.9375,5.3750,2.9375,0.5372,-0.3574,0.7490,0.1508,
2025-03-04 18:59:47.175,8.9600,-4.1000,1.8900,3.8750,4.7500,3.1875,0.5366,-0.3574,0.7495,0.1505,
2025-03-04 18:59:47.175,8.9600,-4.1000,1.8900,6.0000,5.6250,3.7500,0.5360,-0.3574,0.7500,0.1501,
2025-03-04 18:59:47.184,9.0400,-4.1600,2.0300,7.0625,8.1875,4.5625,0.5352,-0.3575,0.7505,0.1500,
2025-03-04 18:59:47.203,9.1000,-4.5700,2.7800,6.5000,14.9375,5.8750,0.5346,-0.3571,0.7512,0.1497,
2025-03-04 18:59:47.214,9.2300,-4.8600,2.9500,4.6875,24.0625,8.0000,0.5336,-0.3567,0.7521,0.1495,
2025-03-04 18:59:47.245,9.2500,-5.1400,3.1200,3.9375,30.6875,10.8750,0.5319,-0.3565,0.7534,0.1495,
2025-03-04 18:59:47.245,9.2500,-5.1400,3.1200,2.5625,34.7500,14.9375,0.5297,-0.3564,0.7551,0.1495,
2025-03-04 18:59:47.245,9.7900,-5.0000,3.7700,-1.9375,39.6250,19.6250,0.5269,-0.3565,0.7569,0.1496,
2025-03-04 18:59:47.254,10.5100,-4.1700,4.4400,-9.5625,45.6875,24.4375,0.5238,-0.3571,0.7588,0.1497,
2025-03-04 18:59:47.265,11.4600,-4.4800,5.3300,-21.5625,53.0625,27.0625,0.5200,-0.3582,0.7609,0.1498,
2025-03-04 18:59:47.274,11.5900,-5.5100,6.0000,-37.1250,63.6250,27.6875,0.5154,-0.3600,0.7629,0.1507,
2025-03-04 18:59:47.286,11.5900,-5.5100,6.0000,-55.6250,82.4375,26.0625,0.5101,-0.3628,0.7648,0.1525,
2025-03-04 18:59:47.326,11.1700,-7.1600,6.7800,-74.6875,105.8750,29.3125,0.5032,-0.3665,0.7670,0.1557,
2025-03-04 18:59:47.335,10.3000,-8.9700,8.3700,-83.4375,120.2500,41.8750,0.4944,-0.3712,0.7695,0.1602,
2025-03-04 18:59:47.335,11.2700,-7.6100,8.7700,-74.1250,122.2500,58.4375,0.4841,-0.3767,0.7724,0.1647,
2025-03-04 18:59:47.335,12.5300,-6.0600,8.8400,-51.8125,123.6875,69.2500,0.4732,-0.3821,0.7758,0.1678,
2025-03-04 18:59:47.335,12.5300,-6.0600,8.8400,-30.3750,134.7500,67.3125,0.4621,-0.3866,0.7800,0.1694,
2025-03-04 18:59:47.394,12.7300,-4.5500,8.3800,-28.8750,152.0000,58.7500,0.4501,-0.3897,0.7850,0.1712,
2025-03-04 18:59:47.394,11.8600,-8.2100,9.0600,-54.6875,168.7500,56.5625,0.4377,-0.3915,0.7906,0.1734,
2025-03-04 18:59:47.394,10.9000,-9.8300,9.6400,-81.2500,183.4375,59.4375,0.4237,-0.3948,0.7958,0.1772,
2025-03-04 18:59:47.394,10.2700,-9.5800,10.2800,-81.9375,197.8750,68.3750,0.4081,-0.3996,0.8004,0.1822,
2025-03-04 18:59:47.394,10.2700,-9.5800,10.2800,-62.0625,209.8750,89.9375,0.3910,-0.4044,0.8053,0.1871,
2025-03-04 18:59:47.394,10.7300,-8.2800,10.5200,-33.1250,224.6875,111.6875,0.3727,-0.4081,0.8114,0.1901,
2025-03-04 18:59:47.404,11.8100,-5.6800,9.4500,-10.9375,244.6875,121.9375,0.3528,-0.4102,0.8190,0.1912,
2025-03-04 18:59:47.414,11.6400,-7.1800,9.0400,-8.1875,264.0000,126.5000,0.3314,-0.4106,0.8276,0.1915,
2025-03-04 18:59:47.424,11.4200,-8.9400,8.6700,-24.1250,277.6250,132.5625,0.3083,-0.4103,0.8365,0.1920,
2025-03-04 18:59:47.435,11.4200,-8.9400,8.6700,-33.1250,284.8125,144.6250,0.2836,-0.4108,0.8448,0.1928,
2025-03-04 18:59:47.464,11.1400,-10.4400,8.4400,-21.7500,290.6875,163.8750,0.2576,-0.4119,0.8525,0.1931,
2025-03-04 18:59:47.464,11.7900,-9.4200,8.2000,8.6250,297.5625,183.2500,0.2305,-0.4121,0.8604,0.1918,
2025-03-04 18:59:47.474,11.7500,-7.5500,7.9900,42.6250,306.5625,197.3125,0.2026,-0.4100,0.8691,0.1886,
2025-03-04 18:59:47.474,11.1700,-6.1000,6.9900,67.0625,315.8125,200.1875,0.1738,-0.4051,0.8785,0.1839,
2025-03-04 18:59:47.476,11.1700,-6.1000,6.9900,74.2500,323.9375,198.6250,0.1445,-0.3980,0.8881,0.1788,
2025-03-04 18:59:47.496,10.6400,-6.6600,6.4600,67.5625,332.2500,197.8750,0.1146,-0.3898,0.8971,0.1738,
2025-03-04 18:59:47.504,10.7400,-8.6000,5.1800,64.8125,335.6250,201.2500,0.0839,-0.3815,0.9049,0.1690,
2025-03-04 18:59:47.516,10.4200,-6.1600,4.7800,77.7500,329.6875,206.2500,0.0526,-0.3729,0.9118,0.1639,
2025-03-04 18:59:47.531,9.6800,-4.6100,4.3900,91.8750,328.6875,203.2500,0.0218,-0.3631,0.9180,0.1580,
2025-03-04 18:59:47.544,9.6800,-4.6100,4.3900,100.8125,328.8750,196.5625,-0.0087,-0.3518,0.9236,0.1520,
2025-03-04 18:59:47.544,8.9900,-3.2500,3.8300,104.1250,323.0000,187.5000,-0.0389,-0.3393,0.9284,0.1464,
2025-03-04 18:59:47.553,6.6000,-0.7100,1.7300,102.2500,315.5625,173.3125,-0.0682,-0.3264,0.9321,0.1412,
2025-03-04 18:59:47.566,6.0700,-0.2600,1.5700,85.9375,308.3750,160.8750,-0.0966,-0.3134,0.9347,0.1368,
2025-03-04 18:59:47.574,5.3500,-0.5000,1.6000,60.0000,299.0625,154.0000,-0.1241,-0.3016,0.9359,0.1329,
2025-03-04 18:59:47.586,5.3500,-0.5000,1.6000,41.4375,289.1875,143.6250,-0.1510,-0.2918,0.9356,0.1290,
2025-03-04 18:59:47.586,4.2800,-4.0800,1.1500,37.3125,284.8750,131.3125,-0.1769,-0.2834,0.9342,0.1252,
2025-03-04 18:59:47.604,2.0600,-5.3700,1.1400,53.1875,285.6875,122.8125,-0.2020,-0.2754,0.9319,0.1222,
2025-03-04 18:59:47.626,-0.1100,-4.8100,2.1300,70.6250,285.3125,118.5625,-0.2267,-0.2661,0.9292,0.1200,
2025-03-04 18:59:47.626,-1.1800,-3.8800,2.6600,78.8125,275.9375,114.3750,-0.2510,-0.2553,0.9262,0.1184,
2025-03-04 18:59:47.636,-1.1800,-3.8800,2.6600,85.2500,257.9375,106.1875,-0.2742,-0.2438,0.9229,0.1171,
2025-03-04 18:59:47.674,-1.7000,-3.0800,2.9100,84.6250,238.6875,98.8125,-0.2955,-0.2321,0.9194,0.1160,
2025-03-04 18:59:47.674,-0.4600,-1.2300,1.8900,87.5625,226.8125,99.5000,-0.3151,-0.2206,0.9158,0.1151,
2025-03-04 18:59:47.674,-1.6800,-2.6300,1.2500,80.1250,214.8125,102.5625,-0.3336,-0.2090,0.9122,0.1140,
2025-03-04 18:59:47.674,-9.5400,0.3200,1.2000,57.1250,199.8750,94.3750,-0.3511,-0.1978,0.9083,0.1121,
2025-03-04 18:59:47.674,-9.5400,0.3200,1.2000,28.0625,190.5625,69.5000,-0.3674,-0.1887,0.9041,0.1099,
2025-03-04 18:59:47.694,-8.5400,-0.6300,1.4500,-2.8750,169.4375,75.4375,-0.3827,-0.1826,0.8991,0.1085,
2025-03-04 18:59:47.714,-5.4600,-0.6200,1.4900,-37.1250,146.0625,65.0625,-0.3967,-0.1788,0.8942,0.1052,
2025-03-04 18:59:47.714,-5.3500,-1.3900,1.3100,-72.6250,128.5000,58.0625,-0.4091,-0.1781,0.8892,0.1013,
2025-03-04 18:59:47.724,-5.6900,-1.9900,0.8000,-99.4375,113.2500,61.1875,-0.4202,-0.1805,0.8841,0.0963,
2025-03-04 18:59:47.744,-5.6900,-1.9900,0.8000,-113.3125,94.5625,68.7500,-0.4304,-0.1848,0.8790,0.0899,
2025-03-04 18:59:47.744,-6.2000,-1.8200,0.6800,-119.5000,78.5000,70.1250,-0.4396,-0.1890,0.8740,0.0840,
2025-03-04 18:59:47.754,-6.4400,-2.2900,0.7500,-113.8125,68.8750,63.8750,-0.4474,-0.1946,0.8696,0.0757,
2025-03-04 18:59:47.769,-6.3100,-3.3400,1.2700,-95.0625,64.6875,55.5625,-0.4542,-0.2001,0.8655,0.0678,
2025-03-04 18:59:47.777,-6.3800,-3.6200,1.2900,-68.9375,63.1875,46.6250,-0.4604,-0.2045,0.8617,0.0612,
2025-03-04 18:59:47.783,-6.3800,-3.6200,1.2900,-41.5625,58.8125,41.7500,-0.4661,-0.2074,0.8582,0.0562,
2025-03-04 18:59:47.795,-6.7100,-3.6100,1.3500,-17.7500,49.2500,37.1250,-0.4713,-0.2085,0.8553,0.0526,
2025-03-04 18:59:47.806,-8.2700,-1.7000,1.8800,-1.4375,35.8125,32.9375,-0.4756,-0.2081,0.8532,0.0501,
2025-03-04 18:59:47.814,-7.9800,-1.5000,1.9400,5.4375,21.6250,27.3750,-0.4787,-0.2067,0.8519,0.0483,
2025-03-04 18:59:47.823,-7.5500,-1.8500,1.9500,3.9375,11.4375,19.3750,-0.4808,-0.2051,0.8512,0.0469,
2025-03-04 18:59:47.828,-7.5500,-1.8500,1.9500,-0.6875,8.0000,11.0625,-0.4819,-0.2040,0.8509,0.0458,
2025-03-04 18:59:47.844,-7.3600,-2.4200,1.7900,-5.2500,7.1250,4.6250,-0.4827,-0.2036,0.8506,0.0452,
2025-03-04 18:59:47.864,-7.2500,-2.2500,1.7100,-11.0625,2.0000,-0.8750,-0.4833,-0.2037,0.8502,0.0447,
2025-03-04 18:59:47.865,-7.2500,-2.3000,2.0600,-15.8125,-6.2500,-6.8125,-0.4835,-0.2045,0.8500,0.0444,
2025-03-04 18:59:47.876,-7.4100,-2.3300,2.2800,-15.5625,-13.3125,-12.3125,-0.4830,-0.2060,0.8499,0.0441,
2025-03-04 18:59:47.884,-7.4100,-2.3300,2.2800,-15.5625,-13.3125,-12.3125,-0.4818,-0.2076,0.8502,0.0441,
2025-03-04 18:59:47.894,-7.4100,-2.5600,2.4900,-12.1250,-24.4375,-21.9375,-0.4803,-0.2094,0.8506,0.0445,
2025-03-04 18:59:47.909,-6.9800,-2.9500,2.6800,-10.6250,-32.3125,-26.6875,-0.4781,-0.2112,0.8513,0.0452,
2025-03-04 18:59:47.926,-6.9600,-2.9100,2.8000,-8.0625,-40.0000,-31.3125,-0.4754,-0.2132,0.8523,0.0461,
2025-03-04 18:59:47.926,-7.2500,-2.8300,3.0600,-4.2500,-47.3750,-36.3750,-0.4720,-0.2152,0.8536,0.0473,
2025-03-04 18:59:47.933,-7.2500,-2.8300,3.0600,3.7500,-59.0000,-51.4375,-0.4679,-0.2172,0.8553,0.0489,
2025-03-04 18:59:47.974,-7.8200,-3.1100,3.5100,3.7500,-59.0000,-51.4375,-0.4626,-0.2192,0.8575,0.0516,
2025-03-04 18:59:47.986,-7.1900,-3.7300,3.5200,7.5000,-64.3750,-55.4375,-0.4574,-0.2211,0.8596,0.0544,
2025-03-04 18:59:47.986,-6.7600,-3.8800,3.4500,10.6250,-68.8750,-55.6250,-0.4517,-0.2230,0.8619,0.0576,
2025-03-04 18:59:47.986,-6.2600,-3.8200,3.2800,13.0000,-72.9375,-54.8125,-0.4455,-0.2247,0.8645,0.0607,
2025-03-04 18:59:47.986,-6.2600,-3.8200,3.2800,15.8125,-83.0625,-55.5625,-0.4391,-0.2262,0.8672,0.0638,
2025-03-04 18:59:47.994,-6.0900,-3.6600,3.2400,15.8125,-83.0625,-55.5625,-0.4318,-0.2275,0.8702,0.0669,
2025-03-04 18:59:48.014,-6.1600,-3.0900,4.0500,18.8125,-102.0625,-64.8750,-0.4245,-0.2289,0.8732,0.0699,
2025-03-04 18:59:48.014,-6.7300,-3.0700,4.4000,15.8750,-109.6250,-74.9375,-0.4156,-0.2304,0.8768,0.0734,
2025-03-04 18:59:48.044,-7.1900,-3.1500,4.6000,5.0625,-112.6875,-84.3750,-0.4059,-0.2325,0.8804,0.0774,
2025-03-04 18:59:48.044,-7.1900,-3.1500,4.6000,5.0625,-112.6875,-84.3750,-0.3958,-0.2357,0.8838,0.0817,
2025-03-04 18:59:48.044,-7.0000,-3.4500,4.3600,-16.7500,-117.3750,-98.0000,-0.3854,-0.2401,0.8868,0.0859,
2025-03-04 18:59:48.054,-5.2100,-3.9700,3.9800,-17.1250,-119.2500,-104.6875,-0.3747,-0.2454,0.8895,0.0903,
2025-03-04 18:59:48.063,-4.9100,-3.8300,4.0300,-8.0000,-127.0000,-110.1250,-0.3637,-0.2509,0.8920,0.0952,
2025-03-04 18:59:48.074,-4.0300,-3.2600,4.4700,5.2500,-136.9375,-115.8125,-0.3518,-0.2559,0.8948,0.1005,
2025-03-04 18:59:48.083,-4.0300,-3.2600,4.4700,13.6875,-143.0000,-120.4375,-0.3389,-0.2601,0.8979,0.1064,
2025-03-04 18:59:48.096,-3.4400,-2.9700,4.7200,13.1250,-144.5000,-122.0625,-0.3252,-0.2637,0.9011,0.1128,
2025-03-04 18:59:48.104,-2.3400,-3.8600,4.7400,8.1250,-141.8750,-120.6875,-0.3113,-0.2674,0.9041,0.1192,
2025-03-04 18:59:48.116,-1.4400,-5.0100,4.4600,2.2500,-138.0625,-118.1250,-0.2976,-0.2714,0.9067,0.1254,
2025-03-04 18:59:48.124,-1.3200,-5.1200,4.5600,-3.1875,-137.6875,-117.8125,-0.2843,-0.2756,0.9088,0.1314,
2025-03-04 18:59:48.134,-1.3200,-5.1200,4.5600,-2.1875,-143.4375,-121.5000,-0.2710,-0.2802,0.9106,0.1371,
2025-03-04 18:59:48.144,-1.4300,-4.8100,4.6800,5.5625,-155.8125,-126.8125,-0.2571,-0.2847,0.9124,0.1430,
2025-03-04 18:59:48.164,-1.1800,-3.5600,5.2300,11.3750,-169.8750,-132.5625,-0.2419,-0.2889,0.9142,0.1491,
2025-03-04 18:59:48.164,-0.4000,-3.6300,5.3400,8.5000,-176.0625,-141.1875,-0.2253,-0.2928,0.9161,0.1554,
2025-03-04 18:59:48.174,0.3100,-4.1000,5.4000,-1.3125,-172.8750,-147.7500,-0.2081,-0.2971,0.9177,0.1621,
2025-03-04 18:59:48.184,0.3100,-4.1000,5.4000,-1.3125,-172.8750,-147.7500,-0.1910,-0.3021,0.9185,0.1692,
2025-03-04 18:59:48.198,0.8700,-6.0400,6.0200,-32.6875,-162.5625,-137.3750,-0.1743,-0.3082,0.9185,0.1760,
2025-03-04 18:59:48.205,0.6800,-8.1700,6.6300,-36.5625,-156.1875,-125.6250,-0.1586,-0.3151,0.9179,0.1819,
2025-03-04 18:59:48.214,0.1500,-8.4200,6.7600,-21.1250,-158.4375,-116.5625,-0.1436,-0.3220,0.9169,0.1870,
2025-03-04 18:59:48.223,0.2500,-7.8000,6.7700,5.3125,-167.3750,-109.3125,-0.1285,-0.3275,0.9163,0.1914,
2025-03-04 18:59:48.225,0.2500,-7.8000,6.7700,31.5625,-179.1250,-105.3125,-0.1124,-0.3309,0.9164,0.1952,
2025-03-04 18:59:48.274,0.6100,-6.8700,6.5500,46.9375,-185.0625,-107.1875,-0.0951,-0.3324,0.9171,0.1987,
2025-03-04 18:59:48.294,2.6600,-5.8400,7.0100,45.6250,-181.7500,-110.5625,-0.0769,-0.3326,0.9179,0.2022,
2025-03-04 18:59:48.294,3.1300,-6.3000,7.2200,32.0625,-175.7500,-107.6250,-0.0589,-0.3329,0.9183,0.2059,
2025-03-04 18:59:48.294,3.2300,-7.0400,7.1200,16.4375,-170.0625,-100.3125,-0.0417,-0.3339,0.9181,0.2094,
2025-03-04 18:59:48.294,3.2300,-7.0400,7.1200,9.0000,-171.1250,-92.5000,-0.0254,-0.3359,0.9173,0.2124,
2025-03-04 18:59:48.294,2.6800,-7.5700,6.8600,15.2500,-179.1250,-87.9375,-0.0093,-0.3385,0.9161,0.2147,
2025-03-04 18:59:48.306,2.7700,-6.2800,6.5900,31.3750,-190.2500,-85.9375,0.0073,-0.3406,0.9150,0.2164,
2025-03-04 18:59:48.313,3.2100,-5.5800,6.4000,47.1250,-198.6875,-86.1250,0.0251,-0.3415,0.9140,0.2175,
2025-03-04 18:59:48.327,4.4200,-4.7800,6.7000,49.6250,-196.3125,-87.7500,0.0438,-0.3413,0.9132,0.2183,
2025-03-04 18:59:48.327,4.4200,-4.7800,6.7000,49.6250,-196.3125,-87.7500,0.0623,-0.3407,0.9121,0.2192,
2025-03-04 18:59:48.344,4.2700,-4.7000,7.1900,17.6875,-177.8750,-83.1875,0.0800,-0.3407,0.9105,0.2201,
2025-03-04 18:59:48.354,2.6200,-5.9800,7.4100,-11.0625,-176.2500,-78.7500,0.0964,-0.3420,0.9082,0.2212,
2025-03-04 18:59:48.369,1.0000,-7.0500,6.9900,-34.0625,-183.8125,-62.6875,0.1119,-0.3455,0.9048,0.2222,
2025-03-04 18:59:48.376,10.2600,-6.4300,6.9100,-42.6875,-200.7500,-61.0000,0.1272,-0.3509,0.9008,0.2219,
2025-03-04 18:59:48.384,10.2600,-6.4300,6.9100,-42.6875,-200.7500,-61.0000,0.1434,-0.3572,0.8961,0.2211,
2025-03-04 18:59:48.398,12.2700,-4.0500,7.4700,-50.8750,-174.6875,-75.7500,0.1616,-0.3632,0.8905,0.2213,
2025-03-04 18:59:48.404,5.7500,-5.2600,5.7400,-65.3750,-152.8750,-77.6875,0.1760,-0.3692,0.8851,0.2222,
2025-03-04 18:59:48.413,5.4700,-5.8800,5.7400,-71.0000,-161.1875,-85.1875,0.1887,-0.3757,0.8792,0.2242,
2025-03-04 18:59:48.428,7.2300,-7.9400,6.8900,-70.8125,-165.7500,-88.1250,0.2020,-0.3827,0.8726,0.2266,
2025-03-04 18:59:48.436,7.2300,-7.9400,6.8900,-66.3750,-158.6250,-82.1250,0.2156,-0.3895,0.8657,0.2289,
2025-03-04 18:59:48.444,7.8100,-8.5400,7.0600,-53.6250,-155.3125,-72.2500,0.2286,-0.3959,0.8589,0.2308,
2025-03-04 18:59:48.463,8.4000,-7.5600,7.2000,-30.1875,-156.3750,-66.0625,0.2413,-0.4014,0.8526,0.2319,
2025-03-04 18:59:48.464,8.3900,-5.5700,6.7600,-4.3750,-153.0625,-66.2500,0.2542,-0.4052,0.8470,0.2319,
2025-03-04 18:59:48.484,8.0300,-4.9900,6.0200,9.5000,-145.1250,-70.1250,0.2672,-0.4071,0.8422,0.2315,
2025-03-04 18:59:48.484,8.0300,-4.9900,6.0200,7.7500,-137.5625,-76.0625,0.2802,-0.4076,0.8378,0.2313,
2025-03-04 18:59:48.494,7.8100,-4.9200,5.3300,8.1250,-140.6875,-76.7500,0.2926,-0.4079,0.8333,0.2317,
2025-03-04 18:59:48.509,10.7100,-6.6100,5.4700,15.3125,-144.1250,-72.2500,0.3053,-0.4081,0.8285,0.2321,
2025-03-04 18:59:48.514,11.0200,-7.2200,5.8200,27.3125,-139.3750,-62.8750,0.3182,-0.4080,0.8238,0.2317,
2025-03-04 18:59:48.526,10.5700,-7.0600,6.1400,44.0000,-134.4375,-51.5625,0.3305,-0.4071,0.8197,0.2305,
2025-03-04 18:59:48.534,10.5700,-7.0600,6.1400,44.0000,-134.4375,-51.5625,0.3424,-0.4052,0.8164,0.2283,
2025-03-04 18:59:48.574,9.9700,-5.3100,6.1600,58.6250,-131.3125,-45.5625,0.3541,-0.4023,0.8136,0.2252,
2025-03-04 18:59:48.574,9.4400,-3.6400,5.4900,46.9375,-120.5000,-44.3750,0.3655,-0.3992,0.8110,0.2220,
2025-03-04 18:59:48.574,8.8800,-3.7300,5.2600,25.5000,-114.5625,-47.1875,0.3761,-0.3969,0.8080,0.2195,
2025-03-04 18:59:48.574,8.6700,-4.3500,5.3300,8.6875,-110.4375,-47.8750,0.3860,-0.3958,0.8043,0.2181,
2025-03-04 18:59:48.584,8.6700,-4.3500,5.3300,8.6875,-110.4375,-47.8750,0.3952,-0.3956,0.8000,0.2173,
2025-03-04 18:59:48.593,8.7700,-4.9000,5.5400,0.6875,-105.8750,-45.5625,0.4040,-0.3959,0.7957,0.2167,
2025-03-04 18:59:48.614,9.4400,-5.5900,5.5200,6.3750,-96.5000,-36.9375,0.4122,-0.3962,0.7915,0.2161,
2025-03-04 18:59:48.614,9.6600,-5.7200,5.3200,15.5625,-92.1250,-31.5000,0.4200,-0.3963,0.7876,0.2151,
2025-03-04 18:59:48.623,9.9900,-5.8100,5.0300,28.8750,-89.9375,-27.0000,0.4274,-0.3958,0.7843,0.2135,
2025-03-04 18:59:48.638,9.9900,-5.8100,5.0300,28.8750,-89.9375,-27.0000,0.4348,-0.3945,0.7815,0.2112,
2025-03-04 18:59:48.645,10.1400,-5.6400,4.6400,42.1875,-86.8750,-27.0625,0.4421,-0.3923,0.7792,0.2086,
2025-03-04 18:59:48.653,9.1500,-4.7500,3.9300,54.4375,-77.5000,-22.5625,0.4492,-0.3894,0.7773,0.2058,
2025-03-04 18:59:48.668,9.0200,-4.4800,3.8300,55.8125,-75.0625,-17.9375,0.4560,-0.3863,0.7757,0.2027,
2025-03-04 18:59:48.675,8.8900,-4.2400,4.3200,54.3750,-71.5625,-14.5625,0.4625,-0.3832,0.7743,0.1992,
2025-03-04 18:59:48.675,8.8900,-4.2400,4.3200,54.3750,-71.5625,-14.5625,0.4685,-0.3802,0.7731,0.1957,
2025-03-04 18:59:48.688,9.1700,-4.1800,4.4700,52.1250,-65.8125,-12.1250,0.4740,-0.3775,0.7719,0.1924,
2025-03-04 18:59:48.704,9.7300,-4.4800,4.7400,48.0000,-53.5625,-2.6250,0.4789,-0.3749,0.7709,0.1890,
2025-03-04 18:59:48.724,10.5200,-5.4600,5.4900,46.5625,-43.8125,3.1250,0.4833,-0.3725,0.7702,0.1856,
2025-03-04 18:59:48.724,10.3600,-6.2600,5.1100,41.6250,-27.0625,11.3125,0.4867,-0.3703,0.7699,0.1821,
2025-03-04 18:59:48.728,10.3600,-6.2600,5.1100,41.6250,-27.0625,11.3125,0.4888,-0.3685,0.7703,0.1788,
2025-03-04 18:59:48.738,9.4700,-6.4700,5.0000,38.9375,-15.7500,21.0000,0.4897,-0.3671,0.7711,0.1755,
2025-03-04 18:59:48.755,9.0400,-1.9800,3.4700,67.4375,-19.7500,22.0625,0.4908,-0.3650,0.7724,0.1711,
2025-03-04 18:59:48.763,8.9100,-1.5400,2.3700,62.3750,-19.6875,16.8750,0.4924,-0.3617,0.7740,0.1663,
2025-03-04 18:59:48.774,8.8100,-1.8800,1.4700,42.5625,-22.5625,10.9375,0.4940,-0.3587,0.7753,0.1619,
2025-03-04 18:59:48.804,8.8100,-1.8800,1.4700,42.5625,-22.5625,10.9375,0.4958,-0.3566,0.7758,0.1588,
2025-03-04 18:59:48.804,8.8100,-3.0600,0.8000,20.6875,-27.8125,4.8125,0.4980,-0.3555,0.7754,0.1561,
2025-03-04 18:59:48.804,8.8300,-3.9100,1.2900,-0.8750,-25.8125,0.3750,0.5000,-0.3555,0.7743,0.1549,
2025-03-04 18:59:48.815,8.6700,-3.7900,2.1600,1.4375,-20.0000,0.6250,0.5017,-0.3560,0.7732,0.1542,
2025-03-04 18:59:48.824,8.6200,-3.5400,2.4400,8.7500,-17.3750,-0.1250,0.5030,-0.3561,0.7724,0.1534,
2025-03-04 18:59:48.828,8.6200,-3.5400,2.4400,8.7500,-17.3750,-0.1250,0.5042,-0.3558,0.7719,0.1526,
2025-03-04 18:59:48.874,8.6500,-3.3400,2.5900,15.4375,-17.6250,-0.5000,0.5057,-0.3549,0.7717,0.1511,
2025-03-04 18:59:48.874,8.8600,-3.3700,2.5400,25.6875,-18.3750,-2.6875,0.5072,-0.3537,0.7715,0.1498,
2025-03-04 18:59:48.874,8.8000,-3.4200,2.4400,29.5000,-19.0625,-4.3125,0.5088,-0.3521,0.7715,0.1483,
2025-03-04 18:59:48.874,8.7500,-3.3200,2.3400,29.8125,-20.0000,-5.5625,0.5105,-0.3502,0.7715,0.1467,
2025-03-04 18:59:48.874,8.7500,-3.3200,2.3400,29.8125,-20.0000,-5.5625,0.5124,-0.3483,0.7714,0.1453,
2025-03-04 18:59:48.885,8.9700,-3.2900,2.1100,25.0625,-20.5000,-5.9375,0.5142,-0.3466,0.7712,0.1438,
2025-03-04 18:59:48.905,9.1100,-3.8400,1.9800,11.2500,-15.5625,-2.6875,0.5158,-0.3455,0.7709,0.1428,
2025-03-04 18:59:48.914,9.0400,-4.2500,1.9400,7.5000,-13.5625,-0.0625,0.5170,-0.3448,0.7705,0.1420,
2025-03-04 18:59:48.945,8.9100,-4.7000,1.8900,6.4375,-13.3750,2.9375,0.5180,-0.3445,0.7701,0.1413,
2025-03-04 18:59:48.945,8.9100,-4.7000,1.8900,6.4375,-13.3750,2.9375,0.5189,-0.3443,0.7697,0.1404,
2025-03-04 18:59:48.945,8.7900,-4.8000,1.9100,7.3125,-13.7500,5.8125,0.5197,-0.3443,0.7694,0.1393,
2025-03-04 18:59:48.953,8.5800,-4.7100,1.9500,13.4375,-13.1875,8.0000,0.5204,-0.3441,0.7692,0.1381,
2025-03-04 18:59:48.965,8.4300,-4.4000,1.9500,17.9375,-14.6875,7.6250,0.5212,-0.3437,0.7691,0.1365,
2025-03-04 18:59:48.974,8.4900,-4.0900,1.9500,20.5000,-16.3125,8.1875,0.5222,-0.3431,0.7691,0.1348,
2025-03-04 18:59:48.984,8.5300,-3.9000,2.0100,20.5000,-16.3125,8.1875,0.5232,-0.3423,0.7690,0.1329,
2025-03-04 18:59:48.996,8.5800,-3.8100,2.0800,20.6875,-16.7500,8.1250,0.5243,-0.3415,0.7690,0.1310,
2025-03-04 18:59:49.024,8.5100,-3.5600,2.1100,21.1875,-15.9375,7.6250,0.5253,-0.3406,0.7690,0.1291,
2025-03-04 18:59:49.024,8.4500,-3.4700,2.1000,20.2500,-16.3750,7.1250,0.5264,-0.3398,0.7689,0.1272,
2025-03-04 18:59:49.024,8.4100,-3.4000,2.1200,19.8125,-16.7500,6.1875,0.5275,-0.3390,0.7689,0.1254,
2025-03-04 18:59:49.024,8.4300,-3.4500,2.1400,19.8125,-16.7500,6.1875,0.5286,-0.3381,0.7688,0.1236,
2025-03-04 18:59:49.039,8.4500,-3.4800,2.1600,19.2500,-16.5625,5.1875,0.5297,-0.3373,0.7686,0.1219,
2025-03-04 18:59:49.054,8.5900,-3.5200,2.1400,19.0625,-16.0625,3.9375,0.5308,-0.3364,0.7685,0.1204,
2025-03-04 18:59:49.064,8.7400,-3.5200,2.1400,18.8750,-15.1250,3.6875,0.5320,-0.3355,0.7683,0.1188,
2025-03-04 18:59:49.095,8.9800,-3.5700,2.2100,17.7500,-13.6250,3.6250,0.5330,-0.3346,0.7682,0.1172,
2025-03-04 18:59:49.095,9.0500,-3.6900,2.1900,17.7500,-13.6250,3.6250,0.5340,-0.3337,0.7681,0.1158,
2025-03-04 18:59:49.095,9.0600,-3.8000,2.2100,16.1875,-12.0625,3.5625,0.5348,-0.3331,0.7680,0.1147,
2025-03-04 18:59:49.104,9.0500,-3.8500,2.2800,13.3750,-11.1250,3.5625,0.5355,-0.3325,0.7680,0.1135,
2025-03-04 18:59:49.116,9.0300,-3.7500,2.3000,13.0000,-10.7500,3.0625,0.5363,-0.3319,0.7679,0.1123,
2025-03-04 18:59:49.124,8.9800,-3.6300,2.2900,12.5625,-10.2500,2.6875,0.5370,-0.3312,0.7678,0.1112,
2025-03-04 18:59:49.134,8.9400,-3.5700,2.3000,12.5625,-10.2500,2.6875,0.5377,-0.3305,0.7678,0.1103,
2025-03-04 18:59:49.166,9.0100,-3.5100,2.3000,11.4375,-9.5625,1.9375,0.5382,-0.3300,0.7678,0.1097,
2025-03-04 18:59:49.174,9.0500,-3.5100,2.2700,7.8750,-7.5000,1.0625,0.5388,-0.3293,0.7677,0.1091,
2025-03-04 18:59:49.174,9.0500,-3.5400,2.2300,6.2500,-6.0625,0.8125,0.5393,-0.3287,0.7677,0.1085,
2025-03-04 18:59:49.174,9.0300,-3.6400,2.2900,5.3125,-4.6875,0.8125,0.5397,-0.3283,0.7677,0.1081,
2025-03-04 18:59:49.193,9.0000,-3.7000,2.2800,5.3125,-4.6875,0.8125,0.5400,-0.3279,0.7677,0.1078,
2025-03-04 18:59:49.193,8.9500,-3.7000,2.2400,4.4375,-3.3750,0.9375,0.5402,-0.3276,0.7677,0.1075,
2025-03-04 18:59:49.206,8.9000,-3.6800,2.2300,4.4375,-1.2500,0.7500,0.5402,-0.3273,0.7678,0.1073,
2025-03-04 18:59:49.214,8.8600,-3.5200,2.1300,4.3125,-0.6250,1.0000,0.5403,-0.3269,0.7680,0.1071,
2025-03-04 18:59:49.246,8.8700,-3.4400,2.1400,3.4375,0.3125,0.8750,0.5403,-0.3266,0.7681,0.1069,
2025-03-04 18:59:49.246,8.8700,-3.4200,2.1500,3.4375,0.3125,0.8750,0.5403,-0.3262,0.7682,0.1068,
2025-03-04 18:59:49.246,8.9400,-3.4000,2.1900,2.0625,1.1875,0.5625,0.5401,-0.3262,0.7683,0.1072,
2025-03-04 18:59:49.253,8.9600,-3.4200,2.1900,-1.1250,3.2500,-0.0625,0.5400,-0.3260,0.7685,0.1074,
2025-03-04 18:59:49.265,8.9800,-3.4400,2.1300,-2.9375,3.9375,-0.6250,0.5398,-0.3258,0.7687,0.1077,
2025-03-04 18:59:49.274,8.9600,-3.4700,2.1200,-4.6875,5.0000,-0.9375,0.5395,-0.3258,0.7688,0.1082,
2025-03-04 18:59:49.315,8.9200,-3.5700,2.0500,-4.6875,5.0000,-0.9375,0.5392,-0.3259,0.7689,0.1086,
2025-03-04 18:59:49.315,8.8600,-3.6000,2.0000,-5.4375,6.0000,-1.3750,0.5389,-0.3261,0.7690,0.1092,
2025-03-04 18:59:49.315,8.8400,-3.6300,1.9900,-7.3125,7.1250,-2.1875,0.5385,-0.3263,0.7691,0.1099,
2025-03-04 18:59:49.315,8.9600,-3.8800,2.0400,-7.7500,7.5625,-2.0625,0.5380,-0.3266,0.7692,0.1105,
2025-03-04 18:59:49.323,9.0200,-4.0100,2.0900,-7.2500,8.0000,-1.6875,0.5375,-0.3269,0.7693,0.1112,
2025-03-04 18:59:49.323,9.0200,-4.0400,2.1300,-7.2500,8.0000,-1.6875,0.5369,-0.3273,0.7695,0.1119,
2025-03-04 18:59:49.344,8.9900,-4.0300,2.1300,-6.1250,8.2500,-0.8750,0.5359,-0.3283,0.7695,0.1135,
2025-03-04 18:59:49.356,8.9400,-3.9600,2.0600,-3.2500,7.2500,0.3125,0.5353,-0.3285,0.7698,0.1139,
2025-03-04 18:59:49.384,8.9000,-3.8800,2.0100,-1.7500,6.2500,0.3125,0.5348,-0.3286,0.7700,0.1143,
2025-03-04 18:59:49.384,8.8900,-3.7900,2.0100,-0.6875,5.6250,0.2500,0.5344,-0.3287,0.7702,0.1145,
2025-03-04 18:59:49.384,8.8200,-3.6600,1.9900,-0.6875,5.6250,0.2500,0.5341,-0.3287,0.7705,0.1147,
2025-03-04 18:59:49.384,8.7900,-3.6400,1.9700,0.1875,5.6250,0.1250,0.5336,-0.3287,0.7707,0.1149,
2025-03-04 18:59:49.404,8.7900,-3.6000,1.9700,-0.3750,5.6875,0.5625,0.5333,-0.3286,0.7710,0.1150,
2025-03-04 18:59:49.415,8.8000,-3.5700,1.9800,-1.3750,5.8125,0.9375,0.5329,-0.3285,0.7712,0.1152,
2025-03-04 18:59:49.424,8.8200,-3.5300,2.0200,-2.0000,5.9375,1.1875,0.5325,-0.3286,0.7715,0.1154,
2025-03-04 18:59:49.464,8.8100,-3.4900,2.0700,-2.0000,5.9375,1.1875,0.5321,-0.3287,0.7717,0.1156,
2025-03-04 18:59:49.474,8.8000,-3.4500,2.0900,-2.9375,5.8125,0.8750,0.5316,-0.3289,0.7718,0.1160,
2025-03-04 18:59:49.474,8.8200,-3.5500,2.0700,-3.3750,6.0000,0.6875,0.5313,-0.3290,0.7720,0.1163,
2025-03-04 18:59:49.474,8.8500,-3.6200,2.1200,-5.5000,8.3125,0.4375,0.5308,-0.3292,0.7722,0.1168,
2025-03-04 18:59:49.474,8.8600,-3.6900,2.2000,-5.6875,9.6250,1.0000,0.5302,-0.3295,0.7724,0.1172,
2025-03-04 18:59:49.474,8.8500,-3.7300,2.2500,-5.6875,9.6250,1.0000,0.5295,-0.3298,0.7727,0.1177,
2025-03-04 18:59:49.494,8.9400,-3.7000,2.3400,-6.0625,9.9375,2.1250,0.5288,-0.3301,0.7730,0.1182,
2025-03-04 18:59:49.504,8.9700,-3.6600,2.3900,-8.4375,10.6250,2.9375,0.5280,-0.3306,0.7733,0.1186,
2025-03-04 18:59:49.514,8.9400,-3.5800,2.4400,-9.9375,11.8125,2.7500,0.5271,-0.3311,0.7735,0.1191,
2025-03-04 18:59:49.524,8.8100,-3.4900,2.4500,-11.8750,13.3125,1.8125,0.5261,-0.3317,0.7739,0.1198,
2025-03-04 18:59:49.525,8.7800,-3.5200,2.4500,-11.8750,13.3125,1.8125,0.5251,-0.3323,0.7742,0.1207,
2025-03-04 18:59:49.546,8.8000,-3.5700,2.5100,-14.1875,15.4375,1.5000,0.5241,-0.3326,0.7746,0.1212,
2025-03-04 18:59:49.553,8.8700,-3.6600,2.6000,-17.9375,19.8750,3.0000,0.5226,-0.3335,0.7750,0.1224,
2025-03-04 18:59:49.566,9.0100,-3.7600,2.8800,-19.0625,22.7500,4.0000,0.5210,-0.3346,0.7754,0.1235,
2025-03-04 18:59:49.574,9.0200,-3.7300,2.9700,-19.3125,25.8750,4.5000,0.5192,-0.3358,0.7759,0.1248,
2025-03-04 18:59:49.613,9.0000,-3.6900,2.9800,-19.3125,25.8750,4.5000,0.5172,-0.3370,0.7766,0.1260,
2025-03-04 18:59:49.613,9.1100,-3.6700,3.0500,-20.6250,28.6250,4.1250,0.5150,-0.3382,0.7773,0.1275,
2025-03-04 18:59:49.613,9.1800,-3.6700,3.1200,-25.6875,34.6875,3.6250,0.5126,-0.3396,0.7779,0.1291,
2025-03-04 18:59:49.613,9.1300,-3.7000,3.1900,-27.0625,39.9375,4.0625,0.5100,-0.3411,0.7788,0.1310,
2025-03-04 18:59:49.624,9.0600,-3.7900,3.2300,-28.0000,43.5625,4.8750,0.5069,-0.3426,0.7797,0.1331,
2025-03-04 18:59:49.624,8.9300,-4.0900,3.2400,-28.0000,43.5625,4.8750,0.5035,-0.3441,0.7809,0.1352,
2025-03-04 18:59:49.639,8.8500,-4.2300,3.3300,-28.2500,45.1250,5.4375,0.5001,-0.3458,0.7820,0.1375,
2025-03-04 18:59:49.664,8.9000,-4.2700,3.4200,-28.4375,47.0625,5.6250,0.4965,-0.3473,0.7832,0.1396,
2025-03-04 18:59:49.664,9.0300,-4.2100,3.4600,-28.3750,48.8125,6.7500,0.4929,-0.3489,0.7844,0.1418,
2025-03-04 18:59:49.684,9.2400,-3.9400,3.4500,-28.5625,51.0000,7.6875,0.4891,-0.3505,0.7856,0.1440,
2025-03-04 18:59:49.684,9.3800,-3.9200,3.3600,-28.5625,51.0000,7.6875,0.4852,-0.3520,0.7870,0.1462,
2025-03-04 18:59:49.684,9.3200,-4.1100,3.2400,-29.1875,52.5625,7.1250,0.4809,-0.3538,0.7883,0.1487,
2025-03-04 18:59:49.704,9.1000,-4.6700,3.1900,-27.7500,55.3750,6.6875,0.4767,-0.3553,0.7897,0.1510,
2025-03-04 18:59:49.723,9.0200,-4.7900,3.3100,-24.1250,55.0625,7.6250,0.4725,-0.3567,0.7912,0.1533,
2025-03-04 18:59:49.734,8.9000,-4.8700,3.4400,-18.5625,55.3125,8.7500,0.4683,-0.3579,0.7927,0.1555,
2025-03-04 18:59:49.775,8.8000,-4.7700,3.5600,-18.5625,55.3125,8.7500,0.4640,-0.3588,0.7945,0.1573,
2025-03-04 18:59:49.784,8.5900,-4.2100,3.6400,-12.8750,56.6875,10.2500,0.4594,-0.3598,0.7963,0.1597,
2025-03-04 18:59:49.784,8.5300,-3.9100,3.6400,-9.3750,59.1875,13.6250,0.4550,-0.3600,0.7984,0.1610,
2025-03-04 18:59:49.784,8.4800,-3.7600,3.6100,-12.8750,59.9375,15.1250,0.4504,-0.3604,0.8006,0.1622,
2025-03-04 18:59:49.784,8.3700,-3.6600,3.5800,-17.4375,60.9375,16.6250,0.4457,-0.3610,0.8027,0.1635,
2025-03-04 18:59:49.784,8.2700,-3.6600,3.5900,-17.4375,60.9375,16.6250,0.4408,-0.3620,0.8046,0.1649,
2025-03-04 18:59:49.814,8.2200,-3.7300,3.6000,-21.6875,61.6875,17.1875,0.4358,-0.3633,0.8065,0.1664,
2025-03-04 18:59:49.814,8.2900,-3.9300,3.6400,-26.2500,63.3125,17.1875,0.4307,-0.3647,0.8082,0.1681,
2025-03-04 18:59:49.823,8.1500,-4.4400,3.6700,-27.1875,64.6250,16.6250,0.4254,-0.3663,0.8099,0.1699,
2025-03-04 18:59:49.844,8.0400,-4.6500,3.7400,-26.7500,64.8750,16.9375,0.4201,-0.3678,0.8116,0.1717,
2025-03-04 18:59:49.854,8.0500,-4.7600,3.8500,-26.7500,64.8750,16.9375,0.4147,-0.3693,0.8134,0.1735,
2025-03-04 18:59:49.854,7.9900,-4.6200,4.0700,-24.8750,65.5000,17.8750,0.4089,-0.3710,0.8150,0.1759,
2025-03-04 18:59:49.857,7.9500,-4.6000,4.1900,-21.9375,67.6875,19.1250,0.4034,-0.3723,0.8168,0.1775,
2025-03-04 18:59:49.866,7.8900,-4.5900,4.2600,-21.3750,69.3750,18.7500,0.3978,-0.3734,0.8187,0.1791,
2025-03-04 18:59:49.874,7.8100,-4.6700,4.3500,-22.0000,71.1875,18.3125,0.3921,-0.3745,0.8206,0.1807,
2025-03-04 18:59:49.890,7.6800,-5.0900,4.5900,-22.0000,71.1875,18.3125,0.3862,-0.3755,0.8226,0.1824,
2025-03-04 18:59:49.890,7.6600,-5.3300,4.7000,-23.9375,72.4375,19.1250,0.3800,-0.3769,0.8243,0.1845,
2025-03-04 18:59:49.914,7.6200,-5.5300,4.8400,-25.7500,74.1250,22.3750,0.3738,-0.3782,0.8262,0.1862,
2025-03-04 18:59:49.914,7.5400,-5.7200,5.0200,-23.1250,74.8750,23.8750,0.3675,-0.3795,0.8280,0.1878,
2025-03-04 18:59:49.926,7.5700,-5.6300,5.2700,-18.2500,76.3750,25.5625,0.3611,-0.3807,0.8300,0.1893,
2025-03-04 18:59:49.934,7.6300,-5.5900,5.3800,-18.2500,76.3750,25.5625,0.3547,-0.3815,0.8321,0.1905,
2025-03-04 18:59:49.941,7.6400,-5.5700,5.3800,-13.5000,79.0625,26.7500,0.3480,-0.3820,0.8345,0.1916,
2025-03-04 18:59:49.957,7.5700,-5.5900,5.2400,-9.7500,81.9375,29.7500,0.3411,-0.3823,0.8369,0.1926,
2025-03-04 18:59:49.964,7.5900,-5.6900,5.2500,-9.3750,81.2500,30.5000,0.3342,-0.3825,0.8394,0.1934,
2025-03-04 18:59:49.974,7.5900,-5.9000,5.4000,-9.1875,82.1250,31.5625,0.3273,-0.3826,0.8419,0.1941,
2025-03-04 18:59:49.983,7.6400,-5.9900,5.7600,-9.1875,82.1250,31.5625,0.3203,-0.3828,0.8444,0.1948,
2025-03-04 18:59:49.984,7.4700,-5.9200,5.8300,-7.1250,84.2500,33.2500,0.3131,-0.3828,0.8469,0.1953,
2025-03-04 18:59:50.004,7.2300,-5.7500,5.8500,-1.4375,89.3125,35.8750,0.3056,-0.3826,0.8496,0.1957,
2025-03-04 18:59:50.016,7.0500,-5.5700,5.8400,-0.3125,90.3125,38.1250,0.2980,-0.3821,0.8525,0.1961,
2025-03-04 18:59:50.024,6.8600,-5.3300,5.9400,-1.2500,91.3125,40.0625,0.2902,-0.3816,0.8554,0.1963,
2025-03-04 18:59:50.024,6.8200,-5.3900,6.0700,-1.2500,91.3125,40.0625,0.2824,-0.3812,0.8582,0.1964,
2025-03-04 18:59:50.074,6.7400,-5.5300,6.1300,-3.8125,92.9375,41.5000,0.2742,-0.3809,0.8609,0.1964,
2025-03-04 18:59:50.076,6.5500,-5.9000,6.3500,-7.1875,98.1875,44.3125,0.2657,-0.3807,0.8636,0.1965,
2025-03-04 18:59:50.076,6.4800,-6.0100,6.3800,-6.1875,100.6250,45.3750,0.2570,-0.3806,0.8663,0.1966,
2025-03-04 18:59:50.076,6.3400,-6.2200,6.4900,-3.1250,103.3750,46.0625,0.2481,-0.3804,0.8690,0.1966,
2025-03-04 18:59:50.084,6.1900,-6.2200,6.6000,-3.1250,103.3750,46.0625,0.2389,-0.3798,0.8718,0.1966,
2025-03-04 18:59:50.084,5.8100,-6.0400,6.7900,2.3125,104.7500,47.4375,0.2297,-0.3789,0.8747,0.1964,
2025-03-04 18:59:50.104,5.7300,-5.7800,6.8100,7.7500,106.0000,49.8125,0.2205,-0.3776,0.8777,0.1961,
2025-03-04 18:59:50.114,5.7400,-5.6400,6.7800,7.1875,106.6875,51.4375,0.2111,-0.3761,0.8807,0.1957,
2025-03-04 18:59:50.124,5.8100,-5.7700,6.7000,5.5000,108.6875,52.0000,0.2017,-0.3748,0.8837,0.1951,
2025-03-04 18:59:50.133,5.7600,-5.8900,6.7200,5.5000,108.6875,52.0000,0.1920,-0.3734,0.8865,0.1945,
2025-03-04 18:59:50.140,5.6700,-6.0200,6.7200,4.6875,110.1250,52.2500,0.1821,-0.3721,0.8892,0.1941,
2025-03-04 18:59:50.154,5.5000,-6.1800,6.8000,1.4375,113.2500,51.6250,0.1721,-0.3708,0.8919,0.1936,
2025-03-04 18:59:50.173,5.0800,-6.1000,6.9400,-0.6250,114.2500,51.0000,0.1620,-0.3696,0.8943,0.1932,
2025-03-04 18:59:50.173,4.9100,-6.0300,6.9800,-3.0625,115.1250,51.2500,0.1517,-0.3684,0.8967,0.1929,
2025-03-04 18:59:50.184,4.7700,-5.9900,6.9700,-3.0625,115.1250,51.2500,0.1414,-0.3674,0.8988,0.1927,
2025-03-04 18:59:50.186,4.5200,-6.0500,6.9600,-5.8125,115.5625,52.1250,0.1310,-0.3665,0.9009,0.1920,
2025-03-04 18:59:50.205,4.4100,-6.1800,6.9300,-8.8125,117.1875,52.9375,0.1204,-0.3658,0.9028,0.1916,
2025-03-04 18:59:50.214,4.3000,-6.2600,6.9800,-8.3750,117.3750,53.1250,0.1097,-0.3651,0.9045,0.1913,
2025-03-04 18:59:50.225,4.1700,-6.3400,7.0900,-7.1250,117.6250,53.8125,0.0989,-0.3643,0.9061,0.1910,
2025-03-04 18:59:50.240,3.5300,-6.5700,7.1400,-5.7500,117.5625,53.5625,0.0773,-0.3624,0.9091,0.1902,
2025-03-04 18:59:50.254,3.4000,-6.6400,6.9800,1.6250,116.1875,57.6250,0.0667,-0.3610,0.9106,0.1896,
2025-03-04 18:59:50.264,3.2600,-6.4700,6.9000,7.0625,115.3750,59.3125,0.0560,-0.3593,0.9122,0.1887,
2025-03-04 18:59:50.273,3.1900,-6.2400,6.9900,14.3750,114.2500,59.2500,0.0453,-0.3572,0.9139,0.1876,
2025-03-04 18:59:50.284,3.0400,-6.0000,7.0800,14.3750,114.2500,59.2500,0.0350,-0.3545,0.9156,0.1863,
2025-03-04 18:59:50.284,2.8700,-5.7500,7.1200,20.3750,113.9375,58.0625,0.0247,-0.3513,0.9174,0.1852,
2025-03-04 18:59:50.304,2.4900,-5.8900,7.0500,21.2500,112.7500,54.0625,0.0146,-0.3479,0.9192,0.1842,
2025-03-04 18:59:50.324,2.3700,-5.9300,6.8900,19.6250,112.0000,53.8125,0.0046,-0.3445,0.9207,0.1833,
2025-03-04 18:59:50.324,2.2400,-5.8600,6.7800,20.6250,110.8750,53.1250,-0.0054,-0.3412,0.9221,0.1824,
2025-03-04 18:59:50.375,1.9100,-5.2300,6.9100,26.1250,108.9375,51.2500,-0.0248,-0.3341,0.9247,0.1805,
2025-03-04 18:59:50.375,1.6200,-5.0400,7.0400,33.1875,105.8125,43.1250,-0.0340,-0.3298,0.9261,0.1799,
2025-03-04 18:59:50.384,1.2700,-5.0900,7.1400,31.0625,104.0000,39.0000,-0.0430,-0.3255,0.9273,0.1796,
2025-03-04 18:59:50.384,0.6800,-5.5700,7.1700,26.8750,102.6875,38.4375,-0.0517,-0.3214,0.9284,0.1795,
2025-03-04 18:59:50.384,0.5200,-5.7400,7.1600,26.8750,102.6875,38.4375,-0.0604,-0.3175,0.9292,0.1794,
2025-03-04 18:59:50.424,0.3700,-5.9700,7.0900,22.3750,101.3125,39.6250,-0.0690,-0.3140,0.9299,0.1790,
2025-03-04 18:59:50.424,0.1900,-6.1000,6.9800,23.6875,98.1250,42.1875,-0.0776,-0.3105,0.9304,0.1785,
2025-03-04 18:59:50.424,0.0400,-6.0500,7.0100,27.4375,96.1875,42.9375,-0.0861,-0.3069,0.9310,0.1779,
2025-03-04 18:59:50.424,-0.1000,-5.8900,7.0200,29.7500,94.2500,43.5000,-0.0944,-0.3030,0.9316,0.1772,
2025-03-04 18:59:50.424,-0.2400,-5.6000,7.0900,29.7500,94.2500,43.5000,-0.1024,-0.2989,0.9322,0.1764,
2025-03-04 18:59:50.440,-0.4700,-5.4500,7.1100,28.1250,92.8125,42.8750,-0.1106,-0.2948,0.9326,0.1763,
2025-03-04 18:59:50.454,-0.6000,-5.5900,7.0000,22.9375,88.5625,41.0000,-0.1184,-0.2911,0.9330,0.1755,
2025-03-04 18:59:50.478,-0.6900,-5.6900,6.8800,20.5625,87.6875,40.2500,-0.1260,-0.2875,0.9332,0.1746,
2025-03-04 18:59:50.478,-0.9600,-5.5800,6.7400,17.0625,86.1250,39.6875,-0.1337,-0.2842,0.9334,0.1738,
2025-03-04 18:59:50.478,-1.0900,-5.4000,6.7800,17.0625,86.1250,39.6875,-0.1411,-0.2811,0.9334,0.1729,
2025-03-04 18:59:50.506,-1.1600,-5.1900,6.8000,17.2500,83.0625,38.3750,-0.1484,-0.2781,0.9333,0.1721,
2025-03-04 18:59:50.506,-1.2300,-4.9800,6.8100,19.4375,77.3125,34.6875,-0.1552,-0.2749,0.9333,0.1713,
2025-03-04 18:59:50.526,-1.4500,-4.7400,7.0300,16.5000,74.4375,32.1875,-0.1619,-0.2718,0.9332,0.1707,
2025-03-04 18:59:50.526,-1.5700,-4.7600,7.0300,11.8750,73.0000,29.5000,-0.1682,-0.2690,0.9330,0.1700,
2025-03-04 18:59:50.534,-1.7300,-4.9000,7.0100,11.8750,73.0000,29.5000,-0.1744,-0.2666,0.9326,0.1695,
2025-03-04 18:59:50.546,-1.9900,-5.1200,6.9600,6.6250,71.9375,27.0625,-0.1807,-0.2646,0.9321,0.1692,
2025-03-04 18:59:50.554,-2.1900,-5.3400,6.9400,2.3750,66.5000,24.8750,-0.1866,-0.2630,0.9314,0.1688,
2025-03-04 18:59:50.574,-2.2300,-5.3100,6.9200,5.1250,64.3750,25.5000,-0.1924,-0.2615,0.9307,0.1683,
2025-03-04 18:59:50.584,-2.3100,-5.1200,6.8700,8.6875,61.0625,25.8125,-0.1979,-0.2597,0.9302,0.1678,
2025-03-04 18:59:50.584,-2.4500,-4.6500,6.8300,8.6875,61.0625,25.8125,-0.2032,-0.2577,0.9297,0.1673,
2025-03-04 18:59:50.584,-2.5500,-4.6100,6.8600,9.7500,58.2500,24.8125,-0.2081,-0.2557,0.9292,0.1667,
2025-03-04 18:59:50.604,-2.6300,-4.7200,6.7600,8.4375,54.4375,22.0000,-0.2129,-0.2538,0.9288,0.1663,
2025-03-04 18:59:50.624,-2.7700,-4.9900,6.7400,8.5000,52.5000,21.6875,-0.2175,-0.2520,0.9283,0.1658,
2025-03-04 18:59:50.634,-3.0700,-5.4600,6.6900,9.8750,48.8125,21.7500,-0.2220,-0.2502,0.9278,0.1654,
2025-03-04 18:59:50.635,-3.1600,-5.5200,6.6900,9.8750,48.8125,21.7500,-0.2261,-0.2483,0.9274,0.1649,
2025-03-04 18:59:50.676,-3.2300,-5.3400,6.7300,13.2500,44.7500,22.1250,-0.2298,-0.2463,0.9272,0.1641,
2025-03-04 18:59:50.676,-3.2100,-4.6200,6.7100,19.8750,38.7500,21.6875,-0.2332,-0.2439,0.9270,0.1635,
2025-03-04 18:59:50.676,-3.2800,-4.3200,6.7300,18.3750,36.8750,19.8125,-0.2365,-0.2413,0.9270,0.1630,
2025-03-04 18:59:50.676,-3.2700,-4.2300,6.7500,12.9375,35.2500,17.3125,-0.2395,-0.2390,0.9269,0.1625,
2025-03-04 18:59:50.683,-3.3200,-4.4000,6.8100,12.9375,35.2500,17.3125,-0.2424,-0.2372,0.9266,0.1622,
2025-03-04 18:59:50.696,-3.5500,-4.9500,6.8100,6.2500,33.9375,15.9375,-0.2453,-0.2358,0.9263,0.1617,
2025-03-04 18:59:50.704,-3.6800,-5.1500,6.7200,-1.3750,31.0000,15.8125,-0.2482,-0.2350,0.9259,0.1612,
2025-03-04 18:59:50.714,-3.7500,-5.1700,6.6700,-0.1875,27.1875,15.6875,-0.2509,-0.2344,0.9254,0.1605,
2025-03-04 18:59:50.724,-3.7100,-4.9500,6.6600,3.0000,23.4375,14.6875,-0.2534,-0.2337,0.9250,0.1599,
2025-03-04 18:59:50.743,-3.6000,-4.7500,6.7000,3.0000,23.4375,14.6875,-0.2555,-0.2328,0.9248,0.1592,
2025-03-04 18:59:50.743,-3.5100,-4.5400,6.6500,5.6250,19.1875,13.4375,-0.2574,-0.2316,0.9245,0.1596,
2025-03-04 18:59:50.754,-3.4400,-4.3800,6.6000,1.4375,14.5000,10.6250,-0.2589,-0.2307,0.9244,0.1591,
2025-03-04 18:59:50.765,-3.5100,-4.1400,6.6200,-3.9375,13.4375,8.6875,-0.2601,-0.2301,0.9243,0.1586,
2025-03-04 18:59:50.774,-3.6900,-4.2300,6.6600,-8.0000,13.5000,6.5625,-0.2614,-0.2300,0.9240,0.1581,
2025-03-04 18:59:50.774,-3.9100,-4.5100,6.6400,-8.0000,13.5000,6.5625,-0.2627,-0.2303,0.9236,0.1576,
2025-03-04 18:59:50.795,-4.0000,-5.0200,6.5200,-9.0625,12.1875,5.4375,-0.2639,-0.2308,0.9232,0.1573,
2025-03-04 18:59:50.805,-3.9300,-4.9800,6.4700,-0.1250,3.1875,6.3750,-0.2648,-0.2310,0.9230,0.1569,
2025-03-04 18:59:50.814,-3.8100,-4.7500,6.6000,6.0625,-2.5625,5.9375,-0.2651,-0.2308,0.9230,0.1564,
2025-03-04 18:59:50.834,-3.6600,-4.5000,6.6800,9.2500,-6.8125,4.1875,-0.2650,-0.2302,0.9233,0.1561,
2025-03-04 18:59:50.834,-3.4300,-4.2300,6.6700,9.2500,-6.8125,4.1875,-0.2644,-0.2295,0.9237,0.1558,
2025-03-04 18:59:50.840,-3.5600,-4.0700,6.6000,9.4375,-8.0625,1.5000,-0.2637,-0.2288,0.9240,0.1557,
2025-03-04 18:59:50.854,-3.8200,-3.9000,6.4800,2.0000,-8.1875,-4.0000,-0.2630,-0.2285,0.9243,0.1558,
2025-03-04 18:59:50.866,-3.9800,-3.8500,6.2900,-2.3750,-11.1875,-7.2500,-0.2623,-0.2285,0.9245,0.1560,
2025-03-04 18:59:50.874,-2.5100,-3.8000,6.4400,-4.5625,-14.1875,-10.1875,-0.2612,-0.2290,0.9246,0.1563,
2025-03-04 18:59:50.883,-0.8900,-4.0700,5.4800,-4.5625,-14.1875,-10.1875,-0.2600,-0.2298,0.9247,0.1567,
2025-03-04 18:59:50.885,-0.9300,-4.2100,6.4600,-5.2500,-16.7500,-9.5625,-0.2586,-0.2307,0.9248,0.1570,
2025-03-04 18:59:50.903,-7.8300,-3.3100,6.1400,-9.4375,-18.2500,-32.6250,-0.2570,-0.2318,0.9250,0.1565,
2025-03-04 18:59:50.916,-8.2200,-5.1200,6.8100,-9.9375,-17.3125,-17.7500,-0.2551,-0.2335,0.9248,0.1585,
2025-03-04 18:59:50.924,-5.2700,-5.1200,6.7100,-11.7500,-29.6250,-17.0625,-0.2535,-0.2349,0.9247,0.1594,
2025-03-04 18:59:50.924,-3.2400,-4.9100,6.6600,-11.7500,-29.6250,-17.0625,-0.2510,-0.2366,0.9249,0.1599,
2025-03-04 18:59:50.976,-3.0400,-4.8900,6.7800,-12.1875,-35.1250,-18.1250,-0.2478,-0.2387,0.9253,0.1594,
2025-03-04 18:59:50.976,-3.0600,-4.9700,6.8500,-12.0000,-34.6875,-18.8750,-0.2449,-0.2405,0.9256,0.1599,
2025-03-04 18:59:50.976,-3.0400,-5.0000,6.8300,-12.5000,-35.7500,-20.2500,-0.2419,-0.2422,0.9258,0.1604,
2025-03-04 18:59:50.976,-3.0500,-4.9700,6.7300,-13.5000,-37.0000,-21.2500,-0.2389,-0.2441,0.9260,0.1610,
2025-03-04 18:59:50.984,-3.1700,-4.9500,6.7600,-13.5000,-37.0000,-21.2500,-0.2358,-0.2461,0.9261,0.1616,
2025-03-04 18:59:50.984,-3.2200,-5.0400,6.7900,-15.3750,-38.7500,-21.3750,-0.2323,-0.2485,0.9264,0.1614,
2025-03-04 18:59:51.004,-3.2500,-5.3700,6.8100,-16.2500,-42.8750,-21.4375,-0.2289,-0.2507,0.9266,0.1619,
2025-03-04 18:59:51.024,-3.1300,-5.4600,6.7800,-13.5625,-47.0000,-21.9375,-0.2253,-0.2530,0.9267,0.1624,
2025-03-04 18:59:51.024,-2.9100,-5.3500,6.8300,-9.8750,-52.3125,-22.6875,-0.2214,-0.2551,0.9270,0.1628,
2025-03-04 18:59:51.024,-2.5700,-5.1700,6.9500,-9.8750,-52.3125,-22.6875,-0.2169,-0.2571,0.9275,0.1633,
2025-03-04 18:59:51.044,-1.6300,-5.0400,6.7400,-5.5625,-57.1250,-25.5000,-0.2120,-0.2587,0.9280,0.1640,
2025-03-04 18:59:51.054,-1.6600,-5.0200,6.7700,-2.4375,-57.3125,-29.6250,-0.2068,-0.2603,0.9286,0.1650,
2025-03-04 18:59:51.064,-1.8700,-4.9700,6.8900,1.3125,-58.6875,-32.0000,-0.2018,-0.2617,0.9291,0.1663,
2025-03-04 18:59:51.074,-2.0500,-5.1700,7.0200,1.9375,-61.1250,-31.8750,-0.1964,-0.2629,0.9296,0.1675,
2025-03-04 18:59:51.086,-2.0700,-5.2500,7.0900,2.3750,-62.7500,-31.8750,-0.1852,-0.2654,0.9308,0.1698,
2025-03-04 18:59:51.104,-2.0000,-5.1200,7.2000,11.1875,-70.8125,-32.6250,-0.1792,-0.2664,0.9315,0.1710,
2025-03-04 18:59:51.114,-1.5900,-4.7700,7.2100,12.2500,-76.2500,-34.8750,-0.1727,-0.2670,0.9323,0.1721,
2025-03-04 18:59:51.133,-1.1900,-4.6700,7.1100,7.5625,-77.4375,-37.9375,-0.1658,-0.2676,0.9332,0.1733,
2025-03-04 18:59:51.133,-1.0100,-4.5800,7.1700,7.5625,-77.4375,-37.9375,-0.1587,-0.2687,0.9339,0.1746,
2025-03-04 18:59:51.144,-1.1000,-4.8900,7.2300,0.3750,-75.1875,-39.3125,-0.1516,-0.2704,0.9344,0.1752,
2025-03-04 18:59:51.158,-1.3100,-5.2500,7.2600,-6.6875,-74.0625,-40.8750,-0.1449,-0.2726,0.9346,0.1766,
2025-03-04 18:59:51.164,-1.4100,-5.5700,7.3700,-13.0000,-76.7500,-42.3750,-0.1382,-0.2751,0.9346,0.1780,
