A1,,,,,,,,,,,
time,accx,accy,accz,gyrox,gyroy,gyroz,w1,w2,w3,w4,
2025-03-06 20:37:43.885,9.8200,0.6200,0.8500,1.3125,0.0625,0.3125,-0.6332,0.2205,-0.6847,-0.2857,
2025-03-06 20:37:43.885,9.8000,0.6000,0.8400,0.5000,0.0000,0.1250,-0.6332,0.2205,-0.6847,-0.2857,
2025-03-06 20:37:43.890,9.8100,0.6200,0.9300,-0.5625,-0.2500,0.0625,-0.6332,0.2205,-0.6847,-0.2857,
2025-03-06 20:37:43.927,9.8000,0.5500,1.0100,-2.1250,-0.1250,-0.3750,-0.6332,0.2205,-0.6847,-0.2857,
2025-03-06 20:37:43.927,9.8000,0.5100,1.0300,-3.1250,0.0625,-0.6875,-0.6332,0.2206,-0.6846,-0.2858,
2025-03-06 20:37:43.929,9.7800,0.4600,1.0000,-3.4375,0.5000,-0.7500,-0.6330,0.2209,-0.6845,-0.2862,
2025-03-06 20:37:43.932,9.7800,0.3900,0.9700,-3.3750,0.4375,-1.0000,-0.6330,0.2210,-0.6844,-0.2865,
2025-03-06 20:37:43.933,9.7800,0.3600,1.0400,-2.8750,0.1250,-1.1875,-0.6329,0.2211,-0.6843,-0.2867,
2025-03-06 20:37:43.943,9.7700,0.3600,1.0500,-2.4375,-0.2500,-1.2500,-0.6329,0.2211,-0.6843,-0.2867,
2025-03-06 20:37:43.957,9.7700,0.3500,1.0700,-1.8750,-0.1250,-1.3750,-0.6329,0.2212,-0.6843,-0.2869,
2025-03-06 20:37:43.968,9.7700,0.3300,1.1200,-1.4375,-0.2500,-1.3750,-0.6328,0.2213,-0.6841,-0.2872,
2025-03-06 20:37:43.974,9.7200,0.3400,1.0900,-1.1250,-0.1875,-1.3125,-0.6328,0.2214,-0.6842,-0.2873,
2025-03-06 20:37:43.982,9.6900,0.3600,1.0700,-0.8125,0.1250,-1.1875,-0.6327,0.2214,-0.6842,-0.2873,
2025-03-06 20:37:43.992,9.6500,0.4100,1.0400,-0.1875,-0.1875,-0.8750,-0.6326,0.2214,-0.6842,-0.2874,
2025-03-06 20:37:44.003,9.6900,0.4500,1.0200,0.5000,-0.3750,-0.6250,-0.6326,0.2214,-0.6842,-0.2874,
2025-03-06 20:37:44.017,9.6700,0.4700,1.0200,1.1875,-0.5000,-0.5000,-0.6326,0.2214,-0.6843,-0.2873,
2025-03-06 20:37:44.023,9.6700,0.4300,1.0600,1.7500,-0.4375,-0.4375,-0.6326,0.2214,-0.6843,-0.2873,
2025-03-06 20:37:44.032,9.7300,0.3900,1.0300,2.0625,-0.1875,-0.1875,-0.6327,0.2213,-0.6843,-0.2872,
2025-03-06 20:37:44.042,9.7600,0.3600,1.0200,2.2500,0.3125,-0.1875,-0.6327,0.2212,-0.6844,-0.2870,
2025-03-06 20:37:44.053,9.7600,0.3800,1.0100,2.6875,0.1875,-0.3750,-0.6327,0.2211,-0.6845,-0.2869,
2025-03-06 20:37:44.066,9.7600,0.4300,0.9600,3.4375,0.0000,-0.1875,-0.6328,0.2211,-0.6845,-0.2867,
2025-03-06 20:37:44.076,9.7900,0.4800,1.0000,4.3125,-0.4375,-0.2500,-0.6328,0.2209,-0.6846,-0.2864,
2025-03-06 20:37:44.085,9.7700,0.5000,0.9900,4.9375,-1.0000,-0.0625,-0.6329,0.2206,-0.6847,-0.2862,
2025-03-06 20:37:44.094,9.7800,0.5400,1.0300,5.0000,-0.9375,-0.1250,-0.6331,0.2204,-0.6847,-0.2859,
2025-03-06 20:37:44.107,9.7600,0.5700,0.9600,4.6875,-0.7500,-0.3750,-0.6332,0.2202,-0.6848,-0.2856,
2025-03-06 20:37:44.107,9.7300,0.6100,0.9300,4.2500,-0.6250,-0.5000,-0.6334,0.2199,-0.6848,-0.2853,
2025-03-06 20:37:44.120,9.7500,0.6300,0.8900,3.3750,-0.6250,-0.6875,-0.6336,0.2197,-0.6849,-0.2851,
2025-03-06 20:37:44.128,9.7900,0.6500,0.8300,2.6875,-0.7500,-0.6875,-0.6337,0.2195,-0.6849,-0.2849,
2025-03-06 20:37:44.139,9.7800,0.6800,0.8200,2.1250,-1.2500,-0.6875,-0.6338,0.2193,-0.6849,-0.2848,
2025-03-06 20:37:44.153,9.7700,0.6600,0.8500,1.8125,-1.5000,-0.6875,-0.6340,0.2192,-0.6848,-0.2847,
2025-03-06 20:37:44.171,9.7400,0.6600,0.8800,1.1875,-1.8750,-0.8125,-0.6341,0.2191,-0.6847,-0.2846,
2025-03-06 20:37:44.171,9.6800,0.6000,0.9600,-0.1250,-1.9375,-1.0625,-0.6343,0.2190,-0.6846,-0.2846,
2025-03-06 20:37:44.180,9.6800,0.5900,0.9700,-1.5625,-1.8750,-1.5000,-0.6345,0.2189,-0.6845,-0.2846,
2025-03-06 20:37:44.190,9.6900,0.5500,0.9600,-2.8125,-1.6250,-1.6875,-0.6346,0.2190,-0.6843,-0.2847,
2025-03-06 20:37:44.212,9.7100,0.5200,0.9200,-3.4375,-1.1250,-1.8750,-0.6346,0.2191,-0.6841,-0.2850,
2025-03-06 20:37:44.212,9.7600,0.4400,0.8200,-3.2500,-1.1250,-1.7500,-0.6346,0.2192,-0.6840,-0.2852,
2025-03-06 20:37:44.221,9.7900,0.4000,0.8400,-2.8750,-1.5000,-1.5625,-0.6347,0.2194,-0.6838,-0.2855,
2025-03-06 20:37:44.232,9.8100,0.3600,0.8600,-2.5000,-1.5625,-1.2500,-0.6347,0.2195,-0.6836,-0.2857,
2025-03-06 20:37:44.242,9.8200,0.3700,0.9100,-2.0000,-1.3750,-0.9375,-0.6348,0.2197,-0.6835,-0.2858,
2025-03-06 20:37:44.252,9.8400,0.3600,0.9300,-1.5625,-1.0000,-0.5000,-0.6348,0.2199,-0.6833,-0.2859,
2025-03-06 20:37:44.263,9.8400,0.3500,0.9700,-1.1875,-0.6875,0.0000,-0.6348,0.2201,-0.6832,-0.2859,
2025-03-06 20:37:44.272,9.7900,0.3300,1.0000,-0.6875,-0.3750,0.2500,-0.6348,0.2202,-0.6832,-0.2859,
2025-03-06 20:37:44.282,9.7700,0.3200,0.9800,0.5000,-0.1250,0.7500,-0.6348,0.2203,-0.6832,-0.2858,
2025-03-06 20:37:44.295,9.7400,0.2900,0.9400,1.5000,0.1875,1.0000,-0.6347,0.2205,-0.6833,-0.2857,
2025-03-06 20:37:44.304,9.7800,0.2400,0.9100,2.4375,0.1250,1.1250,-0.6347,0.2205,-0.6834,-0.2855,
2025-03-06 20:37:44.313,9.8500,0.2900,0.8400,3.5625,0.1250,1.0625,-0.6347,0.2206,-0.6835,-0.2852,
2025-03-06 20:37:44.319,9.8600,0.3300,0.8500,4.4375,-0.0625,1.1875,-0.6348,0.2206,-0.6836,-0.2848,
2025-03-06 20:37:44.324,9.8600,0.3700,0.8400,5.3125,-0.1250,1.1875,-0.6348,0.2205,-0.6837,-0.2844,
2025-03-06 20:37:44.334,9.8300,0.4200,0.8600,6.0625,-0.5000,1.3125,-0.6349,0.2203,-0.6839,-0.2839,
2025-03-06 20:37:44.344,9.7700,0.5300,0.8300,6.7500,-0.4375,1.3125,-0.6351,0.2201,-0.6840,-0.2835,
2025-03-06 20:37:44.364,9.7300,0.5300,0.8200,6.8750,-0.2500,1.2500,-0.6352,0.2198,-0.6842,-0.2830,
2025-03-06 20:37:44.374,9.7100,0.5500,0.8500,6.3750,-0.0625,1.0000,-0.6354,0.2195,-0.6843,-0.2826,
2025-03-06 20:37:44.374,9.7900,0.5400,0.8400,5.5000,-0.1250,0.6250,-0.6355,0.2192,-0.6845,-0.2822,
2025-03-06 20:37:44.384,9.8300,0.5400,0.8300,5.0625,-0.3750,0.3125,-0.6356,0.2189,-0.6846,-0.2818,
2025-03-06 20:37:44.395,9.8500,0.5500,0.8100,4.7500,-0.3125,-0.0625,-0.6358,0.2186,-0.6846,-0.2815,
2025-03-06 20:37:44.406,9.8800,0.5300,0.8000,4.6875,-0.7500,-0.4375,-0.6359,0.2184,-0.6847,-0.2813,
2025-03-06 20:37:44.419,9.8900,0.5400,0.8300,4.8750,-0.9375,-0.3750,-0.6361,0.2181,-0.6847,-0.2810,
2025-03-06 20:37:44.435,9.8900,0.5200,0.8700,4.6875,-0.8125,-0.6250,-0.6363,0.2179,-0.6847,-0.2807,
2025-03-06 20:37:44.435,9.8500,0.5100,0.8900,4.3125,-0.6875,-0.8750,-0.6365,0.2176,-0.6848,-0.2804,
2025-03-06 20:37:44.446,9.7800,0.4900,0.8400,4.1250,-0.6250,-1.1250,-0.6366,0.2173,-0.6848,-0.2802,
2025-03-06 20:37:44.456,9.7700,0.5300,0.8300,3.8750,-0.5000,-1.2500,-0.6368,0.2170,-0.6848,-0.2800,
2025-03-06 20:37:44.475,9.7800,0.5300,0.8200,3.9375,-0.4375,-1.2500,-0.6369,0.2167,-0.6849,-0.2799,
2025-03-06 20:37:44.475,9.7800,0.5400,0.8200,3.9375,-0.6250,-1.1250,-0.6370,0.2165,-0.6849,-0.2797,
2025-03-06 20:37:44.491,9.8000,0.5300,0.8400,3.9375,-0.7500,-1.0000,-0.6372,0.2162,-0.6849,-0.2796,
2025-03-06 20:37:44.516,9.7800,0.5700,0.8500,3.9375,-0.6875,-0.8125,-0.6373,0.2159,-0.6849,-0.2794,
2025-03-06 20:37:44.516,9.7400,0.5500,0.8900,3.8750,-0.8750,-0.5625,-0.6375,0.2157,-0.6849,-0.2792,
2025-03-06 20:37:44.526,9.6900,0.5000,0.9000,3.6875,-0.4375,-0.5000,-0.6376,0.2155,-0.6849,-0.2790,
2025-03-06 20:37:44.526,9.6600,0.4600,0.9200,3.3125,-0.2500,-0.5000,-0.6377,0.2153,-0.6850,-0.2788,
2025-03-06 20:37:44.536,9.6900,0.4300,0.8700,3.1875,0.1250,-0.3125,-0.6378,0.2151,-0.6851,-0.2786,
2025-03-06 20:37:44.546,9.7400,0.4100,0.8200,3.4375,0.0000,-0.3125,-0.6379,0.2150,-0.6851,-0.2784,
2025-03-06 20:37:44.556,9.7900,0.4700,0.7300,4.1250,-0.3125,-0.3125,-0.6380,0.2148,-0.6852,-0.2782,
2025-03-06 20:37:44.566,9.7900,0.5500,0.7200,5.1875,-0.4375,-0.0625,-0.6381,0.2145,-0.6853,-0.2780,
2025-03-06 20:37:44.576,9.8400,0.6200,0.7400,5.6875,-0.8125,-0.2500,-0.6382,0.2143,-0.6853,-0.2776,
2025-03-06 20:37:44.586,9.8800,0.6900,0.8300,5.3750,-1.0625,-0.4375,-0.6384,0.2140,-0.6854,-0.2773,
2025-03-06 20:37:44.607,9.8900,0.7100,0.8600,4.3125,-0.8750,-0.7500,-0.6387,0.2137,-0.6854,-0.2770,
2025-03-06 20:37:44.617,9.8800,0.6800,0.8400,2.6875,-0.8750,-1.0000,-0.6389,0.2134,-0.6854,-0.2767,
2025-03-06 20:37:44.620,9.8600,0.6400,0.8600,1.2500,-0.3750,-1.5625,-0.6390,0.2133,-0.6853,-0.2767,
2025-03-06 20:37:44.627,9.8500,0.5700,0.8900,0.3125,-0.1875,-1.8750,-0.6391,0.2131,-0.6853,-0.2767,
2025-03-06 20:37:44.637,9.8400,0.5500,0.8200,-0.3125,-0.1250,-2.0000,-0.6391,0.2130,-0.6853,-0.2768,
2025-03-06 20:37:44.647,9.8000,0.5100,0.8000,-0.3750,-0.3125,-2.3125,-0.6391,0.2129,-0.6852,-0.2769,
2025-03-06 20:37:44.658,9.7700,0.4900,0.7600,-0.2500,-0.5625,-2.2500,-0.6392,0.2128,-0.6852,-0.2770,
2025-03-06 20:37:44.668,9.7500,0.5000,0.7800,0.0625,-0.9375,-2.2500,-0.6392,0.2126,-0.6851,-0.2772,
2025-03-06 20:37:44.678,9.7200,0.5000,0.8200,0.1875,-0.9375,-2.5000,-0.6393,0.2126,-0.6850,-0.2772,
2025-03-06 20:37:44.688,9.6900,0.4600,0.9000,0.1875,-0.8750,-2.5625,-0.6394,0.2125,-0.6849,-0.2774,
2025-03-06 20:37:44.698,9.6600,0.4200,0.9200,0.0000,-0.6875,-2.6250,-0.6395,0.2124,-0.6848,-0.2775,
2025-03-06 20:37:44.708,9.7100,0.3800,0.9000,0.0625,-0.5625,-2.7500,-0.6396,0.2123,-0.6847,-0.2776,
2025-03-06 20:37:44.722,9.7000,0.3900,0.8900,0.7500,-0.3125,-2.5625,-0.6396,0.2122,-0.6846,-0.2776,
2025-03-06 20:37:44.735,9.7900,0.4300,0.8200,1.5625,-0.3125,-2.1875,-0.6397,0.2121,-0.6846,-0.2777,
2025-03-06 20:37:44.739,9.8000,0.4500,0.8000,2.7500,-0.3750,-1.8125,-0.6398,0.2119,-0.6846,-0.2777,
2025-03-06 20:37:44.749,9.8400,0.4500,0.7800,3.8125,-0.6250,-1.3125,-0.6398,0.2117,-0.6846,-0.2776,
2025-03-06 20:37:44.759,9.8500,0.5000,0.8000,4.4375,-0.8750,-0.7500,-0.6400,0.2115,-0.6846,-0.2774,
2025-03-06 20:37:44.770,9.8600,0.5500,0.8400,4.5625,-0.6250,-0.6875,-0.6402,0.2113,-0.6846,-0.2772,
2025-03-06 20:37:44.783,9.8500,0.5600,0.8700,4.3125,-0.5000,-0.4375,-0.6403,0.2110,-0.6847,-0.2769,
2025-03-06 20:37:44.789,9.8300,0.5800,0.8800,3.9375,-0.5000,-0.1875,-0.6404,0.2108,-0.6847,-0.2767,
2025-03-06 20:37:44.809,9.8600,0.5600,0.8800,3.7500,-0.3125,-0.1250,-0.6405,0.2106,-0.6848,-0.2764,
2025-03-06 20:37:44.809,9.8700,0.5900,0.8500,4.0625,0.0000,0.3125,-0.6406,0.2104,-0.6849,-0.2762,
2025-03-06 20:37:44.821,9.8500,0.6300,0.8600,4.3125,0.0000,0.4375,-0.6407,0.2101,-0.6850,-0.2760,
2025-03-06 20:37:44.831,9.8500,0.6500,0.8500,4.6875,0.0625,0.5625,-0.6408,0.2099,-0.6850,-0.2758,
2025-03-06 20:37:44.840,9.8000,0.6800,0.8800,5.0625,0.1250,0.5000,-0.6409,0.2096,-0.6851,-0.2755,
2025-03-06 20:37:44.850,9.7800,0.6700,0.8900,4.8750,0.2500,0.6250,-0.6411,0.2094,-0.6852,-0.2752,
2025-03-06 20:37:44.860,9.7600,0.6900,0.8600,4.6875,0.5000,0.4375,-0.6412,0.2090,-0.6853,-0.2749,
2025-03-06 20:37:44.875,9.7700,0.7100,0.8600,4.4375,0.5625,0.5000,-0.6413,0.2088,-0.6854,-0.2747,
2025-03-06 20:37:44.882,9.7600,0.7200,0.8300,4.1875,0.9375,0.2500,-0.6413,0.2086,-0.6855,-0.2744,
2025-03-06 20:37:44.892,9.8000,0.7300,0.8000,3.8750,0.8750,0.3125,-0.6414,0.2082,-0.6856,-0.2742,
2025-03-06 20:37:44.902,9.8000,0.7400,0.7800,3.3750,0.9375,0.0000,-0.6415,0.2080,-0.6857,-0.2740,
2025-03-06 20:37:44.912,9.8000,0.7400,0.7600,2.6875,0.8750,-0.0625,-0.6415,0.2078,-0.6858,-0.2739,
2025-03-06 20:37:44.922,9.7700,0.7100,0.7900,2.3125,0.8125,-0.1250,-0.6415,0.2076,-0.6859,-0.2737,
2025-03-06 20:37:44.932,9.7800,0.6700,0.8400,1.6875,0.8750,-0.0625,-0.6416,0.2075,-0.6859,-0.2736,
2025-03-06 20:37:44.943,9.7900,0.6200,0.8900,0.9375,0.8125,-0.5000,-0.6415,0.2073,-0.6860,-0.2736,
2025-03-06 20:37:44.953,9.7700,0.6000,0.9000,0.7500,0.8125,-0.3750,-0.6415,0.2073,-0.6861,-0.2735,
2025-03-06 20:37:44.963,9.7900,0.6100,0.8700,0.8125,0.6875,-0.5000,-0.6415,0.2072,-0.6861,-0.2735,
2025-03-06 20:37:44.963,9.7800,0.6300,0.8700,0.8125,0.6250,-0.3125,-0.6415,0.2072,-0.6862,-0.2734,
2025-03-06 20:37:44.974,9.8100,0.6400,0.8500,1.0625,0.8750,-0.5000,-0.6415,0.2071,-0.6862,-0.2734,
2025-03-06 20:37:44.994,9.7800,0.6400,0.8700,1.5000,0.6250,-0.4375,-0.6414,0.2070,-0.6863,-0.2734,
2025-03-06 20:37:44.994,9.7500,0.6200,0.8900,1.4375,0.8750,-0.4375,-0.6414,0.2069,-0.6863,-0.2733,
2025-03-06 20:37:45.004,9.7600,0.5600,0.9200,0.7500,0.8125,-0.4375,-0.6414,0.2068,-0.6864,-0.2733,
2025-03-06 20:37:45.021,9.7700,0.5600,0.9800,-0.0625,0.8125,-0.6875,-0.6414,0.2067,-0.6865,-0.2732,
2025-03-06 20:37:45.035,9.7700,0.5400,0.9900,-0.2500,0.7500,-0.5625,-0.6413,0.2067,-0.6865,-0.2732,
2025-03-06 20:37:45.035,9.7700,0.5400,0.9300,0.0000,0.6875,-0.5625,-0.6413,0.2067,-0.6866,-0.2732,
2025-03-06 20:37:45.050,9.7100,0.5900,0.8700,0.8125,0.6250,-0.4375,-0.6412,0.2067,-0.6866,-0.2732,
2025-03-06 20:37:45.056,9.6900,0.6100,0.8400,1.8750,0.3125,-0.4375,-0.6412,0.2066,-0.6867,-0.2732,
2025-03-06 20:37:45.066,9.7200,0.6300,0.8400,2.6250,0.2500,-0.3125,-0.6412,0.2065,-0.6867,-0.2731,
2025-03-06 20:37:45.076,9.7400,0.6000,0.8800,2.0625,0.3125,-0.4375,-0.6413,0.2064,-0.6868,-0.2729,
2025-03-06 20:37:45.096,9.7700,0.6100,0.8600,1.2500,0.1875,-0.6250,-0.6414,0.2062,-0.6868,-0.2728,
2025-03-06 20:37:45.119,9.7800,0.5900,0.8700,0.3750,0.2500,-0.6250,-0.6414,0.2061,-0.6868,-0.2728,
2025-03-06 20:37:45.122,9.7800,0.5800,0.8500,-0.0625,0.1250,-0.8125,-0.6414,0.2061,-0.6868,-0.2728,
2025-03-06 20:37:45.122,9.7900,0.5600,0.8300,0.1875,-0.1875,-0.7500,-0.6414,0.2061,-0.6868,-0.2729,
2025-03-06 20:37:45.127,9.8100,0.5400,0.8200,0.8125,-0.3125,-0.8125,-0.6415,0.2061,-0.6867,-0.2729,
2025-03-06 20:37:45.139,9.7600,0.5700,0.8200,1.1875,-0.6250,-0.6875,-0.6415,0.2059,-0.6867,-0.2729,
2025-03-06 20:37:45.148,9.7700,0.6100,0.8500,1.1875,-0.6875,-0.5625,-0.6415,0.2059,-0.6867,-0.2729,
2025-03-06 20:37:45.168,9.7500,0.6000,0.8300,1.0625,-0.7500,-0.5000,-0.6417,0.2058,-0.6867,-0.2728,
2025-03-06 20:37:45.188,9.7500,0.5600,0.8200,0.6875,-0.6250,-0.5625,-0.6417,0.2058,-0.6866,-0.2727,
2025-03-06 20:37:45.188,9.7700,0.5600,0.8600,0.3750,-0.5000,-0.6875,-0.6418,0.2057,-0.6866,-0.2726,
2025-03-06 20:37:45.188,9.7800,0.5500,0.8600,0.1875,-0.5000,-0.1875,-0.6418,0.2058,-0.6866,-0.2727,
2025-03-06 20:37:45.198,9.8000,0.5600,0.8700,0.1250,-0.5000,-0.0625,-0.6418,0.2058,-0.6866,-0.2727,
2025-03-06 20:37:45.220,9.7900,0.5700,0.8800,0.1875,-0.5000,-0.1250,-0.6418,0.2058,-0.6866,-0.2727,
2025-03-06 20:37:45.222,9.7700,0.5900,0.8500,0.5625,-0.5625,0.1250,-0.6418,0.2058,-0.6866,-0.2726,
2025-03-06 20:37:45.229,9.7500,0.5800,0.8500,0.8750,-0.3750,0.0625,-0.6418,0.2058,-0.6866,-0.2726,
2025-03-06 20:37:45.247,9.7800,0.5800,0.8100,0.8750,-0.4375,0.2500,-0.6418,0.2057,-0.6866,-0.2726,
2025-03-06 20:37:45.260,9.7800,0.5400,0.8400,1.0000,-0.5625,0.3125,-0.6418,0.2057,-0.6866,-0.2725,
2025-03-06 20:37:45.260,9.7800,0.5500,0.7900,0.7500,-0.3125,0.2500,-0.6418,0.2057,-0.6866,-0.2725,
2025-03-06 20:37:45.270,9.7500,0.5700,0.7800,0.6250,-0.1250,0.3125,-0.6419,0.2056,-0.6866,-0.2724,
2025-03-06 20:37:45.280,9.7900,0.5700,0.7600,0.6875,-0.4375,0.2500,-0.6419,0.2056,-0.6867,-0.2723,
2025-03-06 20:37:45.293,9.8100,0.6200,0.7800,1.0000,-0.6875,0.1250,-0.6419,0.2056,-0.6867,-0.2723,
2025-03-06 20:37:45.300,9.8100,0.6000,0.8400,1.0625,-0.9375,0.3125,-0.6420,0.2056,-0.6866,-0.2722,
2025-03-06 20:37:45.310,9.7800,0.6100,0.8600,0.7500,-0.6875,0.3125,-0.6421,0.2056,-0.6866,-0.2721,
2025-03-06 20:37:45.322,9.7500,0.6000,0.8700,0.3125,-0.5000,0.1875,-0.6421,0.2055,-0.6866,-0.2721,
2025-03-06 20:37:45.332,9.7700,0.5700,0.8300,-0.0625,-0.5000,0.1250,-0.6422,0.2055,-0.6866,-0.2720,
2025-03-06 20:37:45.343,9.7800,0.5300,0.7800,-0.1250,-0.2500,0.2500,-0.6422,0.2055,-0.6866,-0.2720,
2025-03-06 20:37:45.352,9.7700,0.5300,0.7500,-0.1250,-0.1250,0.0625,-0.6421,0.2056,-0.6866,-0.2720,
2025-03-06 20:37:45.364,9.8100,0.5200,0.7200,0.0000,-0.3750,0.1250,-0.6422,0.2056,-0.6865,-0.2720,
2025-03-06 20:37:45.372,9.8000,0.5300,0.7600,0.3750,-0.5000,0.2500,-0.6422,0.2056,-0.6865,-0.2720,
2025-03-06 20:37:45.382,9.8100,0.5400,0.7800,0.5625,-0.8125,0.2500,-0.6422,0.2056,-0.6865,-0.2720,
2025-03-06 20:37:45.392,9.7800,0.5400,0.8200,0.6250,-0.6875,0.3750,-0.6423,0.2057,-0.6865,-0.2719,
2025-03-06 20:37:45.412,9.7700,0.5200,0.8200,0.2500,-0.6875,0.3750,-0.6423,0.2057,-0.6865,-0.2718,
2025-03-06 20:37:45.412,9.7600,0.5200,0.7900,-0.3125,-0.5625,0.2500,-0.6424,0.2057,-0.6864,-0.2718,
2025-03-06 20:37:45.422,9.7700,0.5400,0.8000,-0.5625,-0.5625,0.2500,-0.6424,0.2057,-0.6864,-0.2718,
2025-03-06 20:37:45.442,9.7900,0.4800,0.8100,-0.3125,-0.6875,0.2500,-0.6424,0.2057,-0.6864,-0.2718,
2025-03-06 20:37:45.442,9.8000,0.4800,0.8400,0.4375,-0.7500,0.0625,-0.6425,0.2058,-0.6863,-0.2717,
2025-03-06 20:37:45.453,9.8100,0.5000,0.8600,1.0625,-0.7500,0.1250,-0.6425,0.2059,-0.6863,-0.2717,
2025-03-06 20:37:45.463,9.8000,0.4900,0.8400,1.5000,-0.9375,0.0625,-0.6425,0.2058,-0.6863,-0.2716,
2025-03-06 20:37:45.473,9.8200,0.4800,0.8200,1.2500,-0.6875,0.1875,-0.6426,0.2058,-0.6863,-0.2715,
2025-03-06 20:37:45.483,9.7800,0.4600,0.8000,1.4375,-0.3125,0.1250,-0.6427,0.2057,-0.6863,-0.2714,
2025-03-06 20:37:45.493,9.7700,0.4700,0.7700,1.7500,-0.0625,0.1250,-0.6428,0.2057,-0.6863,-0.2712,
2025-03-06 20:37:45.503,9.8100,0.4800,0.7600,1.8125,-0.4375,0.1250,-0.6428,0.2057,-0.6863,-0.2711,
2025-03-06 20:37:45.513,9.8400,0.5400,0.7400,2.0625,-0.9375,0.1875,-0.6428,0.2056,-0.6863,-0.2710,
2025-03-06 20:37:45.523,9.8100,0.5600,0.7800,2.7500,-0.9375,0.4375,-0.6429,0.2056,-0.6863,-0.2708,
2025-03-06 20:37:45.533,9.7900,0.5600,0.8100,3.3125,-0.9375,0.3750,-0.6431,0.2054,-0.6863,-0.2706,
2025-03-06 20:37:45.543,9.7500,0.5600,0.8900,3.2500,-1.1875,0.3750,-0.6432,0.2053,-0.6863,-0.2704,
2025-03-06 20:37:45.543,9.7500,0.5900,0.9000,2.6875,-0.7500,0.4375,-0.6434,0.2051,-0.6863,-0.2702,
2025-03-06 20:37:45.563,9.7700,0.6200,0.8500,2.0625,-0.4375,0.5000,-0.6434,0.2050,-0.6863,-0.2700,
2025-03-06 20:37:45.573,9.7800,0.5800,0.8200,1.6875,-0.3750,0.4375,-0.6435,0.2049,-0.6863,-0.2699,
2025-03-06 20:37:45.583,9.7700,0.5700,0.7800,1.5625,-0.5000,0.5625,-0.6435,0.2048,-0.6864,-0.2698,
2025-03-06 20:37:45.593,9.7700,0.5500,0.7700,2.0625,-0.4375,0.4375,-0.6436,0.2047,-0.6864,-0.2697,
2025-03-06 20:37:45.603,9.7600,0.5100,0.8100,2.6875,-0.6250,0.4375,-0.6436,0.2046,-0.6865,-0.2696,
2025-03-06 20:37:45.613,9.7900,0.4700,0.7900,2.5625,-0.6875,0.6875,-0.6437,0.2045,-0.6864,-0.2695,
2025-03-06 20:37:45.623,9.7800,0.4800,0.8000,2.5625,-0.4375,0.7500,-0.6438,0.2044,-0.6865,-0.2692,
2025-03-06 20:37:45.633,9.7800,0.4700,0.8000,2.6250,-0.3125,0.7500,-0.6439,0.2043,-0.6865,-0.2690,
2025-03-06 20:37:45.643,9.7600,0.4700,0.7800,2.7500,-0.4375,0.8750,-0.6439,0.2042,-0.6866,-0.2688,
2025-03-06 20:37:45.653,9.7800,0.4800,0.7600,2.8750,-0.5000,1.0000,-0.6440,0.2042,-0.6866,-0.2686,
2025-03-06 20:37:45.663,9.8100,0.4600,0.7500,3.2500,-0.3750,1.0625,-0.6440,0.2040,-0.6867,-0.2683,
2025-03-06 20:37:45.673,9.7900,0.4900,0.7500,3.3750,-0.4375,1.3750,-0.6441,0.2040,-0.6868,-0.2681,
2025-03-06 20:37:45.683,9.8000,0.5700,0.7800,3.3750,-0.5000,1.3125,-0.6442,0.2039,-0.6869,-0.2678,
2025-03-06 20:37:45.693,9.8400,0.6000,0.8100,2.4375,-0.5625,1.1250,-0.6442,0.2038,-0.6870,-0.2675,
2025-03-06 20:37:45.713,9.8300,0.6100,0.7900,2.4375,-0.5625,1.1250,-0.6442,0.2037,-0.6871,-0.2673,
2025-03-06 20:37:45.713,9.8400,0.6000,0.7800,2.6250,-0.5625,0.9375,-0.6443,0.2036,-0.6871,-0.2670,
2025-03-06 20:37:45.723,9.8300,0.5200,0.8300,2.7500,-0.4375,0.6875,-0.6443,0.2035,-0.6872,-0.2668,
2025-03-06 20:37:45.733,9.8300,0.5000,0.8300,2.3750,-0.5000,0.6250,-0.6444,0.2034,-0.6872,-0.2667,
2025-03-06 20:37:45.733,9.8100,0.4600,0.8400,3.3750,0.1875,0.5000,-0.6444,0.2033,-0.6873,-0.2665,
2025-03-06 20:37:45.743,9.7800,0.4500,0.7500,3.3750,0.1875,0.5000,-0.6445,0.2031,-0.6874,-0.2662,
2025-03-06 20:37:45.762,9.7600,0.4400,0.7000,4.5625,0.3125,0.7500,-0.6446,0.2030,-0.6874,-0.2661,
2025-03-06 20:37:45.765,9.7600,0.4700,0.7000,6.8125,0.3125,0.8750,-0.6447,0.2028,-0.6875,-0.2658,
2025-03-06 20:37:45.785,9.7900,0.5000,0.7200,7.1875,0.3750,0.9375,-0.6448,0.2024,-0.6876,-0.2653,
2025-03-06 20:37:45.785,9.8800,0.4900,0.8300,7.1250,0.3750,0.9375,-0.6449,0.2020,-0.6878,-0.2649,
2025-03-06 20:37:45.794,9.8900,0.4600,0.8600,7.1250,0.3750,0.9375,-0.6451,0.2017,-0.6879,-0.2645,
2025-03-06 20:37:45.814,9.9100,0.4600,0.8600,6.5000,0.8125,0.9375,-0.6453,0.2013,-0.6881,-0.2640,
2025-03-06 20:37:45.823,9.8900,0.4200,0.8800,5.8125,1.6250,0.8750,-0.6453,0.2010,-0.6882,-0.2636,
2025-03-06 20:37:45.832,9.8900,0.4100,0.8400,6.3750,1.4375,0.8750,-0.6453,0.2006,-0.6885,-0.2632,
2025-03-06 20:37:45.834,9.8500,0.3700,0.8700,7.1875,1.4375,0.6250,-0.6454,0.2003,-0.6887,-0.2629,
2025-03-06 20:37:45.844,9.8500,0.3200,0.9200,8.0000,1.4375,0.6250,-0.6454,0.1998,-0.6889,-0.2625,
2025-03-06 20:37:45.854,9.8100,0.2400,1.0100,9.1875,1.5625,0.8750,-0.6455,0.1994,-0.6891,-0.2620,
2025-03-06 20:37:45.869,9.8300,0.1600,1.0400,10.8125,1.8750,1.1250,-0.6456,0.1990,-0.6894,-0.2614,
2025-03-06 20:37:45.885,9.8900,0.1400,1.0700,12.9375,2.0625,1.2500,-0.6456,0.1985,-0.6899,-0.2606,
2025-03-06 20:37:45.885,9.9600,0.1600,1.0600,14.4375,2.4375,1.0000,-0.6456,0.1980,-0.6904,-0.2597,
2025-03-06 20:37:45.905,9.9600,0.1900,1.0900,14.2500,2.7500,0.6875,-0.6455,0.1974,-0.6909,-0.2587,
2025-03-06 20:37:45.905,9.9900,0.1900,1.1600,12.8750,3.8125,-0.1875,-0.6455,0.1967,-0.6915,-0.2577,
2025-03-06 20:37:45.925,9.9600,0.0700,1.1500,12.2500,5.4375,-0.5000,-0.6454,0.1960,-0.6921,-0.2570,
2025-03-06 20:37:45.936,9.8700,-0.1900,1.2800,12.8750,6.5000,-0.3750,-0.6451,0.1955,-0.6928,-0.2562,
2025-03-06 20:37:45.936,9.8600,-0.5200,1.3500,16.6875,8.0000,0.5000,-0.6446,0.1950,-0.6937,-0.2552,
2025-03-06 20:37:45.945,9.8300,-0.8500,1.4300,23.8125,9.5625,2.7500,-0.6445,0.1938,-0.6945,-0.2545,
2025-03-06 20:37:45.956,9.7900,-1.2700,1.4900,32.4375,9.5625,5.8750,-0.6444,0.1924,-0.6954,-0.2532,
2025-03-06 20:37:45.966,9.7800,-1.2000,1.4400,39.5000,8.8750,8.7500,-0.6445,0.1906,-0.6966,-0.2512,
2025-03-06 20:37:45.976,9.7400,-0.8800,1.4000,44.0000,9.4375,10.6875,-0.6447,0.1885,-0.6979,-0.2487,
2025-03-06 20:37:45.986,9.7200,-0.5600,1.2500,46.0625,9.8125,12.0000,-0.6448,0.1863,-0.6993,-0.2458,
2025-03-06 20:37:46.016,9.6900,-0.0600,0.9100,47.2500,10.4375,12.9375,-0.6450,0.1841,-0.7008,-0.2428,
2025-03-06 20:37:46.016,9.6700,-0.0200,0.8000,47.2500,11.6250,13.7500,-0.6451,0.1818,-0.7024,-0.2396,
2025-03-06 20:37:46.016,9.6900,-0.0300,0.8400,46.0000,12.3750,15.4375,-0.6451,0.1795,-0.7040,-0.2364,
2025-03-06 20:37:46.026,9.7100,-0.0300,1.0800,42.7500,13.1875,17.6250,-0.6451,0.1774,-0.7057,-0.2332,
2025-03-06 20:37:46.046,9.8200,0.0000,1.2000,38.3125,13.4375,20.3750,-0.6449,0.1755,-0.7074,-0.2300,
2025-03-06 20:37:46.046,9.8900,-0.1400,1.2700,34.8125,14.4375,23.1250,-0.6444,0.1746,-0.7089,-0.2274,
2025-03-06 20:37:46.056,9.9500,-0.3700,1.3000,34.1250,16.1250,26.2500,-0.6438,0.1735,-0.7107,-0.2243,
2025-03-06 20:37:46.066,9.9700,-0.7600,1.2500,35.6875,18.0625,29.5000,-0.6431,0.1726,-0.7125,-0.2211,
2025-03-06 20:37:46.086,9.9700,-0.7700,1.2800,36.5000,19.2500,31.8125,-0.6423,0.1716,-0.7146,-0.2177,
2025-03-06 20:37:46.086,10.0100,-0.6800,1.2900,35.3750,19.4375,34.0625,-0.6413,0.1708,-0.7168,-0.2140,
2025-03-06 20:37:46.096,10.0100,-0.5600,1.2000,34.4375,19.6875,36.2500,-0.6403,0.1702,-0.7189,-0.2103,
2025-03-06 20:37:46.125,10.0100,-0.5400,1.1900,33.3750,20.8125,38.8125,-0.6392,0.1697,-0.7211,-0.2065,
2025-03-06 20:37:46.125,9.9900,-0.7500,1.2600,31.8125,22.1250,41.8125,-0.6379,0.1694,-0.7234,-0.2027,
2025-03-06 20:37:46.126,10.0500,-1.0800,1.3800,30.9375,23.2500,45.1875,-0.6365,0.1693,-0.7258,-0.1987,
2025-03-06 20:37:46.136,10.1100,-1.7300,1.5100,31.7500,25.0625,49.5000,-0.6348,0.1701,-0.7283,-0.1941,
2025-03-06 20:37:46.146,10.0400,-1.9200,1.5100,33.9375,26.3125,54.0000,-0.6331,0.1702,-0.7309,-0.1895,
2025-03-06 20:37:46.156,9.9800,-1.9200,1.4700,36.3750,26.5625,58.1875,-0.6312,0.1706,-0.7337,-0.1848,
2025-03-06 20:37:46.169,9.9300,-1.4600,1.4300,37.4375,26.0625,61.8125,-0.6293,0.1710,-0.7365,-0.1796,
2025-03-06 20:37:46.176,9.9000,-1.3400,1.4700,36.7500,26.0000,64.0625,-0.6274,0.1716,-0.7394,-0.1741,
2025-03-06 20:37:46.186,9.9500,-1.2400,1.5600,35.3125,27.1250,65.9375,-0.6253,0.1723,-0.7422,-0.1685,
2025-03-06 20:37:46.196,9.9900,-1.1800,1.6600,33.4375,30.0625,67.9375,-0.6232,0.1732,-0.7451,-0.1629,
2025-03-06 20:37:46.216,9.9900,-1.6800,1.8300,30.6875,34.2500,70.0625,-0.6207,0.1742,-0.7481,-0.1573,
2025-03-06 20:37:46.224,10.0000,-2.0900,1.8000,27.1875,37.6875,72.6875,-0.6179,0.1755,-0.7512,-0.1518,
2025-03-06 20:37:46.227,9.9100,-2.6800,1.8600,23.3750,38.6250,75.8750,-0.6148,0.1771,-0.7545,-0.1463,
2025-03-06 20:37:46.237,9.9800,-3.1400,1.8600,27.1250,39.0000,79.0000,-0.6114,0.1790,-0.7578,-0.1408,
2025-03-06 20:37:46.247,10.0000,-3.0000,1.9200,33.3125,39.1250,84.3750,-0.6080,0.1810,-0.7611,-0.1351,
2025-03-06 20:37:46.257,10.1000,-2.6100,2.0000,38.5000,38.5625,88.8750,-0.6046,0.1827,-0.7646,-0.1285,
2025-03-06 20:37:46.273,10.2200,-2.3400,2.1400,40.3125,38.6250,91.6250,-0.6011,0.1844,-0.7681,-0.1214,
2025-03-06 20:37:46.280,10.0100,-2.1000,2.4200,37.4375,41.3750,93.0625,-0.5975,0.1860,-0.7716,-0.1140,
2025-03-06 20:37:46.288,9.8900,-2.1200,2.4600,29.8125,45.4375,94.0000,-0.5937,0.1879,-0.7751,-0.1067,
2025-03-06 20:37:46.318,10.0000,-2.6300,2.4600,19.8125,47.4375,96.0000,-0.5895,0.1902,-0.7787,-0.0999,
2025-03-06 20:37:46.325,9.9900,-2.4600,1.9700,15.8125,47.9375,98.9375,-0.5850,0.1933,-0.7822,-0.0933,
2025-03-06 20:37:46.325,10.0900,-2.7600,2.0700,7.5000,46.0625,102.1250,-0.5803,0.1968,-0.7855,-0.0867,
2025-03-06 20:37:46.328,10.1000,-2.9200,2.2500,2.7500,43.7500,103.8125,-0.5755,0.2009,-0.7886,-0.0804,
2025-03-06 20:37:46.338,10.1600,-3.3000,2.4800,0.8750,43.5625,105.7500,-0.5709,0.2055,-0.7915,-0.0740,
2025-03-06 20:37:46.348,10.1400,-3.9700,2.6900,1.0000,43.9375,107.1875,-0.5661,0.2103,-0.7942,-0.0677,
2025-03-06 20:37:46.358,9.9400,-3.4500,2.6100,2.5625,45.8125,108.3750,-0.5612,0.2151,-0.7969,-0.0613,
2025-03-06 20:37:46.368,9.9600,-3.7100,2.7900,1.1250,46.5625,110.6250,-0.5562,0.2198,-0.7996,-0.0547,
2025-03-06 20:37:46.378,10.1900,-4.3900,2.7000,9.7500,45.6875,113.8750,-0.5509,0.2247,-0.8023,-0.0480,
2025-03-06 20:37:46.388,9.7700,-4.2600,2.6300,18.4375,46.7500,115.8750,-0.5457,0.2291,-0.8051,-0.0407,
2025-03-06 20:37:46.398,9.6700,-4.0600,2.7300,24.2500,45.8125,115.8125,-0.5403,0.2331,-0.8079,-0.0330,
2025-03-06 20:37:46.418,9.7800,-3.8100,2.9300,26.8125,42.7500,115.4375,-0.5349,0.2366,-0.8107,-0.0248,
2025-03-06 20:37:46.418,9.7300,-3.6600,3.4600,27.3750,42.8750,114.3750,-0.5297,0.2399,-0.8134,-0.0165,
2025-03-06 20:37:46.428,9.6400,-3.7600,3.6300,29.1875,46.0625,113.5625,-0.5244,0.2430,-0.8160,-0.0084,
2025-03-06 20:37:46.438,9.5900,-4.0400,3.6800,30.6250,48.5000,113.8750,-0.5189,0.2460,-0.8187,-0.0002,
2025-03-06 20:37:46.448,9.2900,-4.6200,3.4900,30.9375,49.1875,115.2500,-0.5130,0.2492,-0.8214,0.0075,
2025-03-06 20:37:46.458,9.1900,-4.7000,3.3200,32.8125,48.3750,116.4375,-0.5071,0.2521,-0.8241,0.0158,
2025-03-06 20:37:46.478,9.0800,-4.5000,3.2000,36.2500,46.6250,116.8750,-0.5011,0.2548,-0.8266,0.0243,
2025-03-06 20:37:46.488,9.1300,-4.2500,3.2600,38.8125,45.5625,115.5000,-0.4953,0.2573,-0.8291,0.0330,
2025-03-06 20:37:46.488,8.9900,-4.2300,3.5100,36.1250,44.8125,115.4375,-0.4894,0.2595,-0.8315,0.0417,
2025-03-06 20:37:46.508,8.6000,-4.3100,3.7100,29.4375,45.0625,112.4375,-0.4834,0.2623,-0.8337,0.0496,
2025-03-06 20:37:46.518,8.4900,-4.2400,3.7800,25.5625,47.5000,108.3125,-0.4776,0.2650,-0.8357,0.0577,
2025-03-06 20:37:46.518,8.5700,-4.7100,3.7100,23.4375,47.3750,106.8750,-0.4716,0.2678,-0.8376,0.0653,
2025-03-06 20:37:46.528,8.2900,-4.7100,3.6400,24.6875,48.0625,105.0625,-0.4657,0.2706,-0.8394,0.0728,
2025-03-06 20:37:46.538,8.2000,-4.6700,3.6600,27.6875,48.1875,102.9375,-0.4597,0.2733,-0.8412,0.0801,
2025-03-06 20:37:46.548,8.3500,-4.6000,3.9100,29.0625,46.6250,101.3750,-0.4537,0.2756,-0.8429,0.0874,
2025-03-06 20:37:46.558,8.1500,-4.6700,4.4800,30.2500,47.3125,99.8125,-0.4478,0.2778,-0.8446,0.0947,
2025-03-06 20:37:46.568,7.8300,-4.9200,4.5700,29.9375,48.5625,98.1875,-0.4418,0.2797,-0.8463,0.1018,
2025-03-06 20:37:46.588,7.3400,-5.0300,4.3900,31.0000,50.5000,95.5625,-0.4358,0.2817,-0.8479,0.1088,
2025-03-06 20:37:46.629,7.0300,-5.1200,4.3300,32.5000,51.3750,93.4375,-0.4296,0.2834,-0.8496,0.1155,
2025-03-06 20:37:46.629,7.0600,-5.4100,4.2700,34.2500,50.7500,92.3125,-0.4233,0.2849,-0.8513,0.1223,
2025-03-06 20:37:46.629,7.0500,-5.2800,4.4400,35.8750,48.8750,92.4375,-0.4171,0.2863,-0.8529,0.1289,
2025-03-06 20:37:46.629,7.0700,-5.3200,4.4900,38.6250,48.5000,91.0625,-0.4109,0.2875,-0.8545,0.1356,
2025-03-06 20:37:46.629,6.8600,-4.8200,4.5400,39.0625,48.4375,88.2500,-0.4047,0.2884,-0.8560,0.1424,
2025-03-06 20:37:46.639,6.8600,-4.8200,4.5400,32.5625,47.8125,85.6875,-0.3986,0.2891,-0.8575,0.1489,
2025-03-06 20:37:46.649,6.3100,-4.5200,4.8000,23.3125,47.3125,83.4375,-0.3926,0.2902,-0.8588,0.1552,
2025-03-06 20:37:46.659,6.1500,-4.6000,4.8500,17.3750,46.7500,82.1875,-0.3868,0.2919,-0.8598,0.1608,
2025-03-06 20:37:46.669,6.1000,-5.3800,4.8700,13.9375,47.6250,80.7500,-0.3812,0.2939,-0.8606,0.1662,
2025-03-06 20:37:46.689,6.1200,-5.6800,4.8700,12.7500,48.3750,78.7500,-0.3755,0.2962,-0.8614,0.1713,
2025-03-06 20:37:46.689,5.9900,-5.9800,4.8700,13.1250,48.3750,77.6875,-0.3698,0.2984,-0.8621,0.1763,
2025-03-06 20:37:46.699,5.9900,-5.9800,4.8700,14.9375,48.7500,76.8125,-0.3638,0.3010,-0.8629,0.1802,
2025-03-06 20:37:46.719,5.5800,-6.1600,4.9700,14.5625,47.0625,76.6875,-0.3580,0.3030,-0.8636,0.1851,
2025-03-06 20:37:46.726,5.3500,-6.2400,5.4000,10.5000,46.1250,75.3750,-0.3524,0.3050,-0.8641,0.1899,
2025-03-06 20:37:46.729,5.0500,-6.4900,5.6700,7.5000,48.0000,72.3750,-0.3469,0.3072,-0.8646,0.1945,
2025-03-06 20:37:46.739,4.8700,-7.3300,5.7200,8.6875,50.4375,72.8750,-0.3414,0.3095,-0.8649,0.1987,
2025-03-06 20:37:46.749,4.9800,-7.5300,5.6800,12.6250,49.3125,74.4375,-0.3357,0.3118,-0.8654,0.2030,
2025-03-06 20:37:46.759,4.9700,-7.2800,5.8800,21.8125,46.9375,76.5625,-0.3299,0.3138,-0.8658,0.2075,
2025-03-06 20:37:46.779,4.9300,-6.0800,5.9000,31.7500,46.8750,76.6250,-0.3240,0.3152,-0.8663,0.2125,
2025-03-06 20:37:46.800,4.8900,-5.6900,5.7800,36.0000,46.5625,74.3750,-0.3179,0.3158,-0.8671,0.2177,
2025-03-06 20:37:46.800,4.8300,-5.5800,5.7100,35.8125,46.0625,72.3125,-0.3119,0.3160,-0.8679,0.2228,
2025-03-06 20:37:46.803,4.7200,-5.6500,5.6600,33.8125,45.9375,70.8750,-0.3060,0.3160,-0.8685,0.2283,
2025-03-06 20:37:46.811,4.6000,-6.0300,5.9100,29.5000,45.5625,69.9375,-0.3001,0.3162,-0.8693,0.2331,
2025-03-06 20:37:46.820,4.4100,-6.2800,6.1000,25.8750,46.9375,68.0625,-0.2943,0.3167,-0.8698,0.2378,
2025-03-06 20:37:46.831,4.2400,-6.0900,6.0200,25.5625,47.6875,67.3125,-0.2885,0.3175,-0.8703,0.2421,
2025-03-06 20:37:46.841,4.3500,-5.7600,5.8200,26.6250,47.2500,66.5625,-0.2826,0.3182,-0.8707,0.2465,
2025-03-06 20:37:46.852,4.0600,-5.4100,5.9700,27.3125,46.3750,64.5625,-0.2768,0.3188,-0.8711,0.2507,
2025-03-06 20:37:46.865,4.0000,-5.4200,6.2400,24.8125,45.8750,61.3750,-0.2711,0.3193,-0.8716,0.2548,
2025-03-06 20:37:46.872,3.7900,-5.7100,6.5200,19.1875,46.1250,59.8750,-0.2655,0.3198,-0.8720,0.2587,
2025-03-06 20:37:46.882,3.4700,-6.5200,6.5500,13.0625,48.0000,60.3125,-0.2601,0.3207,-0.8722,0.2623,
2025-03-06 20:37:46.892,3.4700,-6.5200,6.5500,13.5000,48.1250,60.7500,-0.2546,0.3221,-0.8723,0.2657,
2025-03-06 20:37:46.912,3.5400,-6.7700,6.3300,22.3125,46.8125,60.5625,-0.2491,0.3235,-0.8723,0.2692,
2025-03-06 20:37:46.915,3.3600,-6.1600,5.8000,30.6875,46.8750,58.3125,-0.2435,0.3242,-0.8724,0.2728,
2025-03-06 20:37:46.927,2.8400,-5.6000,5.7900,36.8125,46.3125,54.3750,-0.2377,0.3242,-0.8729,0.2764,
2025-03-06 20:37:46.933,2.6800,-5.2800,6.1000,39.6250,43.6250,50.8125,-0.2319,0.3237,-0.8735,0.2799,
2025-03-06 20:37:46.933,2.6800,-5.2800,6.1000,34.1250,40.3750,47.3750,-0.2264,0.3228,-0.8743,0.2833,
2025-03-06 20:37:46.945,2.5600,-5.2200,6.5200,21.5625,40.6250,46.0625,-0.2213,0.3221,-0.8748,0.2864,
2025-03-06 20:37:46.963,2.1500,-6.6300,6.5100,15.8125,43.1875,46.9375,-0.2166,0.3223,-0.8750,0.2891,
2025-03-06 20:37:46.973,2.0600,-7.0600,6.4700,19.5000,43.0625,48.0000,-0.2117,0.3231,-0.8751,0.2917,
2025-03-06 20:37:46.983,2.2000,-6.9500,6.7200,25.1250,42.8750,46.6250,-0.2067,0.3235,-0.8752,0.2944,
2025-03-06 20:37:46.983,1.9200,-6.6300,6.8500,27.2500,41.1250,44.2500,-0.2016,0.3236,-0.8754,0.2971,
2025-03-06 20:37:47.003,1.5800,-6.2000,7.0500,25.8750,39.3125,43.5625,-0.1966,0.3234,-0.8758,0.2996,
2025-03-06 20:37:47.013,1.7200,-6.2400,7.0800,20.6250,39.3125,43.6875,-0.1918,0.3232,-0.8760,0.3022,
2025-03-06 20:37:47.023,1.4100,-6.8200,6.9200,17.6250,40.2500,44.8125,-0.1873,0.3234,-0.8761,0.3047,
2025-03-06 20:37:47.033,1.5100,-7.1000,6.8100,23.1875,40.3125,47.0000,-0.1826,0.3238,-0.8761,0.3071,
2025-03-06 20:37:47.043,1.3900,-7.6200,6.6700,33.1250,41.7500,49.6250,-0.1777,0.3238,-0.8761,0.3099,
2025-03-06 20:37:47.049,1.3300,-7.3300,7.0800,28.9375,38.0625,49.1250,-0.1724,0.3232,-0.8763,0.3129,
2025-03-06 20:37:47.053,1.3300,-6.6900,7.0800,30.6250,35.5625,49.8125,-0.1674,0.3228,-0.8764,0.3159,
2025-03-06 20:37:47.064,1.3100,-5.9400,7.0100,28.1250,34.0625,48.8125,-0.1626,0.3221,-0.8764,0.3190,
2025-03-06 20:37:47.073,1.3300,-5.9400,7.0700,22.0000,33.4375,48.2500,-0.1580,0.3217,-0.8762,0.3221,
2025-03-06 20:37:47.083,1.3300,-5.9400,7.0700,22.0625,32.6875,48.1875,-0.1536,0.3216,-0.8760,0.3251,
2025-03-06 20:37:47.093,0.7800,-6.0200,6.9800,24.8125,32.0000,48.0625,-0.1494,0.3214,-0.8755,0.3284,
2025-03-06 20:37:47.114,0.7500,-6.0300,6.9100,30.5625,30.1250,47.0625,-0.1450,0.3210,-0.8752,0.3314,
2025-03-06 20:37:47.123,0.4900,-5.3400,6.6500,37.1250,29.1250,44.3125,-0.1407,0.3202,-0.8751,0.3344,
2025-03-06 20:37:47.134,0.4300,-4.7400,6.5000,39.5625,27.6875,39.4375,-0.1363,0.3189,-0.8752,0.3373,
2025-03-06 20:37:47.134,0.4300,-4.7400,6.5000,37.5625,24.8125,32.0625,-0.1320,0.3171,-0.8754,0.3400,
2025-03-06 20:37:47.144,0.3300,-4.3100,6.5600,31.4375,21.8750,26.8750,-0.1282,0.3154,-0.8758,0.3422,
2025-03-06 20:37:47.164,-0.0700,-4.9100,6.8400,21.8125,18.5625,23.8125,-0.1250,0.3140,-0.8761,0.3439,
2025-03-06 20:37:47.164,0.0500,-5.5100,6.8900,12.0000,17.2500,23.3125,-0.1224,0.3132,-0.8762,0.3454,
2025-03-06 20:37:47.174,0.1200,-6.0600,6.9300,5.4375,17.0000,23.2500,-0.1201,0.3130,-0.8760,0.3468,
2025-03-06 20:37:47.214,0.1000,-6.4000,6.9000,2.8125,17.1250,22.2500,-0.1181,0.3134,-0.8756,0.3481,
2025-03-06 20:37:47.227,-0.0100,-6.1000,6.9100,1.6875,16.3750,19.8125,-0.1162,0.3139,-0.8752,0.3493,
2025-03-06 20:37:47.227,-0.1100,-5.7400,6.9100,1.0625,14.6875,16.1250,-0.1143,0.3145,-0.8748,0.3503,
2025-03-06 20:37:47.227,-0.2000,-5.4400,6.8900,1.0625,12.6875,12.2500,-0.1128,0.3149,-0.8745,0.3511,
2025-03-06 20:37:47.235,-0.4200,-5.5400,7.1500,1.6875,10.6250,9.1875,-0.1115,0.3154,-0.8743,0.3517,
2025-03-06 20:37:47.245,-0.3800,-5.8100,7.3300,2.1875,8.7500,8.6250,-0.1104,0.3157,-0.8741,0.3522,
2025-03-06 20:37:47.255,-0.4400,-6.1400,7.3500,1.5625,7.6250,9.5625,-0.1089,0.3160,-0.8746,0.3512,
2025-03-06 20:37:47.266,-0.2900,-6.1800,7.0800,3.1875,6.4375,8.4375,-0.1081,0.3162,-0.8744,0.3517,
2025-03-06 20:37:47.275,-0.3000,-5.9600,7.2000,4.3125,5.7500,6.5625,-0.1073,0.3162,-0.8743,0.3522,
2025-03-06 20:37:47.285,-0.2500,-5.5900,7.2300,3.4375,4.5625,4.0000,-0.1066,0.3162,-0.8743,0.3525,
2025-03-06 20:37:47.289,-0.2500,-5.5900,7.2300,1.5625,3.3750,0.1875,-0.1060,0.3160,-0.8743,0.3527,
2025-03-06 20:37:47.296,-0.2400,-5.3600,7.2600,0.9375,2.3125,-2.5000,-0.1057,0.3160,-0.8744,0.3527,
2025-03-06 20:37:47.312,-0.0500,-5.9800,7.6700,-0.7500,0.3125,-2.1250,-0.1056,0.3160,-0.8745,0.3525,
2025-03-06 20:37:47.315,-0.0300,-6.4600,7.6600,-3.5000,-0.5625,0.5000,-0.1057,0.3161,-0.8745,0.3523,
2025-03-06 20:37:47.327,-0.1300,-6.8000,7.4100,-2.7500,-1.5625,2.6250,-0.1058,0.3163,-0.8745,0.3523,
2025-03-06 20:37:47.336,-0.1300,-6.8000,7.4100,0.0625,-2.5000,2.5000,-0.1059,0.3165,-0.8743,0.3525,
2025-03-06 20:37:47.346,-0.2100,-6.4300,7.4000,2.0000,-2.6250,0.6250,-0.1060,0.3165,-0.8742,0.3527,
2025-03-06 20:37:47.356,-0.2400,-5.8700,7.6000,2.0625,-3.0000,-1.0000,-0.1061,0.3162,-0.8742,0.3528,
2025-03-06 20:37:47.376,-0.0300,-6.2800,7.8000,0.8125,-3.9375,-0.1250,-0.1063,0.3160,-0.8743,0.3529,
2025-03-06 20:37:47.376,0.0500,-6.6400,7.7800,-0.4375,-4.5625,3.0625,-0.1066,0.3158,-0.8742,0.3530,
2025-03-06 20:37:47.386,0.0100,-6.8700,7.7300,1.5000,-4.5000,4.9375,-0.1069,0.3157,-0.8741,0.3533,
2025-03-06 20:37:47.396,-0.0500,-6.4500,7.5900,6.8750,-5.1250,5.2500,-0.1071,0.3154,-0.8739,0.3540,
2025-03-06 20:37:47.412,-0.0500,-6.0100,7.4200,11.7500,-7.0000,4.9375,-0.1071,0.3148,-0.8739,0.3546,
2025-03-06 20:37:47.416,-0.0500,-5.5800,7.1900,15.1875,-9.8750,3.7500,-0.1071,0.3138,-0.8740,0.3552,
2025-03-06 20:37:47.427,0.0000,-5.1400,7.0300,16.4375,-11.8125,0.4375,-0.1073,0.3124,-0.8742,0.3559,
2025-03-06 20:37:47.437,0.1000,-5.1500,7.0400,14.4375,-12.6875,-3.3125,-0.1077,0.3109,-0.8745,0.3564,
2025-03-06 20:37:47.447,0.1400,-5.2800,7.1100,8.2500,-13.6875,-3.8125,-0.1083,0.3094,-0.8749,0.3566,
2025-03-06 20:37:47.457,0.0300,-5.2700,7.1300,1.8750,-14.4375,-2.8125,-0.1091,0.3083,-0.8751,0.3568,
2025-03-06 20:37:47.467,-0.0400,-5.2000,7.0100,0.1250,-14.6875,-4.5000,-0.1102,0.3077,-0.8751,0.3569,
2025-03-06 20:37:47.477,0.0600,-5.1100,7.0100,-0.4375,-15.2500,-9.0000,-0.1115,0.3072,-0.8751,0.3570,
2025-03-06 20:37:47.487,0.0600,-5.1100,7.0100,-2.5625,-15.8750,-12.8125,-0.1128,0.3067,-0.8752,0.3567,
2025-03-06 20:37:47.517,0.1800,-5.2000,7.1000,-4.4375,-16.8750,-15.3125,-0.1145,0.3062,-0.8752,0.3565,
2025-03-06 20:37:47.517,0.2600,-5.5600,7.3700,-5.1250,-17.8125,-17.0625,-0.1164,0.3057,-0.8755,0.3557,
2025-03-06 20:37:47.517,0.1800,-5.7700,7.4100,-5.6875,-18.0625,-18.3125,-0.1184,0.3052,-0.8758,0.3548,
2025-03-06 20:37:47.528,0.1800,-5.8400,7.2500,-5.5625,-19.1875,-19.9375,-0.1204,0.3049,-0.8760,0.3539,
2025-03-06 20:37:47.537,0.1800,-5.8400,7.2500,-4.0000,-20.5625,-22.4375,-0.1225,0.3045,-0.8762,0.3528,
2025-03-06 20:37:47.557,0.2300,-5.4400,6.9000,-3.6875,-22.8750,-26.3125,-0.1248,0.3040,-0.8766,0.3516,
2025-03-06 20:37:47.557,0.5100,-4.9400,6.8200,-6.6250,-24.8125,-30.7500,-0.1272,0.3032,-0.8770,0.3502,
2025-03-06 20:37:47.567,0.6400,-4.7900,6.8700,-11.4375,-26.3125,-34.2500,-0.1301,0.3027,-0.8775,0.3485,
2025-03-06 20:37:47.587,0.8500,-5.0400,6.7800,-15.8750,-27.8750,-36.8750,-0.1332,0.3024,-0.8779,0.3466,
2025-03-06 20:37:47.587,0.9500,-5.1800,6.5700,-18.6250,-29.6250,-39.3750,-0.1367,0.3023,-0.8783,0.3443,
2025-03-06 20:37:47.597,1.0800,-5.1700,6.3900,-20.0625,-31.7500,-42.5625,-0.1406,0.3023,-0.8784,0.3425,
2025-03-06 20:37:47.607,1.2100,-5.0400,6.4200,-20.6250,-34.1250,-46.5000,-0.1447,0.3024,-0.8787,0.3399,
2025-03-06 20:37:47.617,1.4200,-4.8900,6.6500,-20.4375,-36.6875,-51.3750,-0.1490,0.3024,-0.8791,0.3370,
2025-03-06 20:37:47.628,1.5300,-4.9000,6.6500,-22.9375,-39.6250,-55.3125,-0.1536,0.3022,-0.8796,0.3339,
2025-03-06 20:37:47.637,1.5400,-4.8100,6.5800,-28.5000,-42.9375,-58.5000,-0.1586,0.3020,-0.8800,0.3305,
2025-03-06 20:37:47.648,1.5000,-4.4800,6.3000,-33.5000,-46.9375,-62.1875,-0.1640,0.3022,-0.8804,0.3267,
2025-03-06 20:37:47.658,1.5700,-4.6200,6.1400,-36.5000,-49.3750,-66.4375,-0.1700,0.3025,-0.8806,0.3228,
2025-03-06 20:37:47.668,1.7400,-4.9500,6.0500,-36.9375,-50.5000,-70.1875,-0.1764,0.3029,-0.8807,0.3186,
2025-03-06 20:37:47.678,2.1200,-5.5500,6.7100,-36.1250,-51.9375,-72.1250,-0.1829,0.3033,-0.8809,0.3141,
2025-03-06 20:37:47.688,2.1200,-5.5500,6.7100,-36.5000,-54.8125,-73.3125,-0.1896,0.3035,-0.8810,0.3095,
2025-03-06 20:37:47.698,2.2700,-5.9100,7.0600,-39.6875,-56.0000,-73.8125,-0.1965,0.3035,-0.8811,0.3049,
2025-03-06 20:37:47.728,2.4300,-6.5000,6.5800,-43.2500,-55.3750,-73.7500,-0.2036,0.3038,-0.8810,0.3002,
2025-03-06 20:37:47.729,2.3100,-5.9200,5.7800,-42.3750,-57.1875,-76.1875,-0.2107,0.3043,-0.8808,0.2954,
2025-03-06 20:37:47.738,2.2900,-5.4200,5.6500,-39.1250,-61.3750,-80.8750,-0.2180,0.3047,-0.8805,0.2904,
2025-03-06 20:37:47.738,2.4600,-5.0700,5.9000,-35.7500,-65.6250,-86.1250,-0.2256,0.3046,-0.8803,0.2853,
2025-03-06 20:37:47.748,2.4600,-5.0700,5.9000,-34.7500,-66.5000,-91.4375,-0.2339,0.3037,-0.8799,0.2809,
2025-03-06 20:37:47.758,3.4400,-6.1700,6.5800,-37.3125,-65.1875,-93.0000,-0.2420,0.3029,-0.8798,0.2751,
2025-03-06 20:37:47.768,3.7300,-6.6000,6.4100,-43.3750,-61.8125,-92.2500,-0.2501,0.3023,-0.8796,0.2691,
2025-03-06 20:37:47.778,3.8700,-6.7700,6.1200,-44.6875,-60.5000,-91.8125,-0.2580,0.3021,-0.8792,0.2629,
2025-03-06 20:37:47.788,3.9900,-5.9100,6.1100,-39.3125,-62.5000,-93.2500,-0.2658,0.3021,-0.8788,0.2566,
2025-03-06 20:37:47.808,4.1300,-5.4300,6.1000,-35.0625,-64.8125,-98.1875,-0.2737,0.3015,-0.8783,0.2506,
2025-03-06 20:37:47.808,4.3600,-5.2700,6.1500,-33.8750,-64.3750,-103.5625,-0.2817,0.3004,-0.8779,0.2441,
2025-03-06 20:37:47.819,4.5900,-5.4500,6.3300,-31.5625,-62.0000,-106.2500,-0.2899,0.2991,-0.8776,0.2372,
2025-03-06 20:37:47.831,5.3800,-6.4500,6.3200,-33.5000,-61.7500,-106.2500,-0.2977,0.2976,-0.8774,0.2301,
2025-03-06 20:37:47.839,5.3800,-6.4500,6.3200,-41.0000,-60.0625,-104.2500,-0.3057,0.2962,-0.8770,0.2230,
2025-03-06 20:37:47.849,5.6700,-6.7900,6.1600,-44.2500,-57.3750,-101.6875,-0.3135,0.2954,-0.8763,0.2157,
2025-03-06 20:37:47.859,5.5200,-5.9500,5.3900,-40.7500,-57.8125,-100.7500,-0.3210,0.2949,-0.8755,0.2084,
2025-03-06 20:37:47.869,5.4400,-5.3000,5.5300,-34.0000,-61.3750,-103.6250,-0.3286,0.2942,-0.8746,0.2013,
2025-03-06 20:37:47.889,5.4300,-4.7800,5.5000,-29.2500,-63.5625,-109.3125,-0.3362,0.2927,-0.8738,0.1942,
2025-03-06 20:37:47.889,5.4300,-4.7800,5.5000,-26.6250,-61.7500,-115.6875,-0.3441,0.2907,-0.8730,0.1868,
2025-03-06 20:37:47.899,5.9300,-5.3900,5.3300,-23.0625,-59.7500,-119.0625,-0.3519,0.2883,-0.8723,0.1793,
2025-03-06 20:37:47.909,7.2100,-7.1900,5.7500,-20.8750,-60.5000,-116.1250,-0.3596,0.2855,-0.8717,0.1713,
2025-03-06 20:37:47.919,7.6900,-7.3800,5.8600,-25.3125,-61.0625,-109.4375,-0.3671,0.2826,-0.8710,0.1635,
2025-03-06 20:37:47.929,7.8200,-6.7500,5.2400,-28.4375,-60.9375,-103.2500,-0.3745,0.2802,-0.8700,0.1561,
2025-03-06 20:37:47.939,7.8200,-6.7500,5.2400,-24.7500,-64.8750,-100.1250,-0.3818,0.2783,-0.8687,0.1490,
2025-03-06 20:37:47.949,7.8200,-6.1100,5.0100,-18.3750,-70.4375,-100.5625,-0.3892,0.2759,-0.8672,0.1425,
2025-03-06 20:37:47.959,7.6100,-4.6900,4.8100,-15.4375,-73.6875,-104.2500,-0.3969,0.2731,-0.8656,0.1362,
2025-03-06 20:37:47.969,7.1900,-4.0000,4.9400,-18.0625,-74.0625,-109.8125,-0.4049,0.2699,-0.8639,0.1297,
2025-03-06 20:37:47.979,7.0200,-4.3000,4.7900,-23.6250,-71.5625,-115.5000,-0.4130,0.2667,-0.8621,0.1227,
2025-03-06 20:37:47.989,7.0200,-4.3000,4.7900,-22.4375,-68.1250,-119.1875,-0.4210,0.2636,-0.8602,0.1151,
2025-03-06 20:37:47.999,7.1900,-5.0100,4.5100,-14.5625,-66.9375,-119.4375,-0.4288,0.2603,-0.8584,0.1072,
2025-03-06 20:37:48.009,8.6300,-6.3800,4.1600,-6.1250,-67.8125,-116.0000,-0.4364,0.2564,-0.8567,0.0995,
2025-03-06 20:37:48.020,9.0000,-5.7900,3.7500,0.5000,-69.0625,-111.8750,-0.4438,0.2520,-0.8550,0.0923,
2025-03-06 20:37:48.032,8.8400,-4.6900,3.5800,6.6875,-73.5000,-105.8125,-0.4512,0.2472,-0.8532,0.0857,
2025-03-06 20:37:48.040,8.8400,-4.6900,3.5800,6.5625,-79.4375,-104.7500,-0.4586,0.2421,-0.8513,0.0799,
2025-03-06 20:37:48.049,8.9400,-3.3700,3.5000,0.5000,-84.2500,-108.6250,-0.4664,0.2371,-0.8490,0.0743,
2025-03-06 20:37:48.060,8.9000,-3.0600,4.0200,-12.1875,-85.8750,-113.5000,-0.4746,0.2322,-0.8463,0.0681,
2025-03-06 20:37:48.070,8.9500,-4.2100,4.2700,-25.9375,-83.0625,-117.5000,-0.4830,0.2280,-0.8432,0.0612,
2025-03-06 20:37:48.090,8.8300,-4.9000,4.1100,-35.5000,-78.3125,-118.1875,-0.4913,0.2246,-0.8398,0.0534,
2025-03-06 20:37:48.090,8.8300,-4.9000,4.1100,-36.8125,-74.6250,-116.1875,-0.4992,0.2219,-0.8364,0.0450,
2025-03-06 20:37:48.120,8.8900,-5.1500,3.8500,-33.1875,-74.7500,-113.3750,-0.5070,0.2187,-0.8329,0.0376,
2025-03-06 20:37:48.120,10.0000,-4.0800,3.2100,-32.3125,-76.9375,-110.9375,-0.5145,0.2159,-0.8293,0.0296,
2025-03-06 20:37:48.120,10.3200,-3.7900,3.0800,-36.1875,-81.0625,-108.9375,-0.5219,0.2131,-0.8257,0.0218,
2025-03-06 20:37:48.129,10.4800,-3.6200,2.9600,-38.8750,-84.5000,-109.5000,-0.5295,0.2107,-0.8216,0.0141,
2025-03-06 20:37:48.140,10.4800,-3.6200,2.9600,-41.3750,-84.9375,-113.3125,-0.5373,0.2084,-0.8172,0.0062,
2025-03-06 20:37:48.152,10.6900,-3.6000,3.2100,-45.3125,-81.7500,-117.4375,-0.5452,0.2061,-0.8126,-0.0020,
2025-03-06 20:37:48.161,10.2600,-4.1300,3.4100,-47.7500,-75.7500,-117.3125,-0.5528,0.2037,-0.8079,-0.0107,
2025-03-06 20:37:48.171,10.2200,-4.5200,3.3400,-44.5000,-70.3750,-114.8750,-0.5599,0.2015,-0.8034,-0.0196,
2025-03-06 20:37:48.185,10.1100,-4.4600,3.0300,-35.7500,-66.8750,-108.8750,-0.5665,0.1993,-0.7991,-0.0283,
2025-03-06 20:37:48.192,10.1100,-4.4600,3.0300,-27.3750,-64.8750,-103.0625,-0.5728,0.1966,-0.7950,-0.0363,
2025-03-06 20:37:48.203,10.2300,-4.2000,2.8200,-22.1250,-64.8750,-99.0625,-0.5787,0.1937,-0.7910,-0.0434,
2025-03-06 20:37:48.212,10.5100,-2.9000,2.3500,-22.6250,-66.3125,-95.4375,-0.5846,0.1905,-0.7871,-0.0501,
2025-03-06 20:37:48.222,10.5800,-2.5600,2.1100,-23.0000,-67.0000,-93.1875,-0.5904,0.1876,-0.7830,-0.0565,
2025-03-06 20:37:48.233,10.5000,-2.3600,2.0100,-27.3125,-66.4375,-92.8125,-0.5961,0.1848,-0.7788,-0.0627,
2025-03-06 20:37:48.236,10.5000,-2.3600,2.0100,-35.0625,-65.0000,-94.2500,-0.6018,0.1823,-0.7745,-0.0692,
2025-03-06 20:37:48.253,10.4500,-2.3900,1.9500,-41.2500,-62.8125,-95.4375,-0.6074,0.1799,-0.7701,-0.0758,
2025-03-06 20:37:48.269,10.4100,-2.4200,1.7200,-44.7500,-60.4375,-95.5625,-0.6126,0.1780,-0.7656,-0.0831,
2025-03-06 20:37:48.274,10.4400,-2.5600,1.6200,-45.1250,-57.7500,-92.8125,-0.6176,0.1764,-0.7611,-0.0908,
2025-03-06 20:37:48.284,10.3900,-1.9800,1.5500,-47.5000,-54.6875,-87.9375,-0.6223,0.1749,-0.7566,-0.0982,
2025-03-06 20:37:48.292,10.3900,-1.9800,1.5500,-56.0000,-52.2500,-83.6250,-0.6267,0.1738,-0.7523,-0.1055,
2025-03-06 20:37:48.298,10.0700,-1.7700,1.7100,-66.3125,-49.4375,-78.3125,-0.6307,0.1733,-0.7479,-0.1130,
2025-03-06 20:37:48.313,9.8800,-1.7300,1.7400,-72.8750,-45.0625,-71.5000,-0.6343,0.1738,-0.7435,-0.1207,
2025-03-06 20:37:48.323,9.9700,-2.1500,1.4900,-78.3750,-40.1250,-67.0625,-0.6374,0.1750,-0.7393,-0.1285,
2025-03-06 20:37:48.337,10.0400,-2.3100,1.4300,-76.9375,-34.4375,-64.3750,-0.6401,0.1767,-0.7352,-0.1363,
2025-03-06 20:37:48.343,10.0400,-2.3100,1.4300,-71.0625,-29.1875,-60.5000,-0.6422,0.1784,-0.7314,-0.1439,
2025-03-06 20:37:48.343,10.0500,-2.3500,1.4300,-65.6250,-25.8125,-55.6875,-0.6440,0.1799,-0.7280,-0.1511,
2025-03-06 20:37:48.363,9.9100,-1.8500,1.3100,-58.4375,-24.3125,-50.1875,-0.6456,0.1812,-0.7249,-0.1577,
2025-03-06 20:37:48.373,9.8300,-1.7100,1.2700,-52.1875,-23.9375,-46.3125,-0.6471,0.1824,-0.7220,-0.1636,
2025-03-06 20:37:48.383,9.8200,-1.5600,1.1300,-46.3125,-23.1250,-43.1250,-0.6486,0.1834,-0.7192,-0.1689,
2025-03-06 20:37:48.393,9.8200,-1.5600,1.1300,-41.3750,-21.6250,-40.1250,-0.6500,0.1841,-0.7166,-0.1736,
2025-03-06 20:37:48.413,9.9200,-1.5500,0.9900,-37.0000,-18.1250,-37.1250,-0.6512,0.1848,-0.7142,-0.1781,
2025-03-06 20:37:48.413,9.9600,-1.2300,0.7700,-36.8750,-13.6875,-33.9375,-0.6524,0.1852,-0.7120,-0.1821,
2025-03-06 20:37:48.423,10.0200,-1.2200,0.8200,-37.3125,-10.0625,-29.8750,-0.6531,0.1858,-0.7102,-0.1859,
2025-03-06 20:37:48.433,9.9900,-1.1400,0.8700,-33.1875,-7.7500,-25.8125,-0.6536,0.1865,-0.7085,-0.1896,
2025-03-06 20:37:48.433,9.9900,-1.1400,0.8700,-27.8125,-6.1250,-22.0625,-0.6540,0.1873,-0.7071,-0.1929,
2025-03-06 20:37:48.443,9.9100,-1.2000,0.8900,-22.8750,-5.1250,-17.6875,-0.6542,0.1880,-0.7059,-0.1959,
2025-03-06 20:37:48.463,9.7400,-1.3100,0.4900,-19.6250,-4.0625,-14.0625,-0.6544,0.1884,-0.7050,-0.1981,
2025-03-06 20:37:48.473,9.7600,-1.1100,0.3200,-19.5625,-5.2500,-11.3125,-0.6545,0.1889,-0.7042,-0.1999,
2025-03-06 20:37:48.483,9.8300,-1.0400,0.3400,-21.1875,-7.0000,-9.6875,-0.6547,0.1895,-0.7034,-0.2016,
2025-03-06 20:37:48.493,9.8300,-1.0400,0.3400,-21.1875,-6.6250,-8.5625,-0.6549,0.1904,-0.7025,-0.2032,
2025-03-06 20:37:48.503,9.7300,-0.9100,0.4600,-19.7500,-5.1875,-6.6250,-0.6551,0.1913,-0.7017,-0.2048,
2025-03-06 20:37:48.513,9.6800,-0.8700,0.4000,-18.1250,-5.1875,-5.1250,-0.6552,0.1921,-0.7009,-0.2062,
2025-03-06 20:37:48.523,9.6400,-0.9300,0.4100,-17.0625,-5.8750,-4.1875,-0.6552,0.1931,-0.7003,-0.2075,
2025-03-06 20:37:48.534,9.5600,-0.8500,0.5400,-15.1250,-6.4375,-3.4375,-0.6553,0.1939,-0.6996,-0.2086,
2025-03-06 20:37:48.535,9.5600,-0.8500,0.5400,-13.4375,-6.8750,-2.2500,-0.6555,0.1948,-0.6989,-0.2095,
2025-03-06 20:37:48.544,9.5700,-0.7700,0.6100,-11.9375,-7.5625,-1.0000,-0.6555,0.1965,-0.6985,-0.2093,
2025-03-06 20:37:48.564,9.7500,-0.4900,0.5300,-11.5000,-7.6875,-0.1250,-0.6556,0.1979,-0.6980,-0.2093,
2025-03-06 20:37:48.574,9.7400,-0.4600,0.5600,-10.8750,-7.6250,1.0625,-0.6559,0.1987,-0.6974,-0.2098,
2025-03-06 20:37:48.585,9.8200,-0.5300,0.5200,-8.8125,-6.6875,1.7500,-0.6561,0.1996,-0.6968,-0.2102,
2025-03-06 20:37:48.585,9.8200,-0.5300,0.5200,-5.8125,-5.8125,2.5625,-0.6563,0.2003,-0.6963,-0.2105,
2025-03-06 20:37:48.606,9.8300,-0.5400,0.4900,-3.9375,-5.5000,3.3125,-0.6565,0.2010,-0.6959,-0.2106,
2025-03-06 20:37:48.606,9.7900,-0.2700,0.3800,-2.3125,-5.5625,4.0625,-0.6567,0.2015,-0.6956,-0.2106,
2025-03-06 20:37:48.616,9.8100,-0.1300,0.4100,-1.5000,-5.6250,4.7500,-0.6569,0.2021,-0.6953,-0.2102,
2025-03-06 20:37:48.636,9.9100,-0.0200,0.4700,-1.0625,-5.7500,5.0625,-0.6572,0.2026,-0.6950,-0.2099,
2025-03-06 20:37:48.636,9.9100,-0.0200,0.4700,-1.0625,-5.7500,5.0625,-0.6574,0.2030,-0.6948,-0.2096,
2025-03-06 20:37:48.655,9.9400,0.0200,0.5000,-1.6250,-4.5000,4.9375,-0.6575,0.2034,-0.6946,-0.2092,
2025-03-06 20:37:48.665,9.8900,0.0200,0.3900,-3.5000,-1.9375,4.4375,-0.6576,0.2039,-0.6945,-0.2090,
2025-03-06 20:37:48.675,9.8600,0.0600,0.2700,-4.1875,-1.4375,4.2500,-0.6576,0.2044,-0.6944,-0.2089,
2025-03-06 20:37:48.675,9.8600,0.0800,0.2700,-4.6875,-1.3750,3.5625,-0.6575,0.2049,-0.6943,-0.2089,
2025-03-06 20:37:48.690,9.8600,0.0800,0.2700,-5.0000,-1.5000,2.9375,-0.6575,0.2054,-0.6942,-0.2089,
2025-03-06 20:37:48.716,9.8800,0.0900,0.2800,-5.4375,-1.7500,2.5625,-0.6574,0.2062,-0.6939,-0.2094,
2025-03-06 20:37:48.716,9.8900,0.1300,0.2700,-6.2500,-1.6875,1.9375,-0.6574,0.2066,-0.6937,-0.2095,
2025-03-06 20:37:48.726,9.8800,0.1200,0.2900,-7.3125,-1.3750,1.3750,-0.6575,0.2071,-0.6934,-0.2098,
2025-03-06 20:37:48.730,9.8700,0.1000,0.2600,-8.2500,-0.8750,0.8125,-0.6575,0.2075,-0.6932,-0.2101,
2025-03-06 20:37:48.736,9.8700,0.1000,0.2600,-8.2500,-0.8750,0.8125,-0.6574,0.2081,-0.6929,-0.2106,
2025-03-06 20:37:48.756,9.8600,0.0300,0.2000,-9.0000,-0.7500,0.4375,-0.6574,0.2086,-0.6926,-0.2111,
2025-03-06 20:37:48.756,9.9100,-0.0100,0.1500,-9.8125,-1.5000,-0.0625,-0.6574,0.2091,-0.6923,-0.2117,
2025-03-06 20:37:48.766,9.9500,-0.0200,0.2400,-9.6875,-1.7500,-0.1875,-0.6574,0.2097,-0.6920,-0.2122,
2025-03-06 20:37:48.786,9.9300,-0.0300,0.2600,-9.0625,-1.5625,-0.1875,-0.6574,0.2103,-0.6916,-0.2127,
2025-03-06 20:37:48.786,9.9300,-0.0300,0.2600,-9.0625,-1.5625,-0.1875,-0.6574,0.2108,-0.6913,-0.2132,
2025-03-06 20:37:48.796,9.9100,0.0000,0.2900,-8.8125,-1.5625,-0.1875,-0.6574,0.2114,-0.6910,-0.2137,
2025-03-06 20:37:48.816,9.9100,0.0900,0.3600,-8.7500,-1.5000,-0.3125,-0.6574,0.2120,-0.6907,-0.2142,
2025-03-06 20:37:48.816,9.9300,0.1400,0.4000,-8.6250,-1.2500,-0.1250,-0.6573,0.2125,-0.6904,-0.2147,
2025-03-06 20:37:48.831,9.9500,0.1400,0.4000,-8.8125,-0.9375,-0.2500,-0.6573,0.2129,-0.6902,-0.2152,
2025-03-06 20:37:48.837,9.9500,0.1400,0.4000,-9.6875,-0.4375,-0.2500,-0.6572,0.2134,-0.6899,-0.2157,
2025-03-06 20:37:48.847,9.9200,0.1100,0.3000,-10.3125,0.1250,-0.1875,-0.6571,0.2141,-0.6896,-0.2164,
2025-03-06 20:37:48.857,9.8200,0.0000,0.2200,-10.9375,0.6250,0.0625,-0.6569,0.2146,-0.6894,-0.2170,
2025-03-06 20:37:48.877,9.8100,-0.0100,0.2000,-11.9375,0.9375,0.0000,-0.6567,0.2152,-0.6892,-0.2177,
2025-03-06 20:37:48.877,9.8200,-0.0800,0.2600,-13.1250,0.8750,0.1250,-0.6565,0.2159,-0.6890,-0.2184,
2025-03-06 20:37:48.887,9.8200,-0.0800,0.2600,-13.1250,0.8750,0.1250,-0.6562,0.2166,-0.6888,-0.2191,
2025-03-06 20:37:48.897,9.7900,-0.0900,0.2400,-13.8750,0.8750,0.6875,-0.6560,0.2175,-0.6885,-0.2198,
2025-03-06 20:37:48.907,9.8600,-0.2900,0.1700,-12.6875,0.6875,1.8750,-0.6557,0.2183,-0.6883,-0.2206,
2025-03-06 20:37:48.917,9.7400,-0.4800,0.1500,-11.3125,0.5000,2.3750,-0.6555,0.2192,-0.6881,-0.2211,
2025-03-06 20:37:48.937,9.6900,-0.6200,0.1200,-9.7500,0.8125,3.0625,-0.6552,0.2200,-0.6879,-0.2216,
2025-03-06 20:37:48.937,9.6900,-0.6200,0.1200,-7.8750,0.1875,3.6875,-0.6549,0.2207,-0.6878,-0.2220,
2025-03-06 20:37:48.948,9.6900,-0.5600,0.1500,-6.1875,-0.8125,3.8750,-0.6547,0.2212,-0.6878,-0.2220,
2025-03-06 20:37:48.957,9.7400,-0.4700,0.2700,-5.6875,-1.3750,3.8125,-0.6546,0.2218,-0.6877,-0.2222,
2025-03-06 20:37:48.968,9.7700,-0.3700,0.3500,-4.8750,-2.0625,4.0625,-0.6545,0.2224,-0.6876,-0.2222,
2025-03-06 20:37:48.977,9.8100,-0.2900,0.3400,-3.5000,-1.9375,4.1250,-0.6544,0.2229,-0.6875,-0.2222,
2025-03-06 20:37:48.987,9.8100,-0.2900,0.3400,-3.5000,-1.9375,4.1250,-0.6544,0.2234,-0.6874,-0.2221,
2025-03-06 20:37:49.038,9.7900,-0.2500,0.3500,-2.6875,-1.5625,3.6875,-0.6544,0.2239,-0.6873,-0.2220,
2025-03-06 20:37:49.038,9.8300,-0.2700,0.3600,-3.9375,-1.0000,2.9375,-0.6544,0.2243,-0.6872,-0.2219,
2025-03-06 20:37:49.038,9.9000,-0.2100,0.4300,-5.6250,-0.7500,2.3125,-0.6543,0.2248,-0.6871,-0.2219,
2025-03-06 20:37:49.038,9.8900,-0.2400,0.3500,-7.1250,-0.1875,1.8750,-0.6542,0.2252,-0.6870,-0.2221,
2025-03-06 20:37:49.038,9.8900,-0.2400,0.3500,-7.1250,-0.1875,1.8750,-0.6540,0.2258,-0.6869,-0.2223,
2025-03-06 20:37:49.048,9.8600,-0.2600,0.3100,-7.3125,0.1875,1.5000,-0.6539,0.2263,-0.6868,-0.2227,
2025-03-06 20:37:49.058,9.7800,-0.2600,0.2600,-5.0625,0.1250,0.7500,-0.6537,0.2267,-0.6867,-0.2229,
2025-03-06 20:37:49.068,9.8100,-0.2700,0.2800,-4.8125,-0.1250,0.6875,-0.6536,0.2271,-0.6866,-0.2231,
2025-03-06 20:37:49.078,9.8200,-0.2900,0.3300,-5.5000,0.0000,0.6250,-0.6535,0.2274,-0.6865,-0.2233,
2025-03-06 20:37:49.088,9.8200,-0.2900,0.3300,-6.4375,0.2500,0.6250,-0.6534,0.2278,-0.6864,-0.2236,
2025-03-06 20:37:49.098,9.8500,-0.3500,0.2800,-6.8125,0.6875,0.6875,-0.6532,0.2287,-0.6861,-0.2244,
2025-03-06 20:37:49.108,9.8600,-0.3500,0.1700,-6.7500,0.8750,0.8125,-0.6530,0.2291,-0.6860,-0.2247,
2025-03-06 20:37:49.118,9.9200,-0.2900,0.1800,-6.5000,0.4375,1.0000,-0.6528,0.2296,-0.6859,-0.2250,
2025-03-06 20:37:49.132,9.9200,-0.2700,0.1800,-6.4375,0.0625,0.9375,-0.6527,0.2301,-0.6857,-0.2253,
2025-03-06 20:37:49.138,9.9200,-0.2700,0.1800,-6.4375,0.0625,0.9375,-0.6526,0.2306,-0.6856,-0.2255,
2025-03-06 20:37:49.148,9.8800,-0.2700,0.2000,-6.5625,-0.1250,1.1250,-0.6525,0.2311,-0.6854,-0.2258,
2025-03-06 20:37:49.158,9.8900,-0.2800,0.2200,-7.5000,0.1875,1.6250,-0.6524,0.2316,-0.6853,-0.2261,
2025-03-06 20:37:49.168,9.8900,-0.3700,0.3100,-8.1250,0.5000,1.8750,-0.6523,0.2321,-0.6851,-0.2263,
2025-03-06 20:37:49.188,9.8900,-0.3900,0.4000,-8.5625,0.5000,1.8125,-0.6521,0.2327,-0.6850,-0.2266,
2025-03-06 20:37:49.188,9.8900,-0.3900,0.4000,-8.5625,0.5000,1.8125,-0.6519,0.2333,-0.6849,-0.2270,
2025-03-06 20:37:49.198,9.8200,-0.4000,0.4700,-8.5000,0.5625,1.8125,-0.6517,0.2340,-0.6847,-0.2274,
2025-03-06 20:37:49.208,9.7600,-0.4700,0.4900,-7.1250,0.9375,1.0000,-0.6514,0.2346,-0.6846,-0.2277,
2025-03-06 20:37:49.218,9.7500,-0.4900,0.4600,-6.1250,0.7500,0.3750,-0.6512,0.2350,-0.6846,-0.2280,
2025-03-06 20:37:49.239,9.7600,-0.5800,0.4000,-5.1875,0.9375,-0.3125,-0.6510,0.2355,-0.6846,-0.2283,
2025-03-06 20:37:49.239,9.7600,-0.5800,0.4000,-5.1875,0.9375,-0.3125,-0.6508,0.2358,-0.6845,-0.2286,
2025-03-06 20:37:49.249,9.7600,-0.5700,0.3100,-4.1875,0.9375,-1.0625,-0.6506,0.2362,-0.6845,-0.2288,
2025-03-06 20:37:49.259,9.7600,-0.5800,0.2600,-2.0000,0.7500,-1.1250,-0.6505,0.2364,-0.6845,-0.2290,
2025-03-06 20:37:49.269,9.7600,-0.3800,0.2100,-1.0000,0.3750,-1.5000,-0.6505,0.2365,-0.6844,-0.2291,
2025-03-06 20:37:49.279,9.8200,-0.3600,0.2200,0.0625,-0.0625,-1.5000,-0.6505,0.2366,-0.6844,-0.2291,
2025-03-06 20:37:49.289,9.8200,-0.3600,0.2200,0.0625,-0.0625,-1.5000,-0.6506,0.2365,-0.6843,-0.2292,
2025-03-06 20:37:49.319,9.8700,-0.3300,0.3000,0.5000,-0.3750,-1.5625,-0.6506,0.2366,-0.6843,-0.2293,
2025-03-06 20:37:49.319,9.9200,-0.3500,0.3700,-1.0000,0.0000,-1.6250,-0.6506,0.2365,-0.6842,-0.2294,
2025-03-06 20:37:49.329,9.9100,-0.3600,0.3700,-2.2500,0.5625,-1.6250,-0.6507,0.2365,-0.6842,-0.2295,
2025-03-06 20:37:49.333,9.9200,-0.3700,0.3400,-2.3750,0.9375,-1.3750,-0.6506,0.2365,-0.6841,-0.2297,
2025-03-06 20:37:49.339,9.9200,-0.3700,0.3400,-2.3750,0.9375,-1.3750,-0.6506,0.2366,-0.6840,-0.2299,
2025-03-06 20:37:49.350,9.9100,-0.3700,0.4200,-1.8125,0.7500,-1.1250,-0.6503,0.2373,-0.6838,-0.2308,
2025-03-06 20:37:49.363,9.8800,-0.4100,0.4000,-0.8125,0.5625,-0.9375,-0.6502,0.2374,-0.6838,-0.2309,
2025-03-06 20:37:49.373,9.8500,-0.4800,0.3600,-0.1250,0.6250,-0.8125,-0.6502,0.2374,-0.6838,-0.2310,
2025-03-06 20:37:49.390,9.8200,-0.5000,0.3200,0.4375,1.1250,-0.6875,-0.6502,0.2374,-0.6838,-0.2310,
2025-03-06 20:37:49.391,9.8200,-0.5000,0.3200,0.4375,1.1250,-0.6875,-0.6501,0.2374,-0.6838,-0.2310,
2025-03-06 20:37:49.400,9.7900,-0.4600,0.3400,1.0625,1.5000,-0.5625,-0.6501,0.2373,-0.6840,-0.2308,
2025-03-06 20:37:49.410,9.7900,-0.4500,0.3300,2.6250,1.2500,-0.2500,-0.6500,0.2372,-0.6841,-0.2307,
2025-03-06 20:37:49.423,9.7700,-0.4300,0.3300,3.5625,0.9375,-0.1875,-0.6500,0.2371,-0.6842,-0.2305,
2025-03-06 20:37:49.433,9.7700,-0.4300,0.3600,4.3750,0.9375,-0.1250,-0.6500,0.2369,-0.6843,-0.2302,
2025-03-06 20:37:49.441,9.7700,-0.4300,0.3600,4.3750,0.9375,-0.1250,-0.6501,0.2367,-0.6845,-0.2299,
2025-03-06 20:37:49.451,9.8400,-0.4000,0.3400,5.2500,0.8125,-0.1250,-0.6501,0.2364,-0.6846,-0.2296,
2025-03-06 20:37:49.461,9.8500,-0.3400,0.3200,5.6875,0.7500,0.0000,-0.6502,0.2361,-0.6848,-0.2293,
2025-03-06 20:37:49.472,9.9600,-0.2500,0.2900,5.4375,0.5000,-0.1875,-0.6503,0.2358,-0.6849,-0.2290,
2025-03-06 20:37:49.482,9.9500,-0.2300,0.3400,5.1250,0.5000,-0.6250,-0.6504,0.2355,-0.6850,-0.2287,
2025-03-06 20:37:49.492,9.9500,-0.2300,0.3400,5.1250,0.5000,-0.6250,-0.6505,0.2352,-0.6851,-0.2284,
2025-03-06 20:37:49.502,9.9200,-0.2100,0.3700,4.9375,0.5625,-0.8750,-0.6508,0.2344,-0.6853,-0.2278,
2025-03-06 20:37:49.512,9.9300,-0.2200,0.3900,4.5000,0.6875,-1.1250,-0.6508,0.2341,-0.6854,-0.2276,
2025-03-06 20:37:49.522,9.8200,-0.2400,0.3600,4.0000,1.0000,-1.4375,-0.6509,0.2338,-0.6855,-0.2274,
2025-03-06 20:37:49.533,9.8100,-0.2800,0.3600,3.5000,0.8750,-1.6250,-0.6510,0.2335,-0.6856,-0.2273,
2025-03-06 20:37:49.543,9.8100,-0.2800,0.3600,3.5000,0.8750,-1.6250,-0.6510,0.2332,-0.6857,-0.2272,
2025-03-06 20:37:49.543,9.8100,-0.2900,0.3400,3.1250,1.0625,-1.8125,-0.6509,0.2332,-0.6857,-0.2275,
2025-03-06 20:37:49.567,9.8000,-0.3000,0.3400,3.6875,0.9375,-1.8750,-0.6510,0.2329,-0.6857,-0.2275,
2025-03-06 20:37:49.573,9.7600,-0.1500,0.3100,4.6250,0.8125,-1.3750,-0.6511,0.2326,-0.6858,-0.2274,
2025-03-06 20:37:49.585,9.7700,-0.1400,0.3000,5.4375,0.5625,-1.1250,-0.6511,0.2322,-0.6859,-0.2272,
2025-03-06 20:37:49.585,9.7700,-0.1400,0.3000,5.4375,0.5625,-1.1250,-0.6513,0.2319,-0.6860,-0.2270,
2025-03-06 20:37:49.610,9.7600,-0.1200,0.3200,5.3125,0.5625,-1.1875,-0.6514,0.2315,-0.6860,-0.2268,
2025-03-06 20:37:49.610,9.7400,-0.1400,0.3300,4.1250,0.7500,-1.0625,-0.6515,0.2311,-0.6862,-0.2266,
2025-03-06 20:37:49.624,9.7400,-0.1400,0.3300,3.6250,0.7500,-0.8125,-0.6516,0.2308,-0.6862,-0.2264,
2025-03-06 20:37:49.633,9.8300,-0.2000,0.3200,3.6250,0.6250,-0.5000,-0.6516,0.2305,-0.6863,-0.2263,
2025-03-06 20:37:49.635,9.8300,-0.2000,0.3200,3.6250,0.6250,-0.5000,-0.6517,0.2303,-0.6864,-0.2261,
2025-03-06 20:37:49.655,9.8500,-0.2100,0.2800,3.8125,0.6875,-0.3125,-0.6518,0.2300,-0.6865,-0.2258,
2025-03-06 20:37:49.655,9.8600,-0.1600,0.2700,3.8750,0.1250,-0.4375,-0.6519,0.2297,-0.6866,-0.2256,
2025-03-06 20:37:49.675,9.8300,-0.1500,0.2600,3.4375,0.1875,-0.3125,-0.6520,0.2295,-0.6866,-0.2254,
2025-03-06 20:37:49.685,9.8000,-0.1800,0.2700,3.2500,0.3750,-0.4375,-0.6521,0.2293,-0.6866,-0.2252,
2025-03-06 20:37:49.695,9.7900,-0.1500,0.3300,3.2500,0.3750,-0.4375,-0.6522,0.2291,-0.6867,-0.2250,
2025-03-06 20:37:49.696,9.8300,-0.1500,0.3600,2.3750,0.0625,-0.5000,-0.6522,0.2290,-0.6867,-0.2249,
2025-03-06 20:37:49.715,9.8400,-0.1400,0.3800,1.8750,0.1875,-0.3125,-0.6523,0.2289,-0.6868,-0.2247,
2025-03-06 20:37:49.715,9.8500,-0.1400,0.3200,1.2500,0.3125,-0.3125,-0.6523,0.2288,-0.6868,-0.2247,
2025-03-06 20:37:49.733,9.8300,-0.1600,0.3100,1.1875,0.3125,-0.1875,-0.6524,0.2287,-0.6868,-0.2246,
2025-03-06 20:37:49.741,9.7600,-0.2500,0.2900,1.1875,0.3125,-0.1875,-0.6524,0.2286,-0.6868,-0.2245,
2025-03-06 20:37:49.746,9.7300,-0.3100,0.2700,1.3750,0.3125,-0.3750,-0.6525,0.2286,-0.6868,-0.2244,
2025-03-06 20:37:49.756,9.7500,-0.3500,0.2900,2.0000,-0.0625,0.0000,-0.6525,0.2285,-0.6868,-0.2244,
2025-03-06 20:37:49.776,9.8300,-0.3400,0.3100,2.1250,-0.3125,0.4375,-0.6525,0.2285,-0.6868,-0.2242,
2025-03-06 20:37:49.776,9.8800,-0.3100,0.3100,2.3125,-0.4375,0.3750,-0.6526,0.2283,-0.6868,-0.2241,
2025-03-06 20:37:49.786,9.9100,-0.2800,0.3300,2.3125,-0.4375,0.3750,-0.6527,0.2282,-0.6869,-0.2239,
2025-03-06 20:37:49.806,9.9000,-0.1400,0.3300,2.3750,-0.4375,0.3125,-0.6527,0.2281,-0.6869,-0.2238,
2025-03-06 20:37:49.806,9.9000,-0.1200,0.3300,2.2500,0.0625,0.1250,-0.6528,0.2279,-0.6870,-0.2236,
2025-03-06 20:37:49.826,9.8700,-0.1300,0.3100,2.2500,0.1250,-0.0625,-0.6528,0.2278,-0.6870,-0.2235,
2025-03-06 20:37:49.833,9.8400,-0.1600,0.3100,1.8750,0.2500,-0.0625,-0.6529,0.2277,-0.6870,-0.2234,
2025-03-06 20:37:49.837,9.8000,-0.2500,0.3100,1.8750,0.2500,-0.0625,-0.6530,0.2275,-0.6870,-0.2233,
2025-03-06 20:37:49.857,9.8100,-0.2400,0.2500,1.8125,0.1875,-0.1250,-0.6530,0.2275,-0.6871,-0.2231,
2025-03-06 20:37:49.867,9.8300,-0.2300,0.2500,2.0000,-0.2500,0.0000,-0.6531,0.2274,-0.6871,-0.2230,
2025-03-06 20:37:49.908,9.8400,-0.1800,0.2400,1.8750,-0.1875,-0.1250,-0.6531,0.2272,-0.6871,-0.2229,
2025-03-06 20:37:49.908,9.8500,-0.1200,0.2800,1.5625,-0.1875,-0.3125,-0.6532,0.2272,-0.6871,-0.2228,
2025-03-06 20:37:49.908,9.8500,-0.0900,0.2900,0.8750,0.1875,-0.2500,-0.6533,0.2271,-0.6871,-0.2227,
2025-03-06 20:37:49.908,9.8500,-0.1000,0.3200,0.5000,0.1250,-0.2500,-0.6533,0.2270,-0.6871,-0.2227,
2025-03-06 20:37:49.908,9.8300,-0.1300,0.3100,0.0625,0.0625,-0.5000,-0.6533,0.2270,-0.6871,-0.2227,
2025-03-06 20:37:49.928,9.8400,-0.1700,0.2800,0.4375,0.0625,-0.1250,-0.6534,0.2270,-0.6870,-0.2227,
2025-03-06 20:37:49.934,9.8400,-0.2100,0.2600,0.7500,-0.1250,-0.0625,-0.6534,0.2270,-0.6870,-0.2227,
2025-03-06 20:37:49.939,9.8500,-0.1700,0.2600,0.7500,-0.1250,-0.0625,-0.6534,0.2270,-0.6870,-0.2226,
2025-03-06 20:37:49.952,9.8800,-0.1400,0.2500,0.1250,0.0625,0.1250,-0.6534,0.2270,-0.6870,-0.2227,
2025-03-06 20:37:49.960,9.8900,-0.1200,0.3000,-0.2500,0.3750,0.2500,-0.6535,0.2270,-0.6869,-0.2226,
2025-03-06 20:37:49.970,9.8500,-0.1100,0.2900,-0.8125,0.7500,0.1250,-0.6535,0.2269,-0.6869,-0.2227,
2025-03-06 20:37:49.980,9.8100,-0.1700,0.3200,-0.9375,0.7500,0.0000,-0.6535,0.2270,-0.6869,-0.2227,
2025-03-06 20:37:49.990,9.8400,-0.2400,0.3200,-0.8125,0.7500,0.0000,-0.6534,0.2270,-0.6869,-0.2228,
2025-03-06 20:37:50.000,9.8400,-0.2600,0.3200,-0.8750,0.3125,0.0625,-0.6534,0.2270,-0.6869,-0.2228,
2025-03-06 20:37:50.010,9.8600,-0.2700,0.2800,-0.6250,0.2500,0.0625,-0.6534,0.2271,-0.6869,-0.2228,
2025-03-06 20:37:50.020,9.9100,-0.2100,0.2700,-0.3125,0.3750,0.0625,-0.6534,0.2272,-0.6869,-0.2229,
2025-03-06 20:37:50.034,9.8800,-0.2000,0.2700,-0.2500,0.2500,0.0000,-0.6534,0.2272,-0.6869,-0.2229,
2025-03-06 20:37:50.040,9.8600,-0.1700,0.3000,-0.2500,0.2500,0.0000,-0.6534,0.2272,-0.6868,-0.2228,
2025-03-06 20:37:50.051,9.8200,-0.1600,0.3400,-0.5625,0.7500,-0.0625,-0.6534,0.2272,-0.6868,-0.2228,
2025-03-06 20:37:50.061,9.8000,-0.1900,0.3300,-0.6875,0.8750,-0.3125,-0.6534,0.2272,-0.6868,-0.2229,
2025-03-06 20:37:50.070,9.7800,-0.2100,0.2900,-0.6875,0.5000,-0.3750,-0.6534,0.2272,-0.6869,-0.2229,
2025-03-06 20:37:50.081,9.8300,-0.2400,0.3200,-0.8125,0.5000,-0.6250,-0.6534,0.2273,-0.6868,-0.2230,
2025-03-06 20:37:50.090,9.8400,-0.2300,0.3000,-0.5625,0.3125,-0.6250,-0.6534,0.2273,-0.6868,-0.2230,
2025-03-06 20:37:50.102,9.8200,-0.2600,0.2900,-0.4375,0.1875,-0.6250,-0.6534,0.2273,-0.6868,-0.2231,
2025-03-06 20:37:50.111,9.8300,-0.1900,0.3000,-0.5000,0.4375,-0.6250,-0.6534,0.2272,-0.6868,-0.2231,
2025-03-06 20:37:50.121,9.8100,-0.2200,0.3200,-0.8750,0.5000,-0.6875,-0.6535,0.2272,-0.6867,-0.2231,
2025-03-06 20:37:50.141,9.8500,-0.2300,0.3300,-1.0625,0.5625,-0.5625,-0.6534,0.2272,-0.6867,-0.2232,
2025-03-06 20:37:50.141,9.8300,-0.2800,0.3300,-1.0625,0.5625,-0.5625,-0.6534,0.2273,-0.6867,-0.2233,
2025-03-06 20:37:50.152,9.8400,-0.2600,0.3300,-0.8750,0.4375,-0.5625,-0.6534,0.2274,-0.6866,-0.2233,
2025-03-06 20:37:50.162,9.8400,-0.2400,0.3200,-0.6875,0.4375,-0.6250,-0.6534,0.2274,-0.6866,-0.2233,
2025-03-06 20:37:50.173,9.8300,-0.2600,0.3100,-0.2500,0.1875,-0.4375,-0.6534,0.2275,-0.6866,-0.2234,
2025-03-06 20:37:50.186,9.8500,-0.2300,0.3200,-0.2500,0.2500,-0.3750,-0.6535,0.2275,-0.6865,-0.2234,
2025-03-06 20:37:50.194,9.8600,-0.2100,0.3200,-0.5000,0.3750,-0.4375,-0.6535,0.2275,-0.6865,-0.2234,
2025-03-06 20:37:50.213,9.8300,-0.2200,0.3300,-0.8125,0.5000,-0.5625,-0.6535,0.2275,-0.6865,-0.2234,
2025-03-06 20:37:50.213,9.8300,-0.2700,0.3600,-0.6875,0.5625,-0.3750,-0.6534,0.2275,-0.6865,-0.2234,
2025-03-06 20:37:50.224,9.7900,-0.3100,0.3600,-0.3125,0.4375,-0.4375,-0.6534,0.2276,-0.6865,-0.2234,
2025-03-06 20:37:50.234,9.8300,-0.3100,0.3800,0.2500,0.3750,-0.5000,-0.6534,0.2276,-0.6865,-0.2234,
2025-03-06 20:37:50.244,9.8300,-0.3100,0.3700,0.2500,0.3750,-0.5000,-0.6535,0.2276,-0.6865,-0.2234,
2025-03-06 20:37:50.255,9.8300,-0.2600,0.3700,1.0000,0.3125,-0.1875,-0.6535,0.2275,-0.6865,-0.2233,
2025-03-06 20:37:50.260,9.8500,-0.2100,0.3600,0.9375,0.2500,-0.3125,-0.6535,0.2275,-0.6865,-0.2233,
2025-03-06 20:37:50.274,9.8500,-0.1800,0.3400,0.4375,0.6250,-0.1875,-0.6535,0.2275,-0.6865,-0.2233,
2025-03-06 20:37:50.296,9.8600,-0.2000,0.3400,-0.3125,0.6250,-0.2500,-0.6535,0.2275,-0.6866,-0.2233,
2025-03-06 20:37:50.298,9.8200,-0.2000,0.3200,-0.6250,0.6875,-0.1875,-0.6535,0.2274,-0.6866,-0.2233,
2025-03-06 20:37:50.326,9.8300,-0.2200,0.3500,-0.8125,0.5000,-0.0625,-0.6534,0.2275,-0.6866,-0.2233,
2025-03-06 20:37:50.327,9.8300,-0.2700,0.3600,-0.7500,0.6875,0.1250,-0.6534,0.2275,-0.6866,-0.2233,
2025-03-06 20:37:50.327,9.8200,-0.3100,0.3300,-0.5000,0.3750,0.1250,-0.6534,0.2275,-0.6866,-0.2234,
2025-03-06 20:37:50.347,9.8100,-0.3500,0.3500,0.1250,0.1250,0.3125,-0.6534,0.2276,-0.6866,-0.2234,
2025-03-06 20:37:50.347,9.8300,-0.3100,0.3500,0.1250,0.1250,0.3125,-0.6534,0.2276,-0.6866,-0.2233,
2025-03-06 20:37:50.347,9.8400,-0.2700,0.3600,0.8750,0.1250,0.3750,-0.6534,0.2275,-0.6866,-0.2233,
2025-03-06 20:37:50.360,9.8700,-0.1600,0.3500,0.8750,0.1875,0.1875,-0.6534,0.2275,-0.6866,-0.2233,
2025-03-06 20:37:50.377,9.8500,-0.1400,0.3700,0.4375,0.6875,-0.0625,-0.6534,0.2275,-0.6866,-0.2232,
2025-03-06 20:37:50.387,9.8400,-0.1700,0.3600,0.0625,0.7500,-0.0625,-0.6534,0.2275,-0.6867,-0.2232,
2025-03-06 20:37:50.392,9.8500,-0.2100,0.3300,-0.1250,0.9375,0.0000,-0.6533,0.2274,-0.6867,-0.2232,
2025-03-06 20:37:50.405,9.8500,-0.2500,0.3200,0.0625,0.6250,-0.1875,-0.6533,0.2274,-0.6868,-0.2233,
2025-03-06 20:37:50.409,9.8100,-0.2600,0.3200,0.1250,0.5625,-0.1250,-0.6533,0.2274,-0.6868,-0.2233,
2025-03-06 20:37:50.418,9.8100,-0.2300,0.3000,0.3125,0.3750,-0.1875,-0.6533,0.2274,-0.6868,-0.2232,
2025-03-06 20:37:50.435,9.7700,-0.2300,0.3300,0.2500,0.2500,-0.2500,-0.6533,0.2274,-0.6868,-0.2232,
2025-03-06 20:37:50.438,9.8500,-0.2000,0.3200,0.2500,0.2500,-0.2500,-0.6533,0.2275,-0.6868,-0.2232,
2025-03-06 20:37:50.448,9.8800,-0.1800,0.3300,-0.5625,0.2500,-0.1250,-0.6533,0.2275,-0.6868,-0.2232,
2025-03-06 20:37:50.459,9.8900,-0.1600,0.3500,-1.1875,0.3750,-0.1875,-0.6533,0.2275,-0.6868,-0.2232,
2025-03-06 20:37:50.469,9.8700,-0.1300,0.3500,-1.5000,0.6250,0.0625,-0.6533,0.2275,-0.6867,-0.2233,
2025-03-06 20:37:50.479,9.8800,-0.1400,0.3600,-1.1250,0.9375,0.1250,-0.6532,0.2276,-0.6868,-0.2234,
2025-03-06 20:37:50.490,9.8400,-0.1800,0.3600,-0.8750,1.0625,0.0000,-0.6531,0.2277,-0.6868,-0.2235,
2025-03-06 20:37:50.509,9.7500,-0.2300,0.3400,-0.3125,0.8750,-0.1875,-0.6531,0.2277,-0.6868,-0.2235,
2025-03-06 20:37:50.519,9.7300,-0.2200,0.3300,-0.0625,0.6250,-0.0625,-0.6530,0.2277,-0.6869,-0.2236,
2025-03-06 20:37:50.530,9.7400,-0.2500,0.3100,-0.1250,0.3125,-0.2500,-0.6530,0.2277,-0.6869,-0.2236,
2025-03-06 20:37:50.534,9.8100,-0.2700,0.3200,-0.6875,0.4375,-0.1875,-0.6530,0.2277,-0.6869,-0.2236,
2025-03-06 20:37:50.540,9.8400,-0.2700,0.3200,-0.6875,0.4375,-0.1875,-0.6530,0.2277,-0.6869,-0.2236,
2025-03-06 20:37:50.550,9.8600,-0.2800,0.3100,-1.3750,0.1250,-0.3750,-0.6529,0.2278,-0.6869,-0.2237,
2025-03-06 20:37:50.560,9.8500,-0.2300,0.3000,-1.3125,0.0000,-0.5625,-0.6529,0.2278,-0.6868,-0.2238,
2025-03-06 20:37:50.570,9.8000,-0.2400,0.3500,-0.9375,-0.1250,-0.5000,-0.6529,0.2279,-0.6868,-0.2238,
2025-03-06 20:37:50.580,9.7900,-0.2500,0.4000,-0.3750,-0.2500,-0.5625,-0.6529,0.2280,-0.6868,-0.2239,
2025-03-06 20:37:50.590,9.7900,-0.2600,0.4400,-0.2500,-0.1250,-0.5625,-0.6529,0.2280,-0.6868,-0.2239,
2025-03-06 20:37:50.600,9.7900,-0.2500,0.4300,0.0625,0.1250,-0.5625,-0.6529,0.2280,-0.6868,-0.2239,
2025-03-06 20:37:50.612,9.8200,-0.2200,0.3600,-0.0625,0.1250,-0.3750,-0.6529,0.2280,-0.6868,-0.2239,
2025-03-06 20:37:50.621,9.8400,-0.1900,0.3400,-0.5000,0.1250,-0.5000,-0.6529,0.2280,-0.6868,-0.2239,
2025-03-06 20:37:50.630,9.8500,-0.1600,0.3500,-1.0000,0.1250,-0.3750,-0.6529,0.2280,-0.6868,-0.2239,
2025-03-06 20:37:50.642,9.8200,-0.1300,0.3600,-1.0000,0.1250,-0.3750,-0.6528,0.2280,-0.6868,-0.2239,
2025-03-06 20:37:50.652,9.8400,-0.1300,0.3700,-1.3750,0.0625,-0.2500,-0.6528,0.2281,-0.6868,-0.2240,
2025-03-06 20:37:50.692,9.8300,-0.2000,0.3600,-1.3750,0.1250,-0.3125,-0.6528,0.2282,-0.6867,-0.2241,
2025-03-06 20:37:50.692,9.8300,-0.2600,0.3400,-0.9375,0.1250,-0.6250,-0.6528,0.2283,-0.6867,-0.2242,
2025-03-06 20:37:50.692,9.8400,-0.2700,0.3800,-0.5000,-0.1875,-0.5625,-0.6528,0.2283,-0.6867,-0.2242,
2025-03-06 20:37:50.692,9.8600,-0.2600,0.3700,-0.0625,-0.0625,-0.4375,-0.6528,0.2283,-0.6867,-0.2242,
2025-03-06 20:37:50.702,9.8700,-0.2500,0.3800,-0.0625,0.0625,-0.6250,-0.6528,0.2283,-0.6867,-0.2242,
2025-03-06 20:37:50.712,9.8400,-0.1800,0.3500,-0.5625,0.3750,-0.6250,-0.6528,0.2283,-0.6866,-0.2243,
2025-03-06 20:37:50.723,9.8200,-0.2100,0.3700,-0.7500,0.5000,-0.5000,-0.6528,0.2282,-0.6867,-0.2243,
2025-03-06 20:37:50.735,9.8300,-0.2300,0.3400,-1.0625,0.5625,-0.5625,-0.6528,0.2283,-0.6866,-0.2244,
2025-03-06 20:37:50.742,9.8200,-0.2800,0.3100,-1.0625,0.5625,-0.5625,-0.6528,0.2283,-0.6866,-0.2244,
2025-03-06 20:37:50.752,9.8400,-0.3200,0.3500,-0.8750,0.2500,-0.5000,-0.6527,0.2284,-0.6866,-0.2245,
2025-03-06 20:37:50.762,9.8900,-0.3400,0.3300,-0.6875,0.3125,-0.3750,-0.6527,0.2284,-0.6866,-0.2245,
2025-03-06 20:37:50.772,9.8700,-0.3000,0.3400,-0.1250,0.7500,-0.3750,-0.6527,0.2285,-0.6865,-0.2245,
2025-03-06 20:37:50.782,9.8500,-0.2700,0.3400,0.3750,0.6875,-0.3125,-0.6527,0.2285,-0.6866,-0.2246,
2025-03-06 20:37:50.792,9.8500,-0.2600,0.3300,0.3750,0.6875,-0.3125,-0.6526,0.2285,-0.6866,-0.2246,
2025-03-06 20:37:50.823,9.8600,-0.2400,0.3300,0.3750,0.4375,-0.3750,-0.6526,0.2284,-0.6866,-0.2245,
2025-03-06 20:37:50.823,9.8400,-0.2400,0.3700,0.3125,0.6250,-0.3750,-0.6526,0.2284,-0.6866,-0.2245,
2025-03-06 20:37:50.823,9.8400,-0.2500,0.3700,0.6250,0.6875,-0.3750,-0.6526,0.2284,-0.6867,-0.2246,
2025-03-06 20:37:50.833,9.8600,-0.2200,0.3900,0.8750,0.7500,-0.6250,-0.6526,0.2283,-0.6867,-0.2245,
2025-03-06 20:37:50.843,9.8500,-0.2100,0.3500,0.8750,0.7500,-0.6250,-0.6525,0.2283,-0.6868,-0.2246,
2025-03-06 20:37:50.853,9.8400,-0.1800,0.3300,0.6875,0.5000,-0.7500,-0.6525,0.2282,-0.6868,-0.2245,
2025-03-06 20:37:50.863,9.8200,-0.1900,0.3500,0.4375,0.3750,-0.6250,-0.6525,0.2281,-0.6868,-0.2245,
2025-03-06 20:37:50.873,9.8100,-0.2000,0.3600,0.3125,0.5625,-0.5625,-0.6526,0.2281,-0.6868,-0.2245,
2025-03-06 20:37:50.883,9.8100,-0.2000,0.3700,0.1250,0.6250,-0.3750,-0.6526,0.2281,-0.6868,-0.2245,
2025-03-06 20:37:50.893,9.8200,-0.2300,0.3700,0.1250,0.6250,-0.3750,-0.6525,0.2281,-0.6868,-0.2246,
2025-03-06 20:37:50.903,9.8300,-0.2300,0.3600,-0.0625,0.6875,-0.3750,-0.6525,0.2281,-0.6869,-0.2246,
2025-03-06 20:37:50.914,9.8000,-0.2100,0.3800,0.2500,0.6875,-0.6875,-0.6525,0.2280,-0.6869,-0.2246,
2025-03-06 20:37:50.924,9.8200,-0.2500,0.3800,0.3125,0.6250,-0.6250,-0.6524,0.2280,-0.6869,-0.2247,
2025-03-06 20:37:50.935,9.8500,-0.2500,0.3700,0.4375,0.2500,-0.7500,-0.6524,0.2280,-0.6869,-0.2247,
2025-03-06 20:37:50.944,9.8500,-0.2000,0.3500,0.4375,0.2500,-0.7500,-0.6524,0.2279,-0.6870,-0.2247,
2025-03-06 20:37:50.954,9.8500,-0.1700,0.3900,0.3750,0.3125,-0.8750,-0.6524,0.2278,-0.6870,-0.2248,
2025-03-06 20:37:50.964,9.8500,-0.1400,0.3700,0.3125,0.5625,-0.8750,-0.6525,0.2278,-0.6869,-0.2249,
2025-03-06 20:37:50.975,9.8400,-0.1500,0.3500,0.1250,0.6875,-0.9375,-0.6525,0.2278,-0.6869,-0.2249,
2025-03-06 20:37:50.984,9.8300,-0.1500,0.3500,-0.3125,0.6875,-0.9375,-0.6525,0.2277,-0.6869,-0.2250,
2025-03-06 20:37:50.994,9.7900,-0.1700,0.3400,-0.3125,0.6875,-0.9375,-0.6524,0.2277,-0.6869,-0.2250,
2025-03-06 20:37:51.007,9.7800,-0.1800,0.3000,-1.3125,0.9375,-0.6875,-0.6524,0.2276,-0.6869,-0.2252,
2025-03-06 20:37:51.014,9.7900,-0.2200,0.3000,-1.5000,0.8750,-0.7500,-0.6523,0.2277,-0.6870,-0.2253,
2025-03-06 20:37:51.024,9.7800,-0.2900,0.2900,-1.5625,0.6250,-0.6250,-0.6522,0.2277,-0.6870,-0.2254,
2025-03-06 20:37:51.039,9.8200,-0.3500,0.3500,-1.1250,0.3750,-0.4375,-0.6522,0.2277,-0.6869,-0.2256,
2025-03-06 20:37:51.043,9.8300,-0.3400,0.3700,-1.1250,0.3750,-0.4375,-0.6522,0.2278,-0.6869,-0.2256,
2025-03-06 20:37:51.054,9.8500,-0.3500,0.3900,-0.1250,0.3750,-0.3750,-0.6521,0.2278,-0.6869,-0.2256,
2025-03-06 20:37:51.065,9.8700,-0.3100,0.3900,0.1875,0.5000,-0.2500,-0.6521,0.2278,-0.6869,-0.2256,
2025-03-06 20:37:51.074,9.8600,-0.2600,0.3900,0.3750,0.4375,-0.4375,-0.6521,0.2278,-0.6869,-0.2256,
2025-03-06 20:37:51.083,9.8400,-0.2700,0.3800,0.3125,0.3125,-0.3750,-0.6521,0.2278,-0.6869,-0.2256,
2025-03-06 20:37:51.097,9.8300,-0.2600,0.4100,0.3125,0.3750,-0.3750,-0.6521,0.2278,-0.6869,-0.2256,
2025-03-06 20:37:51.122,9.8400,-0.2800,0.4100,0.6250,0.5000,-0.3750,-0.6521,0.2278,-0.6869,-0.2256,
2025-03-06 20:37:51.126,9.8200,-0.2800,0.4000,1.1250,0.5625,-0.4375,-0.6522,0.2278,-0.6869,-0.2256,
2025-03-06 20:37:51.126,9.8200,-0.2700,0.3600,1.5625,0.2500,-0.2500,-0.6522,0.2277,-0.6869,-0.2256,
2025-03-06 20:37:51.134,9.8200,-0.2700,0.3600,1.5000,0.1250,-0.3125,-0.6522,0.2276,-0.6870,-0.2255,
2025-03-06 20:37:51.143,9.8200,-0.2400,0.3700,1.5000,0.1250,-0.3125,-0.6522,0.2275,-0.6870,-0.2254,
2025-03-06 20:37:51.158,9.8500,-0.2200,0.3300,0.7500,0.1875,-0.5625,-0.6523,0.2275,-0.6870,-0.2253,
2025-03-06 20:37:51.163,9.8500,-0.2000,0.3700,0.5625,0.2500,-0.5625,-0.6523,0.2274,-0.6871,-0.2253,
2025-03-06 20:37:51.175,9.8300,-0.1800,0.3400,0.5625,0.3125,-0.5625,-0.6523,0.2274,-0.6871,-0.2253,
2025-03-06 20:37:51.186,9.8000,-0.1600,0.3600,0.6250,0.1250,-0.4375,-0.6523,0.2274,-0.6871,-0.2253,
2025-03-06 20:37:51.186,9.8200,-0.1500,0.3800,0.6250,0.1250,-0.4375,-0.6523,0.2274,-0.6871,-0.2253,
2025-03-06 20:37:51.196,9.8100,-0.1600,0.3800,0.2500,0.1875,-0.5000,-0.6523,0.2274,-0.6871,-0.2253,
2025-03-06 20:37:51.206,9.8300,-0.2000,0.3500,-0.2500,0.1875,-0.5000,-0.6523,0.2274,-0.6871,-0.2253,
2025-03-06 20:37:51.226,9.8200,-0.2200,0.3100,-0.3750,0.2500,-0.3750,-0.6523,0.2274,-0.6871,-0.2253,
2025-03-06 20:37:51.226,9.8400,-0.2100,0.3300,-0.5000,0.3750,-0.5000,-0.6523,0.2274,-0.6871,-0.2253,
2025-03-06 20:37:51.236,9.8300,-0.2300,0.3600,-0.5000,0.3750,-0.5000,-0.6523,0.2274,-0.6871,-0.2253,
2025-03-06 20:37:51.257,9.8400,-0.2200,0.4200,-0.4375,0.1250,-0.5625,-0.6523,0.2274,-0.6871,-0.2253,
2025-03-06 20:37:51.257,9.8500,-0.2600,0.4400,-0.3750,-0.0625,-0.6250,-0.6523,0.2274,-0.6871,-0.2253,
2025-03-06 20:37:51.277,9.8600,-0.2700,0.4300,-0.1250,0.1250,-0.6875,-0.6524,0.2273,-0.6870,-0.2253,
2025-03-06 20:37:51.277,9.8400,-0.3000,0.4000,0.3125,0.3125,-0.6250,-0.6523,0.2273,-0.6870,-0.2254,
2025-03-06 20:37:51.287,9.8500,-0.2800,0.3900,0.3125,0.3125,-0.6250,-0.6524,0.2272,-0.6870,-0.2254,
2025-03-06 20:37:51.297,9.8000,-0.2500,0.3600,1.4375,-0.1250,-0.5625,-0.6524,0.2272,-0.6870,-0.2254,
2025-03-06 20:37:51.307,9.7500,-0.1500,0.3500,1.1875,-0.5000,-0.5625,-0.6524,0.2271,-0.6871,-0.2253,
2025-03-06 20:37:51.327,9.8000,-0.1400,0.3900,0.6875,-0.3125,-0.6875,-0.6524,0.2271,-0.6871,-0.2252,
2025-03-06 20:37:51.337,9.8200,-0.1500,0.4300,0.2500,-0.0625,-0.8125,-0.6525,0.2269,-0.6871,-0.2252,
2025-03-06 20:37:51.337,9.8400,-0.2100,0.4100,0.2500,-0.0625,-0.8125,-0.6525,0.2269,-0.6871,-0.2253,
2025-03-06 20:37:51.347,9.8500,-0.2600,0.4200,0.0625,0.3750,-0.8750,-0.6525,0.2269,-0.6871,-0.2253,
2025-03-06 20:37:51.357,9.8400,-0.2700,0.3800,0.9375,0.0625,-0.7500,-0.6525,0.2268,-0.6870,-0.2254,
2025-03-06 20:37:51.367,9.8700,-0.3000,0.3400,1.2500,-0.2500,-0.6250,-0.6525,0.2267,-0.6871,-0.2253,
2025-03-06 20:37:51.377,9.8600,-0.2000,0.3300,1.4375,-0.2500,-0.5625,-0.6526,0.2266,-0.6870,-0.2253,
2025-03-06 20:37:51.387,9.8400,-0.1700,0.3400,1.4375,-0.2500,-0.5625,-0.6526,0.2266,-0.6871,-0.2252,
2025-03-06 20:37:51.417,9.8100,-0.1300,0.3400,1.3750,-0.3125,-0.5625,-0.6526,0.2264,-0.6871,-0.2252,
2025-03-06 20:37:51.417,9.7800,-0.1100,0.3500,0.3125,0.0625,-0.4375,-0.6526,0.2264,-0.6871,-0.2251,
2025-03-06 20:37:51.428,9.8100,-0.1800,0.3600,-0.3125,0.2500,-0.3125,-0.6526,0.2264,-0.6871,-0.2251,
2025-03-06 20:37:51.434,9.8300,-0.1800,0.3900,-0.5625,0.2500,-0.2500,-0.6526,0.2264,-0.6871,-0.2251,
2025-03-06 20:37:51.439,9.8200,-0.2100,0.4100,-0.5625,0.2500,-0.2500,-0.6526,0.2264,-0.6871,-0.2251,
2025-03-06 20:37:51.458,9.8500,-0.1700,0.4100,0.2500,-0.1250,-0.1875,-0.6526,0.2264,-0.6871,-0.2251,
2025-03-06 20:37:51.458,9.8500,-0.1300,0.4000,0.4375,-0.0625,-0.4375,-0.6526,0.2264,-0.6871,-0.2251,
2025-03-06 20:37:51.468,9.8500,-0.1000,0.3500,0.3125,0.1250,-0.5000,-0.6526,0.2264,-0.6871,-0.2251,
2025-03-06 20:37:51.488,9.8500,-0.0800,0.3600,-0.2500,0.1875,-0.6875,-0.6526,0.2264,-0.6871,-0.2251,
2025-03-06 20:37:51.498,9.8300,-0.1100,0.3800,-0.2500,0.1875,-0.6875,-0.6526,0.2264,-0.6871,-0.2252,
2025-03-06 20:37:51.498,9.8100,-0.1500,0.3600,-1.3750,0.5000,-0.6250,-0.6526,0.2264,-0.6871,-0.2252,
2025-03-06 20:37:51.518,9.8300,-0.1700,0.3300,-1.8750,0.2500,-0.5000,-0.6526,0.2264,-0.6871,-0.2253,
2025-03-06 20:37:51.518,9.8600,-0.2400,0.3000,-1.9375,0.1875,-0.6875,-0.6526,0.2266,-0.6870,-0.2254,
2025-03-06 20:37:51.528,9.8500,-0.2600,0.3100,-1.7500,0.0000,-0.6250,-0.6525,0.2266,-0.6870,-0.2256,
2025-03-06 20:37:51.538,9.8400,-0.2400,0.3300,-1.7500,0.0000,-0.6250,-0.6525,0.2267,-0.6869,-0.2257,
2025-03-06 20:37:51.558,9.8300,-0.2400,0.3500,-0.8750,-0.1250,-0.8125,-0.6525,0.2267,-0.6869,-0.2258,
2025-03-06 20:37:51.558,9.8700,-0.2100,0.4400,-0.7500,0.0000,-0.7500,-0.6525,0.2267,-0.6868,-0.2259,
2025-03-06 20:37:51.578,9.8500,-0.2000,0.4400,-0.5000,-0.1250,-0.6250,-0.6525,0.2267,-0.6868,-0.2260,
2025-03-06 20:37:51.587,9.8600,-0.1800,0.4300,-0.3750,0.1250,-1.0000,-0.6525,0.2267,-0.6868,-0.2260,
2025-03-06 20:37:51.599,9.8400,-0.1600,0.4000,-0.3750,0.1250,-1.0000,-0.6525,0.2267,-0.6868,-0.2261,
2025-03-06 20:37:51.608,9.8400,-0.1800,0.3900,-0.3750,0.1250,-0.8750,-0.6526,0.2266,-0.6868,-0.2261,
2025-03-06 20:37:51.609,9.8000,-0.2000,0.3900,-0.4375,0.0625,-0.8750,-0.6526,0.2266,-0.6868,-0.2262,
2025-03-06 20:37:51.625,9.8300,-0.2300,0.3900,-0.1875,0.1250,-0.8750,-0.6526,0.2265,-0.6868,-0.2263,
2025-03-06 20:37:51.630,9.8300,-0.2100,0.3600,0.3750,0.1250,-0.6250,-0.6526,0.2264,-0.6867,-0.2263,
2025-03-06 20:37:51.641,9.8000,-0.1800,0.3900,0.3750,0.1250,-0.6250,-0.6526,0.2264,-0.6867,-0.2263,
2025-03-06 20:37:51.650,9.8000,-0.1200,0.3400,0.1875,-0.1250,-0.1250,-0.6526,0.2264,-0.6867,-0.2263,
2025-03-06 20:37:51.660,9.8100,-0.0800,0.3500,-0.1875,-0.1875,-0.0625,-0.6526,0.2264,-0.6867,-0.2263,
2025-03-06 20:37:51.670,9.8000,-0.0700,0.3400,-0.7500,-0.1250,-0.1875,-0.6526,0.2264,-0.6867,-0.2263,
2025-03-06 20:37:51.680,9.8200,-0.1000,0.3900,-1.1875,-0.0625,-0.5000,-0.6526,0.2265,-0.6867,-0.2264,
2025-03-06 20:37:51.690,9.8200,-0.1200,0.3800,-1.1875,-0.0625,-0.5000,-0.6526,0.2266,-0.6867,-0.2264,
2025-03-06 20:37:51.710,9.8000,-0.1600,0.4400,-1.3125,0.0625,-0.8125,-0.6526,0.2266,-0.6866,-0.2266,
2025-03-06 20:37:51.710,9.8200,-0.2300,0.4200,-0.7500,-0.0625,-1.4375,-0.6526,0.2266,-0.6866,-0.2267,
2025-03-06 20:37:51.720,9.8200,-0.2800,0.4000,-0.4375,-0.0625,-1.4375,-0.6526,0.2266,-0.6865,-0.2268,
2025-03-06 20:37:51.741,9.8300,-0.3500,0.3500,0.0625,-0.1250,-1.4375,-0.6526,0.2265,-0.6865,-0.2269,
2025-03-06 20:37:51.762,9.8600,-0.3100,0.3700,0.0625,-0.1250,-1.4375,-0.6526,0.2264,-0.6865,-0.2270,
2025-03-06 20:37:51.762,9.8600,-0.2400,0.3600,0.5625,-0.2500,-1.5000,-0.6527,0.2263,-0.6865,-0.2271,
2025-03-06 20:37:51.771,9.8700,-0.1800,0.3500,1.1250,-0.3125,-0.8750,-0.6527,0.2262,-0.6865,-0.2271,
2025-03-06 20:37:51.775,9.8500,-0.1000,0.3300,1.0000,-0.5625,-0.7500,-0.6528,0.2261,-0.6865,-0.2271,
2025-03-06 20:37:51.782,9.8400,-0.1000,0.3400,0.6250,-0.3125,-0.6875,-0.6528,0.2260,-0.6865,-0.2271,
2025-03-06 20:37:51.792,9.8500,-0.1300,0.3700,0.6250,-0.3125,-0.6875,-0.6528,0.2259,-0.6865,-0.2271,
2025-03-06 20:37:51.804,9.8300,-0.1400,0.4000,0.0000,0.0000,-0.4375,-0.6528,0.2259,-0.6865,-0.2271,
2025-03-06 20:37:51.813,9.8200,-0.1500,0.4200,0.1875,0.1875,-0.5625,-0.6528,0.2259,-0.6865,-0.2271,
2025-03-06 20:37:51.824,9.8200,-0.1700,0.4000,0.4375,0.1875,-0.4375,-0.6528,0.2259,-0.6865,-0.2271,
2025-03-06 20:37:51.835,9.8300,-0.1800,0.3900,0.8750,0.0625,-0.5625,-0.6528,0.2259,-0.6865,-0.2271,
2025-03-06 20:37:51.847,9.8300,-0.1700,0.3200,0.8750,0.0625,-0.5625,-0.6528,0.2258,-0.6865,-0.2271,
2025-03-06 20:37:51.853,9.8300,-0.1600,0.3400,0.9375,-0.1250,-0.5000,-0.6529,0.2257,-0.6865,-0.2271,
2025-03-06 20:37:51.865,9.8200,-0.2000,0.3200,0.7500,-0.1250,-0.6250,-0.6529,0.2256,-0.6865,-0.2270,
2025-03-06 20:37:51.878,9.8300,-0.1800,0.3500,0.6875,0.0625,-0.5000,-0.6529,0.2256,-0.6865,-0.2270,
2025-03-06 20:37:51.884,9.8000,-0.1900,0.3600,0.7500,0.0625,-0.4375,-0.6529,0.2255,-0.6865,-0.2269,
2025-03-06 20:37:51.884,9.8200,-0.2100,0.3700,0.7500,0.0625,-0.4375,-0.6530,0.2255,-0.6865,-0.2269,
2025-03-06 20:37:51.904,9.8300,-0.2100,0.3600,1.4375,-0.3125,-0.3750,-0.6530,0.2254,-0.6865,-0.2269,
2025-03-06 20:37:51.914,9.8400,-0.1900,0.3600,1.5625,-0.4375,-0.1250,-0.6530,0.2253,-0.6866,-0.2267,
2025-03-06 20:37:51.925,9.8400,-0.1100,0.3100,1.4375,-0.3750,-0.0625,-0.6530,0.2253,-0.6866,-0.2267,
2025-03-06 20:37:51.939,9.8700,-0.0900,0.3300,1.1875,-0.3750,-0.2500,-0.6531,0.2252,-0.6866,-0.2266,
2025-03-06 20:37:51.943,9.8300,-0.0500,0.3900,1.1875,-0.3750,-0.2500,-0.6531,0.2251,-0.6866,-0.2266,
2025-03-06 20:37:51.954,9.8300,-0.0900,0.4100,0.5000,0.0000,-0.2500,-0.6531,0.2250,-0.6867,-0.2265,
2025-03-06 20:37:51.966,9.8400,-0.1000,0.4000,0.5625,0.1875,-0.5000,-0.6531,0.2250,-0.6867,-0.2265,
2025-03-06 20:37:51.982,9.8300,-0.1700,0.3300,0.5625,0.3125,-0.6250,-0.6531,0.2250,-0.6867,-0.2265,
2025-03-06 20:37:51.985,9.8000,-0.2100,0.3000,0.8125,0.1250,-0.5625,-0.6531,0.2250,-0.6866,-0.2265,
2025-03-06 20:37:52.015,9.7700,-0.2200,0.2900,0.8125,0.1250,-0.5625,-0.6531,0.2250,-0.6867,-0.2264,
2025-03-06 20:37:52.015,9.8300,-0.2100,0.2900,1.5000,-0.1875,-0.3750,-0.6531,0.2249,-0.6867,-0.2264,
2025-03-06 20:37:52.018,9.8400,-0.1500,0.3000,1.2500,-0.2500,-0.1250,-0.6532,0.2248,-0.6867,-0.2263,
2025-03-06 20:37:52.031,9.8300,-0.1000,0.3200,0.9375,-0.3750,0.1875,-0.6532,0.2247,-0.6868,-0.2263,
2025-03-06 20:37:52.039,9.8300,-0.0900,0.3300,0.3750,-0.1250,0.1875,-0.6532,0.2247,-0.6868,-0.2262,
2025-03-06 20:37:52.045,9.8900,-0.1000,0.3500,0.3750,-0.1250,0.1875,-0.6532,0.2247,-0.6868,-0.2262,
