A1,,,,,,,,,,,
time,accx,accy,accz,gyrox,gyroy,gyroz,w1,w2,w3,w4,
2025-03-09 22:55:50.814,9.7100,0.3900,-1.2600,0.0625,-0.5625,1.0625,0.6971,-0.2701,0.6065,0.2708,
2025-03-09 22:55:50.827,9.7300,0.4100,-1.2300,-0.1875,0.0000,0.7500,0.6971,-0.2701,0.6065,0.2708,
2025-03-09 22:55:50.831,9.7100,0.4000,-1.2600,-0.1875,0.4375,0.3750,0.6971,-0.2701,0.6065,0.2708,
2025-03-09 22:55:50.843,9.7100,0.4900,-1.2100,-0.1250,1.1250,0.1250,0.6970,-0.2701,0.6066,0.2707,
2025-03-09 22:55:50.858,9.7100,0.4600,-1.1900,-0.1250,1.3125,0.1875,0.6969,-0.2701,0.6066,0.2708,
2025-03-09 22:55:50.864,9.7100,0.3800,-1.2400,-0.3750,1.0000,0.8125,0.6969,-0.2701,0.6067,0.2708,
2025-03-09 22:55:50.872,9.7100,0.4200,-1.1400,-0.2500,1.3125,0.7500,0.6968,-0.2701,0.6068,0.2708,
2025-03-09 22:55:50.883,9.7400,0.3800,-1.1800,-0.4375,0.7500,0.7500,0.6967,-0.2701,0.6069,0.2708,
2025-03-09 22:55:50.891,9.7300,0.3500,-1.1500,-0.1875,0.2500,0.4375,0.6967,-0.2701,0.6069,0.2708,
2025-03-09 22:55:50.899,9.7100,0.4400,-1.1700,-0.0625,-0.4375,-0.3125,0.6967,-0.2701,0.6069,0.2708,
2025-03-09 22:55:50.912,9.7000,0.4300,-1.2200,0.0625,-0.9375,-0.3125,0.6968,-0.2702,0.6068,0.2707,
2025-03-09 22:55:50.920,9.7100,0.4100,-1.2000,0.1875,-0.9375,0.0000,0.6968,-0.2702,0.6067,0.2707,
2025-03-09 22:55:50.942,9.7200,0.4000,-1.2200,0.0625,-1.0625,0.0000,0.6969,-0.2703,0.6067,0.2707,
2025-03-09 22:55:50.942,9.7100,0.4400,-1.2400,0.0625,-0.8750,0.0625,0.6969,-0.2703,0.6066,0.2707,
2025-03-09 22:55:50.957,9.7300,0.3900,-1.2300,0.0625,-0.4375,-0.0625,0.6969,-0.2703,0.6066,0.2707,
2025-03-09 22:55:50.967,9.7100,0.4500,-1.2200,-0.1250,-0.2500,-0.1875,0.6969,-0.2703,0.6066,0.2707,
2025-03-09 22:55:50.972,9.7100,0.4100,-1.2000,-0.1250,0.1875,0.1250,0.6969,-0.2703,0.6066,0.2707,
2025-03-09 22:55:50.980,9.7100,0.4300,-1.2300,-0.2500,0.3750,0.1250,0.6969,-0.2703,0.6066,0.2707,
2025-03-09 22:55:50.998,9.7100,0.4400,-1.2100,-0.3125,0.3125,0.3750,0.6969,-0.2703,0.6066,0.2707,
2025-03-09 22:55:51.000,9.7200,0.4200,-1.2100,-0.3750,0.3125,0.3750,0.6969,-0.2703,0.6066,0.2707,
2025-03-09 22:55:51.010,9.7200,0.3800,-1.2400,-0.2500,0.1875,0.1875,0.6969,-0.2703,0.6066,0.2707,
2025-03-09 22:55:51.020,9.7200,0.4100,-1.2000,-0.2500,0.5000,-0.1875,0.6969,-0.2703,0.6066,0.2707,
2025-03-09 22:55:51.072,9.6800,0.4500,-1.2000,-0.3750,0.5625,-0.4375,0.6969,-0.2703,0.6066,0.2707,
2025-03-09 22:55:51.072,9.7100,0.4400,-1.1800,-0.2500,0.2500,-0.1250,0.6969,-0.2703,0.6066,0.2707,
2025-03-09 22:55:51.072,9.7200,0.4600,-1.1800,-0.3125,0.1250,-0.1875,0.6969,-0.2703,0.6066,0.2707,
2025-03-09 22:55:51.072,9.7200,0.3900,-1.2100,-0.3125,-0.3750,0.1250,0.6969,-0.2703,0.6066,0.2707,
2025-03-09 22:55:51.072,9.6900,0.3800,-1.2300,-0.3125,-0.6250,0.3750,0.6970,-0.2703,0.6066,0.2706,
2025-03-09 22:55:51.082,9.7000,0.4700,-1.2100,-0.1875,-0.2500,0.0625,0.6970,-0.2703,0.6066,0.2706,
2025-03-09 22:55:51.090,9.7200,0.4000,-1.2700,0.0000,-0.1875,0.1250,0.6970,-0.2703,0.6066,0.2706,
2025-03-09 22:55:51.100,9.7200,0.4200,-1.2300,0.1875,0.0625,0.3750,0.6970,-0.2703,0.6066,0.2706,
2025-03-09 22:55:51.111,9.7300,0.4000,-1.2100,0.1250,0.5625,0.2500,0.6970,-0.2703,0.6066,0.2706,
2025-03-09 22:55:51.120,9.7200,0.3900,-1.2200,0.1875,0.6875,0.1875,0.6969,-0.2703,0.6066,0.2707,
2025-03-09 22:55:51.130,9.7300,0.4200,-1.1900,0.0625,0.8125,0.1250,0.6969,-0.2703,0.6067,0.2707,
2025-03-09 22:55:51.144,9.7100,0.4500,-1.2000,0.2500,0.5000,-0.0625,0.6969,-0.2703,0.6067,0.2707,
2025-03-09 22:55:51.151,9.7400,0.4000,-1.2100,0.0625,-0.1875,-0.0625,0.6969,-0.2703,0.6067,0.2707,
2025-03-09 22:55:51.165,9.7000,0.4200,-1.2500,-0.1250,-0.1250,-0.1250,0.6969,-0.2703,0.6067,0.2707,
2025-03-09 22:55:51.173,9.7300,0.4000,-1.1900,-0.1250,-0.1250,0.0000,0.6969,-0.2703,0.6067,0.2707,
2025-03-09 22:55:51.181,9.7200,0.4100,-1.2600,0.0000,0.1250,0.1250,0.6969,-0.2703,0.6067,0.2707,
2025-03-09 22:55:51.190,9.7300,0.4000,-1.2000,0.1250,0.3125,-0.0625,0.6969,-0.2703,0.6067,0.2707,
2025-03-09 22:55:51.201,9.7300,0.4600,-1.2100,0.2500,0.6250,-0.1875,0.6969,-0.2703,0.6067,0.2707,
2025-03-09 22:55:51.210,9.7300,0.4200,-1.2000,0.3750,0.5000,-0.1875,0.6969,-0.2702,0.6067,0.2707,
2025-03-09 22:55:51.222,9.7100,0.4000,-1.2000,0.2500,0.1875,0.1875,0.6969,-0.2702,0.6067,0.2707,
2025-03-09 22:55:51.237,9.7100,0.4200,-1.2200,0.1250,0.3750,-0.1250,0.6969,-0.2702,0.6067,0.2707,
2025-03-09 22:55:51.241,9.7200,0.4100,-1.1900,-0.0625,0.2500,-0.3125,0.6969,-0.2702,0.6067,0.2707,
2025-03-09 22:55:51.251,9.7400,0.4200,-1.2300,-0.1250,-0.1875,0.1250,0.6969,-0.2702,0.6067,0.2707,
2025-03-09 22:55:51.275,9.7100,0.4300,-1.2200,0.1250,-0.2500,0.1250,0.6969,-0.2702,0.6067,0.2707,
2025-03-09 22:55:51.275,9.7200,0.4400,-1.2300,0.0000,0.2500,-0.1250,0.6969,-0.2702,0.6067,0.2707,
2025-03-09 22:55:51.281,9.7300,0.4200,-1.2500,0.1250,0.6250,0.3125,0.6969,-0.2702,0.6067,0.2707,
2025-03-09 22:55:51.298,9.7200,0.4300,-1.2200,0.1875,0.7500,0.5000,0.6968,-0.2702,0.6067,0.2707,
2025-03-09 22:55:51.300,9.7300,0.4200,-1.2000,0.1250,1.0000,0.4375,0.6968,-0.2702,0.6068,0.2707,
2025-03-09 22:55:51.312,9.7100,0.4200,-1.1600,0.0625,0.8750,0.2500,0.6967,-0.2701,0.6069,0.2708,
2025-03-09 22:55:51.321,9.7400,0.3900,-1.1900,0.0000,0.4375,0.3125,0.6967,-0.2701,0.6069,0.2708,
2025-03-09 22:55:51.371,9.6900,0.3800,-1.2100,0.0625,0.2500,-0.0625,0.6967,-0.2701,0.6069,0.2708,
2025-03-09 22:55:51.371,9.7300,0.3900,-1.2200,0.0625,0.0000,-0.0625,0.6967,-0.2701,0.6069,0.2708,
2025-03-09 22:55:51.371,9.7200,0.4600,-1.2200,-0.0625,0.4375,-0.1875,0.6967,-0.2701,0.6069,0.2708,
2025-03-09 22:55:51.371,9.7300,0.3600,-1.2300,-0.0625,0.7500,0.1250,0.6967,-0.2701,0.6069,0.2708,
2025-03-09 22:55:51.371,9.7200,0.4700,-1.1500,0.1250,0.8750,0.8750,0.6967,-0.2701,0.6069,0.2708,
2025-03-09 22:55:51.382,9.7300,0.3800,-1.1900,-0.2500,1.2500,0.5625,0.6966,-0.2701,0.6070,0.2708,
2025-03-09 22:55:51.391,9.7200,0.3700,-1.1400,-0.1875,0.8125,0.5625,0.6965,-0.2701,0.6071,0.2708,
2025-03-09 22:55:51.401,9.7500,0.4300,-1.1700,-0.0625,0.1250,0.2500,0.6965,-0.2701,0.6071,0.2708,
2025-03-09 22:55:51.412,9.7300,0.4100,-1.2100,0.1250,-0.1875,0.0625,0.6965,-0.2701,0.6071,0.2708,
2025-03-09 22:55:51.421,9.7200,0.4200,-1.1800,0.0625,-0.4375,0.1250,0.6965,-0.2701,0.6071,0.2708,
2025-03-09 22:55:51.431,9.7200,0.4300,-1.2000,0.1250,-0.5625,-0.1875,0.6965,-0.2701,0.6071,0.2708,
2025-03-09 22:55:51.446,9.7100,0.3600,-1.2500,0.1250,-0.6875,0.3125,0.6965,-0.2701,0.6071,0.2708,
2025-03-09 22:55:51.451,9.7200,0.3800,-1.1700,0.0000,-0.6875,0.5000,0.6965,-0.2701,0.6071,0.2708,
2025-03-09 22:55:51.470,9.7000,0.4100,-1.1700,0.1250,-0.6250,-0.0625,0.6965,-0.2701,0.6071,0.2708,
2025-03-09 22:55:51.480,9.7200,0.4200,-1.1700,-0.0625,-0.8125,-0.1250,0.6966,-0.2701,0.6070,0.2707,
2025-03-09 22:55:51.483,9.7200,0.4200,-1.1900,-0.1250,-0.9375,-0.3125,0.6966,-0.2702,0.6070,0.2708,
2025-03-09 22:55:51.494,9.7200,0.4500,-1.1800,-0.1875,-1.2500,-0.2500,0.6967,-0.2702,0.6069,0.2708,
2025-03-09 22:55:51.506,9.7200,0.4100,-1.2300,-0.1875,-1.5000,0.1875,0.6967,-0.2702,0.6069,0.2707,
2025-03-09 22:55:51.512,9.7200,0.4200,-1.2300,-0.1250,-1.4375,0.5000,0.6968,-0.2703,0.6067,0.2707,
2025-03-09 22:55:51.526,9.7300,0.3600,-1.2500,-0.4375,-1.3750,0.7500,0.6969,-0.2703,0.6067,0.2706,
2025-03-09 22:55:51.536,9.7000,0.3500,-1.2200,-0.3125,-0.9375,0.5000,0.6969,-0.2704,0.6066,0.2706,
2025-03-09 22:55:51.541,9.7100,0.3800,-1.1900,-0.3125,-0.5625,-0.1875,0.6970,-0.2704,0.6066,0.2706,
2025-03-09 22:55:51.551,9.7400,0.4300,-1.1600,-0.1250,-0.5625,-0.5625,0.6970,-0.2704,0.6066,0.2706,
2025-03-09 22:55:51.562,9.7100,0.4700,-1.1300,0.1250,-1.0000,-0.4375,0.6970,-0.2704,0.6066,0.2706,
2025-03-09 22:55:51.574,9.7200,0.4700,-1.1200,0.2500,-2.0000,0.1250,0.6970,-0.2704,0.6065,0.2705,
2025-03-09 22:55:51.583,9.7100,0.3900,-1.2500,0.0625,-3.3750,0.6875,0.6971,-0.2704,0.6064,0.2704,
2025-03-09 22:55:51.592,9.7300,0.3800,-1.2700,-0.0625,-3.9375,0.6250,0.6973,-0.2706,0.6062,0.2704,
2025-03-09 22:55:51.602,9.7000,0.4100,-1.2800,-0.0625,-3.6250,0.3750,0.6975,-0.2707,0.6060,0.2703,
2025-03-09 22:55:51.612,9.7000,0.3900,-1.3300,-0.1250,-3.0000,0.3125,0.6977,-0.2708,0.6058,0.2701,
2025-03-09 22:55:51.628,9.6900,0.3600,-1.2800,-0.0625,-2.3750,0.3750,0.6978,-0.2709,0.6056,0.2701,
2025-03-09 22:55:51.677,9.7000,0.3900,-1.2700,0.3125,-1.4375,0.1875,0.6980,-0.2709,0.6054,0.2700,
2025-03-09 22:55:51.698,9.7300,0.3700,-1.2800,0.4375,-0.9375,0.1250,0.6980,-0.2709,0.6054,0.2700,
2025-03-09 22:55:51.699,9.7100,0.5000,-1.2300,0.1875,-0.6250,-0.3750,0.6981,-0.2710,0.6053,0.2700,
2025-03-09 22:55:51.699,9.6900,0.4100,-1.3000,-0.0625,-1.0625,0.0625,0.6981,-0.2710,0.6053,0.2700,
2025-03-09 22:55:51.699,9.7300,0.3700,-1.3600,-0.1875,-1.0000,0.7500,0.6982,-0.2710,0.6052,0.2699,
2025-03-09 22:55:51.699,9.6900,0.4000,-1.2600,0.1875,-0.0625,1.0000,0.6982,-0.2711,0.6052,0.2699,
2025-03-09 22:55:51.699,9.7100,0.3300,-1.2500,0.3750,0.6250,1.0625,0.6982,-0.2711,0.6052,0.2698,
2025-03-09 22:55:51.702,9.7000,0.3500,-1.2500,0.6875,0.7500,0.9375,0.6981,-0.2712,0.6052,0.2698,
2025-03-09 22:55:51.717,9.7300,0.3700,-1.2400,0.6875,0.7500,0.3125,0.6981,-0.2712,0.6053,0.2697,
2025-03-09 22:55:51.724,9.7100,0.4000,-1.1400,0.6875,1.0625,-0.1875,0.6981,-0.2711,0.6054,0.2697,
2025-03-09 22:55:51.753,9.7100,0.3400,-1.2000,0.8125,0.2500,-0.3750,0.6980,-0.2711,0.6055,0.2697,
2025-03-09 22:55:51.753,9.7200,0.4000,-1.1900,1.1250,-0.6875,-0.6875,0.6980,-0.2711,0.6055,0.2696,
2025-03-09 22:55:51.754,9.7000,0.3800,-1.2300,1.1875,-1.6250,-1.2500,0.6981,-0.2709,0.6055,0.2696,
2025-03-09 22:55:51.769,9.7000,0.3600,-1.2400,1.0625,-3.0625,-1.3125,0.6982,-0.2709,0.6053,0.2695,
2025-03-09 22:55:51.777,9.7000,0.4900,-1.2100,0.8125,-3.8125,-1.6250,0.6985,-0.2708,0.6051,0.2695,
2025-03-09 22:55:51.782,9.6900,0.5700,-1.2700,0.2500,-4.2500,-1.6250,0.6987,-0.2707,0.6049,0.2694,
2025-03-09 22:55:51.792,9.6900,0.4900,-1.4000,-0.1875,-4.6875,-0.5625,0.6990,-0.2708,0.6046,0.2694,
2025-03-09 22:55:51.802,9.7100,0.4300,-1.4600,-0.5625,-2.9375,-0.3750,0.6992,-0.2709,0.6044,0.2693,
2025-03-09 22:55:51.812,9.6900,0.4800,-1.3700,-0.5625,-0.6250,0.5625,0.6993,-0.2709,0.6042,0.2692,
2025-03-09 22:55:51.827,9.6900,0.4100,-1.4200,-1.0625,1.2500,1.1250,0.6994,-0.2709,0.6041,0.2692,
2025-03-09 22:55:51.832,9.7500,0.2900,-1.3400,-1.6250,3.0625,1.5000,0.6993,-0.2710,0.6042,0.2692,
2025-03-09 22:55:51.842,9.7500,0.3500,-1.2700,-2.1250,3.3750,1.2500,0.6990,-0.2711,0.6044,0.2694,
2025-03-09 22:55:51.852,9.6700,0.4400,-1.0600,-1.5000,3.9375,0.3750,0.6988,-0.2712,0.6046,0.2695,
2025-03-09 22:55:51.861,9.7200,0.3300,-1.1700,-1.3125,2.6875,0.0000,0.6985,-0.2712,0.6048,0.2696,
2025-03-09 22:55:51.880,9.7100,0.3800,-1.2100,-0.9375,1.0000,-1.0625,0.6984,-0.2712,0.6049,0.2698,
2025-03-09 22:55:51.882,9.7400,0.3900,-1.2700,-0.2500,0.3750,-2.1875,0.6984,-0.2712,0.6049,0.2699,
2025-03-09 22:55:51.895,9.7900,0.4200,-1.2200,-0.1250,-0.5625,-2.3125,0.6984,-0.2711,0.6049,0.2700,
2025-03-09 22:55:51.902,9.7900,0.4500,-1.2500,0.1250,-1.0625,-2.1250,0.6984,-0.2709,0.6048,0.2701,
2025-03-09 22:55:51.911,9.7500,0.4100,-1.2400,-0.0625,-2.0000,-1.5625,0.6986,-0.2708,0.6047,0.2703,
2025-03-09 22:55:51.922,9.6500,0.4300,-1.2300,0.0000,-2.3750,-1.0625,0.6987,-0.2708,0.6046,0.2703,
2025-03-09 22:55:51.965,9.6600,0.4700,-1.1700,0.1875,-2.3125,-1.1250,0.6989,-0.2708,0.6044,0.2703,
2025-03-09 22:55:51.966,9.6500,0.4200,-1.2500,0.4375,-3.1250,-0.5625,0.6990,-0.2708,0.6042,0.2703,
2025-03-09 22:55:51.966,9.6600,0.4400,-1.3000,0.7500,-4.1875,-0.1875,0.6992,-0.2708,0.6040,0.2702,
2025-03-09 22:55:51.971,9.6600,0.4400,-1.3000,0.5000,-3.1875,0.0625,0.6994,-0.2709,0.6038,0.2701,
2025-03-09 22:55:51.984,9.7300,0.5200,-1.4600,0.5000,-3.1875,0.0625,0.6995,-0.2709,0.6036,0.2700,
2025-03-09 22:55:51.984,9.7100,0.4400,-1.4500,0.2500,1.1875,1.8750,0.6997,-0.2710,0.6034,0.2699,
2025-03-09 22:55:52.002,9.6700,0.3700,-1.2600,-0.1875,4.9375,1.6875,0.6995,-0.2712,0.6036,0.2698,
2025-03-09 22:55:52.012,9.6700,0.3700,-1.2600,-0.1875,6.0000,0.6875,0.6992,-0.2712,0.6040,0.2698,
2025-03-09 22:55:52.029,9.6800,0.3600,-1.0900,-0.5000,4.3125,0.5000,0.6989,-0.2711,0.6044,0.2699,
2025-03-09 22:55:52.032,9.7400,0.2900,-1.0900,-0.9375,1.8125,-0.8125,0.6987,-0.2710,0.6046,0.2700,
2025-03-09 22:55:52.047,9.7200,0.3900,-1.0600,-1.5000,-1.2500,-2.0000,0.6986,-0.2709,0.6047,0.2701,
2025-03-09 22:55:52.052,9.7000,0.4400,-1.1400,-2.0625,-3.8750,-2.2500,0.6986,-0.2709,0.6045,0.2703,
2025-03-09 22:55:52.061,9.7000,0.4400,-1.1400,-2.0625,-5.1875,-2.4375,0.6988,-0.2710,0.6042,0.2704,
2025-03-09 22:55:52.076,9.7000,0.4500,-1.4400,-1.3125,-5.0000,-2.5000,0.6991,-0.2711,0.6038,0.2706,
2025-03-09 22:55:52.088,9.7200,0.5100,-1.4300,-0.6250,-3.6250,-2.1250,0.6994,-0.2711,0.6034,0.2707,
2025-03-09 22:55:52.094,9.7100,0.4200,-1.4500,-0.2500,-1.8750,-1.5000,0.6996,-0.2711,0.6031,0.2707,
2025-03-09 22:55:52.105,9.7100,0.4200,-1.4800,-0.1875,0.5625,-1.3125,0.6998,-0.2711,0.6030,0.2707,
2025-03-09 22:55:52.125,9.6900,0.4900,-1.3900,-1.0000,5.2500,0.3750,0.6996,-0.2709,0.6031,0.2709,
2025-03-09 22:55:52.140,9.6700,0.4400,-1.3000,-2.1875,6.3125,1.0000,0.6993,-0.2708,0.6034,0.2711,
2025-03-09 22:55:52.143,9.7200,0.5000,-1.1300,-2.0625,6.0000,0.9375,0.6990,-0.2708,0.6037,0.2714,
2025-03-09 22:55:52.154,9.7100,0.5800,-1.0000,-1.1875,4.6250,1.7500,0.6986,-0.2708,0.6041,0.2716,
2025-03-09 22:55:52.170,9.7100,0.5800,-1.0000,-0.1250,1.9375,3.3125,0.6982,-0.2709,0.6044,0.2717,
2025-03-09 22:55:52.173,9.7100,0.3700,-1.0900,0.3750,-0.1875,3.1875,0.6981,-0.2711,0.6046,0.2715,
2025-03-09 22:55:52.186,9.7100,0.3000,-1.1700,0.8750,-2.2500,2.4375,0.6980,-0.2712,0.6046,0.2714,
2025-03-09 22:55:52.197,9.7200,0.3600,-1.2400,1.0625,-3.5000,1.3125,0.6981,-0.2714,0.6046,0.2711,
2025-03-09 22:55:52.211,9.7200,0.4000,-1.3200,1.1250,-3.6250,0.6875,0.6985,-0.2715,0.6042,0.2707,
2025-03-09 22:55:52.226,9.7100,0.4800,-1.4900,1.5000,-1.1250,1.5000,0.6986,-0.2716,0.6041,0.2706,
2025-03-09 22:55:52.271,9.7200,0.5500,-1.4200,2.4375,1.4375,2.3750,0.6987,-0.2717,0.6041,0.2704,
2025-03-09 22:55:52.271,9.7200,0.6200,-1.3700,3.6875,3.3750,4.6875,0.6986,-0.2716,0.6043,0.2701,
2025-03-09 22:55:52.271,9.7500,0.6100,-1.3000,4.1875,4.8750,8.0625,0.6984,-0.2717,0.6047,0.2698,
2025-03-09 22:55:52.272,9.7500,0.3600,-1.2100,5.4375,7.1250,13.1875,0.6976,-0.2721,0.6060,0.2685,
2025-03-09 22:55:52.293,9.7500,0.2400,-1.1900,3.8125,8.1250,10.8125,0.6965,-0.2728,0.6077,0.2668,
2025-03-09 22:55:52.316,9.6700,-0.0200,-1.1000,1.9375,9.4375,7.4375,0.6953,-0.2731,0.6093,0.2659,
2025-03-09 22:55:52.324,9.7000,0.0300,-1.2300,0.0625,10.6250,3.3125,0.6948,-0.2731,0.6099,0.2659,
2025-03-09 22:55:52.344,9.8400,0.6700,-1.1000,-3.6875,15.1875,19.5000,0.6932,-0.2734,0.6116,0.2658,
2025-03-09 22:55:52.367,9.6700,0.0300,-1.0200,-4.6875,13.0000,20.4375,0.6906,-0.2756,0.6140,0.2649,
2025-03-09 22:55:52.376,9.7200,-0.0700,-0.8900,-5.0000,11.3750,11.4375,0.6895,-0.2765,0.6149,0.2646,
2025-03-09 22:55:52.393,9.7800,0.1900,-0.9700,-4.0000,11.3750,11.0625,0.6875,-0.2778,0.6167,0.2645,
2025-03-09 22:55:52.410,9.5300,0.0500,-0.9700,-3.8125,9.7500,9.8750,0.6857,-0.2789,0.6182,0.2644,
2025-03-09 22:55:52.424,9.6800,-0.0500,-0.7100,-2.0000,4.5625,5.1875,0.6850,-0.2794,0.6187,0.2644,
2025-03-09 22:55:52.445,9.8800,-0.0900,-1.0500,-0.8750,6.0625,4.8750,0.6842,-0.2799,0.6195,0.2642,
2025-03-09 22:55:52.467,9.9700,-0.1100,-0.8600,-2.5625,5.3750,2.6250,0.6834,-0.2803,0.6202,0.2643,
2025-03-09 22:55:52.473,9.9200,0.1000,-0.8600,-2.5625,4.8125,-4.9375,0.6831,-0.2802,0.6203,0.2648,
2025-03-09 22:55:52.494,10.6800,0.2700,-1.0400,-2.3125,12.0625,-8.1250,0.6826,-0.2795,0.6207,0.2659,
2025-03-09 22:55:52.512,10.2000,0.1100,-0.8400,-2.8750,18.1250,-10.1875,0.6814,-0.2781,0.6218,0.2678,
2025-03-09 22:55:52.570,9.9800,-0.2600,-1.1300,-2.5625,25.6875,-20.1250,0.6805,-0.2770,0.6227,0.2691,
2025-03-09 22:55:52.570,9.4500,0.4100,-0.6900,-4.3125,22.3125,-14.3125,0.6786,-0.2738,0.6246,0.2728,
2025-03-09 22:55:52.578,9.9300,0.5000,-0.6900,-4.8125,19.3125,-7.4375,0.6767,-0.2721,0.6262,0.2755,
2025-03-09 22:55:52.578,10.2700,0.3600,-0.6900,-6.8750,28.5625,-10.8750,0.6756,-0.2717,0.6272,0.2765,
2025-03-09 22:55:52.600,10.0000,0.6700,-0.2600,-11.5625,39.0000,-18.0000,0.6724,-0.2693,0.6298,0.2805,
2025-03-09 22:55:52.615,9.4800,0.4700,-0.2600,-11.9375,41.1875,-17.2500,0.6683,-0.2667,0.6330,0.2855,
2025-03-09 22:55:52.625,9.5200,0.1500,-0.3000,-10.4375,37.3125,-12.0000,0.6660,-0.2661,0.6344,0.2884,
2025-03-09 22:55:52.648,9.4900,0.1400,-0.2000,3.8750,28.8750,-17.2500,0.6622,-0.2638,0.6375,0.2924,
2025-03-09 22:55:52.660,9.2800,0.3600,-0.5100,9.1875,21.7500,-14.2500,0.6605,-0.2601,0.6398,0.2944,
2025-03-09 22:55:52.683,9.4900,0.6600,-0.1700,14.1875,22.2500,0.0000,0.6596,-0.2588,0.6411,0.2949,
2025-03-09 22:55:52.698,10.5500,0.4900,-0.7600,14.2500,23.3750,7.1250,0.6577,-0.2565,0.6444,0.2939,
2025-03-09 22:55:52.710,10.6100,0.2000,-0.4100,13.5000,42.3125,11.5625,0.6537,-0.2545,0.6498,0.2927,
2025-03-09 22:55:52.724,9.7300,0.8900,0.3200,4.7500,49.8125,2.6875,0.6511,-0.2532,0.6527,0.2933,
2025-03-09 22:55:52.744,11.1300,0.6400,0.6600,-9.4375,60.2500,-1.5625,0.6446,-0.2509,0.6585,0.2965,
2025-03-09 22:55:52.764,9.0100,0.6000,1.2200,-16.1875,72.8125,-12.1875,0.6362,-0.2477,0.6652,0.3024,
2025-03-09 22:55:52.775,9.0900,0.5100,1.3600,-12.7500,66.6250,-10.3750,0.6322,-0.2465,0.6680,0.3055,
2025-03-09 22:55:52.794,8.4200,0.2200,1.3700,-12.8750,35.3750,15.9375,0.6261,-0.2458,0.6728,0.3081,
2025-03-09 22:55:52.811,10.0800,1.0500,0.9100,12.5625,25.6875,8.7500,0.6233,-0.2453,0.6761,0.3070,
2025-03-09 22:55:52.829,10.2000,0.9000,1.3700,16.6250,34.5000,18.7500,0.6211,-0.2451,0.6784,0.3065,
2025-03-09 22:55:52.866,10.5400,-0.7700,0.0700,21.0000,30.1250,15.5625,0.6181,-0.2430,0.6832,0.3034,
2025-03-09 22:55:52.877,10.0000,0.1100,0.8000,7.1875,45.8750,-0.4375,0.6133,-0.2400,0.6884,0.3038,
2025-03-09 22:55:52.877,10.1200,-0.2500,1.1700,9.5000,55.8750,-4.8750,0.6104,-0.2379,0.6913,0.3049,
2025-03-09 22:55:52.893,9.6500,-0.2500,1.0100,20.3750,65.4375,-35.5625,0.6049,-0.2299,0.6971,0.3088,
2025-03-09 22:55:52.903,9.5400,0.7900,1.8300,25.2500,71.5625,-47.5000,0.6022,-0.2241,0.7000,0.3117,
2025-03-09 22:55:52.934,9.3200,1.3900,1.7900,28.0625,72.6250,-52.3125,0.5970,-0.2116,0.7056,0.3178,
2025-03-09 22:55:52.956,9.3200,1.4100,1.8800,25.8750,77.9375,-39.5625,0.5908,-0.1999,0.7118,0.3230,
2025-03-09 22:55:52.961,9.3300,1.6300,2.0300,30.0625,90.4375,-29.5625,0.5829,-0.1885,0.7196,0.3268,
2025-03-09 22:55:52.977,8.5500,1.7900,2.3400,32.1250,98.1250,-25.0000,0.5780,-0.1832,0.7239,0.3290,
2025-03-09 22:55:52.992,8.2100,1.6400,1.9400,9.2500,112.7500,-3.3750,0.5660,-0.1740,0.7342,0.3320,
2025-03-09 22:55:53.006,8.9100,0.7900,2.5800,-1.6250,130.0000,10.4375,0.5578,-0.1710,0.7407,0.3333,
2025-03-09 22:55:53.023,8.4700,1.1500,3.2600,-2.2500,132.3750,-7.6250,0.5404,-0.1647,0.7524,0.3388,
2025-03-09 22:55:53.044,9.3200,1.5700,4.0800,-7.4375,147.8750,-5.9375,0.5221,-0.1562,0.7646,0.3441,
2025-03-09 22:55:53.060,9.3000,1.3400,4.2700,-28.8125,165.6875,6.5000,0.4997,-0.1501,0.7781,0.3498,
2025-03-09 22:55:53.078,8.8400,1.3800,4.2900,-35.5625,176.4375,10.4375,0.4867,-0.1481,0.7850,0.3535,
2025-03-09 22:55:53.082,7.5400,1.1300,4.4200,-43.1875,185.2500,19.7500,0.4728,-0.1462,0.7926,0.3562,
2025-03-09 22:55:53.091,7.2700,0.5500,4.4300,-52.5000,194.0000,32.8125,0.4578,-0.1452,0.8005,0.3585,
2025-03-09 22:55:53.102,7.4100,0.1300,4.8100,-57.6250,205.7500,37.0000,0.4416,-0.1442,0.8088,0.3607,
2025-03-09 22:55:53.110,7.1500,0.0400,5.4900,-52.6875,215.9375,32.0000,0.4248,-0.1425,0.8170,0.3630,
2025-03-09 22:55:53.126,7.1100,0.1200,5.6600,-45.8125,222.8750,24.1875,0.4076,-0.1396,0.8251,0.3655,
2025-03-09 22:55:53.171,6.8900,0.4000,6.2500,-36.6875,226.7500,16.7500,0.3904,-0.1357,0.8328,0.3683,
2025-03-09 22:55:53.171,6.8100,0.5500,7.2000,-22.8750,225.8750,14.0625,0.3736,-0.1307,0.8403,0.3705,
2025-03-09 22:55:53.171,6.5400,0.9100,8.3800,-9.8125,212.6875,12.6875,0.3580,-0.1252,0.8471,0.3723,
2025-03-09 22:55:53.171,6.4200,0.8800,8.5600,5.0625,188.3750,10.6250,0.3445,-0.1192,0.8531,0.3733,
2025-03-09 22:55:53.173,6.3500,0.7400,8.1900,14.9375,161.3125,8.5000,0.3330,-0.1141,0.8572,0.3760,
2025-03-09 22:55:53.186,6.3100,0.5400,8.0100,19.6250,142.6875,4.6875,0.3232,-0.1083,0.8615,0.3764,
2025-03-09 22:55:53.196,5.1500,-0.1600,8.0700,20.4375,129.8125,-1.1875,0.3144,-0.1026,0.8651,0.3771,
2025-03-09 22:55:53.203,5.1700,-0.0600,8.3600,17.1875,116.1250,-7.5000,0.3065,-0.0975,0.8681,0.3782,
2025-03-09 22:55:53.214,5.5600,0.1200,8.5400,14.8750,99.0625,-5.5625,0.2997,-0.0930,0.8705,0.3790,
2025-03-09 22:55:53.222,5.4000,0.3400,8.2500,15.0000,83.0625,-0.1875,0.2938,-0.0902,0.8716,0.3820,
2025-03-09 22:55:53.232,5.5100,0.4300,8.1100,10.6875,71.0000,3.4375,0.2889,-0.0872,0.8735,0.3820,
2025-03-09 22:55:53.241,5.3400,0.7600,8.1400,7.9375,64.8125,6.8750,0.2843,-0.0847,0.8754,0.3818,
2025-03-09 22:55:53.253,5.3400,0.9200,8.4100,3.8125,58.5000,11.6875,0.2800,-0.0828,0.8771,0.3812,
2025-03-09 22:55:53.260,5.3100,-0.0700,8.7800,-0.1875,47.3750,12.5000,0.2764,-0.0815,0.8787,0.3806,
2025-03-09 22:55:53.276,5.3600,-0.3200,8.4100,1.6250,34.0000,6.4375,0.2739,-0.0805,0.8797,0.3803,
2025-03-09 22:55:53.281,5.4500,-0.2700,8.1800,5.0000,28.6250,-5.0000,0.2720,-0.0791,0.8802,0.3808,
2025-03-09 22:55:53.292,5.4100,-0.0400,8.1900,11.2500,31.2500,-15.5625,0.2701,-0.0769,0.8805,0.3819,
2025-03-09 22:55:53.305,5.1800,0.5100,8.0500,14.5625,36.6250,-22.1875,0.2680,-0.0741,0.8807,0.3834,
2025-03-09 22:55:53.313,5.3100,0.5500,8.2100,8.3125,44.6875,-16.9375,0.2650,-0.0717,0.8812,0.3848,
2025-03-09 22:55:53.324,5.1600,0.4500,8.3000,-1.8125,53.2500,-7.5000,0.2610,-0.0699,0.8821,0.3857,
2025-03-09 22:55:53.331,5.0000,0.5900,7.9800,-7.3750,59.5625,-0.3750,0.2563,-0.0685,0.8834,0.3862,
2025-03-09 22:55:53.344,5.0500,0.7900,7.2600,-10.5000,65.7500,5.9375,0.2511,-0.0673,0.8849,0.3864,
2025-03-09 22:55:53.352,5.2200,0.8600,7.0600,-12.5625,79.7500,13.5000,0.2446,-0.0659,0.8870,0.3861,
2025-03-09 22:55:53.364,5.3800,0.7000,7.3600,-12.6250,100.4375,17.5000,0.2366,-0.0639,0.8895,0.3856,
2025-03-09 22:55:53.376,5.0900,0.6800,7.6800,-10.4375,123.6250,15.6250,0.2269,-0.0610,0.8924,0.3853,
2025-03-09 22:55:53.381,4.8600,0.5900,7.8800,-5.1250,148.2500,11.8125,0.2154,-0.0568,0.8956,0.3852,
2025-03-09 22:55:53.389,4.6800,0.5900,8.0700,-1.2500,171.1875,8.0000,0.2024,-0.0515,0.8988,0.3854,
2025-03-09 22:55:53.405,3.3500,0.0200,8.1500,-1.4375,191.4375,4.1250,0.1877,-0.0454,0.9021,0.3859,
2025-03-09 22:55:53.416,3.1000,0.1400,8.8200,-8.8125,209.0000,1.8125,0.1715,-0.0393,0.9053,0.3866,
2025-03-09 22:55:53.421,2.7200,0.4600,9.1400,-14.0000,219.0625,0.7500,0.1542,-0.0332,0.9083,0.3874,
2025-03-09 22:55:53.470,2.2200,0.5300,9.2000,-20.6875,216.7500,-1.1250,0.1369,-0.0276,0.9109,0.3883,
2025-03-09 22:55:53.470,2.0900,0.5100,9.2000,-19.0625,211.8125,-2.1250,0.1200,-0.0222,0.9131,0.3891,
2025-03-09 22:55:53.473,1.9600,0.5800,9.6000,-16.0000,209.5000,-5.5625,0.1033,-0.0165,0.9148,0.3901,
2025-03-09 22:55:53.473,1.8300,0.4900,9.8100,-16.3750,209.3125,-7.2500,0.0865,-0.0107,0.9163,0.3910,
2025-03-09 22:55:53.474,1.2800,0.0200,10.2500,-19.0625,214.4375,-7.1250,0.0693,-0.0051,0.9174,0.3918,
2025-03-09 22:55:53.481,0.9300,-0.2300,9.8100,-23.1250,221.8750,-9.0625,0.0514,0.0005,0.9182,0.3927,
2025-03-09 22:55:53.493,0.4600,0.1300,9.9800,-22.2500,232.6250,-15.3125,0.0326,0.0065,0.9186,0.3939,
2025-03-09 22:55:53.502,-0.2100,0.4400,10.4000,-18.1250,238.0000,-15.9375,0.0135,0.0131,0.9185,0.3950,
2025-03-09 22:55:53.511,-0.7100,0.3600,9.3600,-18.1875,232.8750,-11.6875,-0.0052,0.0195,0.9182,0.3956,
2025-03-09 22:55:53.521,-1.1000,0.5500,9.3000,-22.0625,231.0625,-7.0625,-0.0239,0.0255,0.9177,0.3956,
2025-03-09 22:55:53.530,-1.3200,0.4900,9.3600,-23.6250,233.0625,-0.1875,-0.0427,0.0314,0.9171,0.3950,
2025-03-09 22:55:53.540,-1.7600,0.2000,9.3200,-21.3125,239.0625,4.0000,-0.0619,0.0378,0.9163,0.3939,
2025-03-09 22:55:53.552,-2.1700,0.1700,9.3600,-17.4375,249.8125,5.0625,-0.0818,0.0447,0.9150,0.3925,
2025-03-09 22:55:53.560,-2.5400,-0.2500,9.3900,-15.8125,260.5625,6.5625,-0.1024,0.0522,0.9132,0.3909,
2025-03-09 22:55:53.570,-3.0300,-0.4100,9.9600,-13.2500,264.0625,4.3750,-0.1232,0.0599,0.9110,0.3891,
2025-03-09 22:55:53.581,-3.3700,-0.4000,9.7600,-7.9375,253.4375,-1.6250,-0.1429,0.0676,0.9081,0.3878,
2025-03-09 22:55:53.590,-3.6400,-0.4500,9.7800,-8.1875,235.4375,-6.1875,-0.1613,0.0746,0.9049,0.3868,
2025-03-09 22:55:53.601,-3.7500,-0.7000,9.6100,-12.1250,214.6250,-9.1875,-0.1780,0.0805,0.9016,0.3859,
2025-03-09 22:55:53.614,-4.3000,-0.2000,9.1700,-12.3125,194.8750,-11.7500,-0.1780,0.0805,0.9016,0.3859,
2025-03-09 22:55:53.767,-4.3700,-0.4100,8.9800,-8.8125,182.2500,-11.3125,-0.1934,0.0858,0.8983,0.3852,
2025-03-09 22:55:53.768,-4.5500,-0.2400,8.8400,-9.1875,168.6250,-8.3125,-0.2075,0.0908,0.8949,0.3846,
2025-03-09 22:55:53.768,-4.7300,-0.0900,8.7300,-5.5625,157.1875,-3.9375,-0.2206,0.0955,0.8916,0.3837,
2025-03-09 22:55:53.768,-5.0200,-0.4000,8.6100,-4.6250,145.6250,1.2500,-0.2327,0.1000,0.8885,0.3826,
2025-03-09 22:55:53.768,-5.2500,-0.5000,8.6000,-5.0625,136.0000,3.3750,-0.2437,0.1044,0.8857,0.3812,
2025-03-09 22:55:53.768,-5.4200,-0.5200,8.4800,-4.0625,130.3750,3.6875,-0.2540,0.1085,0.8830,0.3796,
2025-03-09 22:55:53.768,-5.5400,-0.4800,8.5800,1.5000,123.8125,6.6875,-0.2638,0.1124,0.8803,0.3780,
2025-03-09 22:55:53.768,-5.6900,-0.6500,7.8700,14.3750,116.8125,11.2500,-0.2729,0.1166,0.8777,0.3763,
2025-03-09 22:55:53.768,-5.4900,-0.3800,7.8000,28.8750,111.2500,13.0000,-0.2810,0.1216,0.8752,0.3746,
2025-03-09 22:55:53.768,-5.4200,-0.2300,7.2600,42.6250,108.9375,10.9375,-0.2881,0.1276,0.8726,0.3732,
2025-03-09 22:55:53.768,-5.6000,-0.2800,6.9800,44.9375,109.5625,8.8750,-0.2947,0.1345,0.8698,0.3722,
2025-03-09 22:55:53.772,-5.8200,-0.2800,7.0200,43.6250,109.5000,8.3125,-0.3012,0.1414,0.8668,0.3715,
2025-03-09 22:55:53.772,-6.0100,-0.2800,7.0200,37.6250,109.8125,7.3750,-0.3077,0.1483,0.8637,0.3706,
2025-03-09 22:55:53.772,-6.3500,0.0400,7.0400,34.1875,108.1875,6.5000,-0.3145,0.1546,0.8605,0.3696,
2025-03-09 22:55:53.772,-6.3700,0.3300,6.9000,32.0625,107.4375,5.9375,-0.3212,0.1606,0.8574,0.3686,
2025-03-09 22:55:53.772,-6.5000,0.1700,6.8600,26.6250,107.0625,5.5625,-0.3279,0.1664,0.8542,0.3676,
2025-03-09 22:55:53.781,-6.7500,0.0400,7.0300,20.4375,105.2500,3.5000,-0.3346,0.1719,0.8510,0.3664,
2025-03-09 22:55:53.793,-6.8000,0.2300,6.6300,15.0000,102.9375,2.7500,-0.3416,0.1767,0.8478,0.3652,
2025-03-09 22:55:53.800,-6.9600,0.2800,6.5800,8.6250,101.3125,1.9375,-0.3484,0.1810,0.8447,0.3639,
2025-03-09 22:55:53.816,-7.0800,0.2400,6.5500,6.7500,100.5000,2.0625,-0.3553,0.1848,0.8416,0.3624,
2025-03-09 22:55:53.825,-7.0700,0.2100,6.5200,4.7500,100.6250,1.5000,-0.3622,0.1884,0.8385,0.3609,
2025-03-09 22:55:53.836,-7.2400,0.1800,6.1400,1.6250,100.3125,-2.2500,-0.3691,0.1919,0.8353,0.3594,
2025-03-09 22:55:53.841,-7.3400,0.2700,6.1600,-0.2500,99.0000,-4.8750,-0.3762,0.1949,0.8321,0.3579,
2025-03-09 22:55:53.854,-7.4300,0.0900,6.1200,-0.6875,97.3125,-5.7500,-0.3832,0.1978,0.8287,0.3566,
2025-03-09 22:55:53.861,-7.4800,0.2700,5.8500,-0.4375,95.7500,-6.6250,-0.3901,0.2004,0.8254,0.3553,
2025-03-09 22:55:53.871,-7.6500,0.2400,5.7900,-0.1250,96.1250,-5.3125,-0.3969,0.2031,0.8220,0.3542,
2025-03-09 22:55:53.881,-7.8000,0.0700,5.8600,0.8125,95.6875,-2.0625,-0.4037,0.2058,0.8186,0.3529,
2025-03-09 22:55:53.892,-7.9100,0.1100,5.8100,2.5625,95.0625,-0.5625,-0.4103,0.2086,0.8153,0.3514,
2025-03-09 22:55:53.902,-7.8100,-0.0400,5.4600,4.6250,92.8750,1.4375,-0.4168,0.2116,0.8119,0.3498,
2025-03-09 22:55:53.918,-7.8000,0.0000,5.3600,3.6250,88.0000,1.8750,-0.4230,0.2147,0.8085,0.3482,
2025-03-09 22:55:53.921,-7.9400,0.0800,5.1100,0.8750,82.6250,-1.8125,-0.4288,0.2176,0.8054,0.3466,
2025-03-09 22:55:53.936,-8.4400,-0.0800,5.4600,-1.0625,76.0625,-2.9375,-0.4344,0.2200,0.8023,0.3452,
2025-03-09 22:55:53.942,-8.4600,-0.1500,5.2900,0.3750,68.0000,-1.1250,-0.4396,0.2221,0.7994,0.3440,
2025-03-09 22:55:53.952,-8.4400,-0.0700,5.4100,3.1875,56.7500,0.5625,-0.4443,0.2240,0.7968,0.3428,
2025-03-09 22:55:53.967,-8.5100,-0.1300,5.3400,4.6875,43.1250,2.3750,-0.4480,0.2259,0.7946,0.3418,
2025-03-09 22:55:53.972,-8.4000,-0.0300,5.2100,2.8125,28.1875,1.6875,-0.4507,0.2275,0.7930,0.3410,
2025-03-09 22:55:53.981,-8.2900,-0.0400,5.1500,-1.6875,13.2500,0.2500,-0.4525,0.2286,0.7919,0.3405,
2025-03-09 22:55:53.994,-8.3100,-0.0400,5.1000,-6.5000,-0.8125,-1.5000,-0.4534,0.2289,0.7914,0.3401,
2025-03-09 22:55:54.004,-8.2100,0.1200,4.9400,-9.5625,-14.3125,-3.1250,-0.4536,0.2283,0.7916,0.3400,
2025-03-09 22:55:54.011,-8.1800,0.1700,4.9300,-12.0000,-26.6875,-3.1250,-0.4529,0.2272,0.7922,0.3401,
2025-03-09 22:55:54.067,-8.1700,0.1400,4.9300,-14.5625,-38.8125,-2.5625,-0.4516,0.2255,0.7933,0.3404,
2025-03-09 22:55:54.067,-8.1500,0.2700,4.9500,-15.6250,-50.3125,-1.0625,-0.4494,0.2233,0.7950,0.3407,
2025-03-09 22:55:54.070,-8.3000,0.3000,5.0600,-14.6875,-60.5000,2.3750,-0.4465,0.2208,0.7972,0.3412,
2025-03-09 22:55:54.070,-8.3100,0.3500,5.2000,-9.0000,-68.8125,8.1250,-0.4428,0.2181,0.7998,0.3416,
2025-03-09 22:55:54.070,-8.2500,0.1900,5.2600,0.1250,-77.3125,13.8125,-0.4383,0.2158,0.8027,0.3420,
2025-03-09 22:55:54.075,-7.9500,0.1000,5.3300,6.5625,-86.5625,17.0625,-0.4328,0.2140,0.8060,0.3424,
2025-03-09 22:55:54.084,-7.8800,0.1700,5.4400,7.3750,-96.5625,17.3750,-0.4264,0.2126,0.8095,0.3431,
2025-03-09 22:55:54.091,-7.7900,0.1700,5.6800,5.9375,-105.5000,17.1250,-0.4192,0.2109,0.8133,0.3439,
2025-03-09 22:55:54.101,-7.6100,0.1800,5.8300,6.6875,-116.8750,16.5000,-0.4115,0.2089,0.8174,0.3448,
2025-03-09 22:55:54.111,-7.5000,0.1200,6.3600,5.3750,-129.1250,15.4375,-0.4029,0.2065,0.8218,0.3459,
2025-03-09 22:55:54.124,-7.5400,0.0900,6.6800,1.4375,-141.8750,13.6875,-0.3935,0.2036,0.8265,0.3472,
2025-03-09 22:55:54.134,-7.2700,0.1500,6.6100,2.8750,-160.0625,12.4375,-0.3833,0.2000,0.8315,0.3488,
2025-03-09 22:55:54.174,-7.1800,0.1800,7.1900,-0.1250,-178.3750,13.4375,-0.3717,0.1959,0.8370,0.3506,
2025-03-09 22:55:54.174,-6.7000,0.4500,7.2700,-0.2500,-199.9375,14.7500,-0.3588,0.1910,0.8429,0.3526,
2025-03-09 22:55:54.175,-6.6200,0.5200,7.7700,1.1875,-218.3750,15.5625,-0.3443,0.1854,0.8493,0.3547,
2025-03-09 22:55:54.175,-6.3900,0.4600,7.9300,5.1875,-235.3125,16.1875,-0.3283,0.1794,0.8559,0.3570,
2025-03-09 22:55:54.186,-5.8100,0.6600,8.0500,8.8750,-253.3750,17.8750,-0.3108,0.1731,0.8627,0.3595,
2025-03-09 22:55:54.238,-5.5200,0.6000,7.8800,13.0625,-267.6250,21.1250,-0.2917,0.1665,0.8696,0.3620,
2025-03-09 22:55:54.238,-5.0400,0.1700,8.4100,17.9375,-277.5625,25.0000,-0.2714,0.1597,0.8764,0.3645,
2025-03-09 22:55:54.238,-4.9600,0.7800,8.4200,21.0625,-291.8125,22.6875,-0.2498,0.1531,0.8830,0.3666,
2025-03-09 22:55:54.238,-4.0900,0.7300,8.5600,18.7500,-305.5625,19.1875,-0.2270,0.1460,0.8893,0.3691,
2025-03-09 22:55:54.238,-3.7100,0.7400,8.6800,9.8125,-321.6250,11.3750,-0.2032,0.1382,0.8953,0.3716,
2025-03-09 22:55:54.246,-3.3000,1.0400,8.4900,5.3125,-331.9375,5.9375,-0.1784,0.1290,0.9007,0.3746,
2025-03-09 22:55:54.252,-2.6400,0.8400,8.5900,7.2500,-338.0000,5.1250,-0.1528,0.1190,0.9055,0.3776,
2025-03-09 22:55:54.269,-2.2700,0.8700,8.8400,8.0000,-337.9375,8.3125,-0.1266,0.1088,0.9095,0.3806,
2025-03-09 22:55:54.272,-2.0100,1.0200,8.8100,6.3125,-334.4375,6.3750,-0.1003,0.0986,0.9130,0.3830,
2025-03-09 22:55:54.283,-1.6700,1.0900,9.1300,8.0000,-327.6250,5.1250,-0.0742,0.0883,0.9156,0.3852,
2025-03-09 22:55:54.292,-0.8600,1.1900,9.5100,13.7500,-318.5000,5.5000,-0.0486,0.0782,0.9174,0.3871,
2025-03-09 22:55:54.303,-0.5700,1.1400,9.6300,20.1875,-311.3750,3.3750,-0.0234,0.0688,0.9185,0.3887,
2025-03-09 22:55:54.312,-0.0500,1.1800,9.5500,25.5000,-304.3750,5.0625,0.0015,0.0602,0.9188,0.3901,
2025-03-09 22:55:54.329,0.5800,1.2100,9.1200,29.3125,-302.0625,5.6250,0.0259,0.0521,0.9185,0.3912,
2025-03-09 22:55:54.369,1.1100,1.1200,9.2600,32.8125,-297.5625,4.3125,0.0504,0.0444,0.9176,0.3919,
2025-03-09 22:55:54.372,1.4600,1.2200,9.1700,29.0625,-294.2500,2.6250,0.0745,0.0370,0.9160,0.3924,
2025-03-09 22:55:54.372,1.7200,1.3900,9.2800,29.3750,-288.7500,1.5000,0.0982,0.0295,0.9139,0.3928,
2025-03-09 22:55:54.372,2.6800,1.2500,9.2200,27.1250,-286.0625,1.3125,0.1215,0.0222,0.9112,0.3931,
2025-03-09 22:55:54.372,3.0700,1.1300,9.2600,29.5625,-282.6250,-0.0625,0.1444,0.0148,0.9080,0.3931,
2025-03-09 22:55:54.382,3.4600,1.1600,8.9300,32.4375,-279.9375,-1.8125,0.1669,0.0077,0.9042,0.3929,
2025-03-09 22:55:54.394,3.7000,1.2100,8.8400,37.0625,-276.3125,-3.7500,0.1893,0.0009,0.9000,0.3927,
2025-03-09 22:55:54.402,4.2100,1.2200,8.5100,36.5000,-270.1250,-4.0625,0.2115,-0.0054,0.8952,0.3923,
2025-03-09 22:55:54.414,4.6400,1.2600,8.2700,32.2500,-258.8750,-2.5625,0.2331,-0.0115,0.8900,0.3917,
2025-03-09 22:55:54.422,4.7100,1.2900,8.1400,29.5625,-249.3750,-0.8125,0.2535,-0.0176,0.8846,0.3909,
2025-03-09 22:55:54.437,5.4300,1.2200,7.9300,27.5625,-239.2500,3.3750,0.2731,-0.0236,0.8791,0.3899,
2025-03-09 22:55:54.450,5.5600,1.2100,7.4200,24.4375,-231.6875,6.5000,0.2917,-0.0295,0.8736,0.3885,
2025-03-09 22:55:54.454,5.8700,1.2200,7.4600,23.1250,-224.1250,9.8125,0.3095,-0.0355,0.8680,0.3867,
2025-03-09 22:55:54.462,6.1000,1.1500,7.1500,22.1250,-216.9375,11.4375,0.3267,-0.0413,0.8623,0.3846,
2025-03-09 22:55:54.477,6.4300,1.3200,6.8300,21.5625,-211.0000,10.5625,0.3431,-0.0471,0.8567,0.3824,
2025-03-09 22:55:54.482,6.8700,1.4500,6.7300,19.3125,-203.8750,10.9375,0.3589,-0.0526,0.8508,0.3801,
2025-03-09 22:55:54.492,7.2600,1.4700,6.4400,14.6250,-199.7500,12.2500,0.3741,-0.0581,0.8450,0.3777,
2025-03-09 22:55:54.506,7.2900,1.5300,6.1700,12.1250,-196.6875,14.0625,0.3887,-0.0638,0.8390,0.3754,
2025-03-09 22:55:54.516,7.3400,1.4600,5.7600,9.7500,-195.6875,16.0000,0.4029,-0.0696,0.8329,0.3729,
2025-03-09 22:55:54.521,7.3400,1.4600,5.7600,5.5625,-197.5625,17.3750,0.4168,-0.0757,0.8267,0.3702,
2025-03-09 22:55:54.536,7.9500,1.6000,5.4400,4.8125,-199.4375,16.3125,0.4306,-0.0820,0.8202,0.3675,
2025-03-09 22:55:54.542,8.3400,1.7100,5.1300,8.6250,-201.6875,10.5000,0.4444,-0.0885,0.8134,0.3647,
2025-03-09 22:55:54.566,8.5000,1.5000,4.6900,15.1250,-203.6250,-1.8125,0.4726,-0.0999,0.7983,0.3597,
2025-03-09 22:55:54.583,8.5000,1.2700,4.0100,21.2500,-196.3125,-2.6250,0.5006,-0.1097,0.7818,0.3552,
2025-03-09 22:55:54.597,8.4800,1.3700,3.8200,23.6875,-189.9375,0.2500,0.5142,-0.1140,0.7735,0.3526,
2025-03-09 22:55:54.602,8.9000,1.6200,3.7200,27.8125,-180.7500,7.0625,0.5272,-0.1181,0.7654,0.3497,
2025-03-09 22:55:54.614,9.4300,2.0200,3.1800,25.8750,-173.8125,10.3125,0.5396,-0.1219,0.7577,0.3461,
2025-03-09 22:55:54.684,9.6100,1.6500,2.3500,24.4375,-169.8125,9.3125,0.5627,-0.1296,0.7427,0.3390,
2025-03-09 22:55:54.684,9.6000,2.0100,1.9000,29.1875,-164.3750,12.1875,0.5739,-0.1334,0.7351,0.3354,
2025-03-09 22:55:54.688,10.0300,1.7100,2.1100,29.1250,-160.3750,17.6875,0.5847,-0.1368,0.7277,0.3314,
2025-03-09 22:55:54.688,10.0800,1.8900,1.8200,25.8750,-154.0625,22.6250,0.5952,-0.1403,0.7206,0.3269,
2025-03-09 22:55:54.688,10.0800,1.8900,1.8200,23.6250,-148.0000,25.8750,0.6049,-0.1442,0.7137,0.3224,
2025-03-09 22:55:54.688,9.7800,1.2900,1.5100,16.1250,-138.6875,24.0625,0.6141,-0.1481,0.7071,0.3178,
2025-03-09 22:55:54.708,9.7600,1.2200,1.1800,12.3750,-111.1875,28.0000,0.6299,-0.1559,0.6949,0.3099,
2025-03-09 22:55:54.713,9.9200,1.2300,0.9600,9.0000,-99.6875,27.0000,0.6364,-0.1595,0.6898,0.3062,
2025-03-09 22:55:54.732,10.5100,1.8200,0.7800,4.2500,-79.7500,18.3750,0.6470,-0.1663,0.6811,0.2999,
2025-03-09 22:55:54.754,10.5200,1.6000,0.4700,-6.8750,-65.5000,5.8125,0.6553,-0.1716,0.6735,0.2958,
2025-03-09 22:55:54.776,10.2400,1.5800,0.4600,-14.0625,-60.8125,2.3750,0.6618,-0.1763,0.6664,0.2947,
2025-03-09 22:55:54.791,9.7800,1.6400,0.2600,-25.0000,-57.5625,-1.8750,0.6645,-0.1790,0.6628,0.2950,
2025-03-09 22:55:54.812,9.4100,1.7300,0.4700,-26.1875,-57.3125,-6.0000,0.6697,-0.1843,0.6555,0.2964,
2025-03-09 22:55:54.824,9.4400,1.2900,0.3600,-26.4375,-59.3750,-6.8750,0.6751,-0.1895,0.6476,0.2983,
2025-03-09 22:55:54.836,9.6700,1.4000,0.4200,-15.9375,-48.0625,1.3750,0.6777,-0.1918,0.6439,0.2989,
2025-03-09 22:55:54.858,9.6400,1.9900,0.2500,-13.1875,-50.1250,11.1875,0.6817,-0.1963,0.6384,0.2987,
2025-03-09 22:55:54.879,9.6000,1.8700,0.0000,-8.3125,-55.6250,12.1250,0.6864,-0.2015,0.6325,0.2969,
2025-03-09 22:55:54.884,9.5600,1.2400,-0.2800,-8.5625,-63.3750,11.7500,0.6893,-0.2041,0.6292,0.2956,
2025-03-09 22:55:54.903,9.5300,1.5100,-0.4800,-14.0625,-59.0625,1.5000,0.6952,-0.2094,0.6220,0.2933,
2025-03-09 22:55:54.926,9.9900,1.6800,-0.7900,-17.1875,-59.5625,-2.5000,0.7006,-0.2139,0.6144,0.2931,
2025-03-09 22:55:54.969,9.4700,1.2000,-0.5800,-21.5625,-53.5000,3.7500,0.7031,-0.2164,0.6105,0.2934,
2025-03-09 22:55:54.969,9.5700,1.4900,-0.9300,-17.6875,-42.5000,8.8750,0.7070,-0.2217,0.6041,0.2934,
2025-03-09 22:55:54.971,9.5100,1.0100,-1.2600,-16.9375,-36.3750,6.4375,0.7099,-0.2264,0.5991,0.2932,
2025-03-09 22:55:54.984,9.4500,1.0900,-1.0700,-16.8750,-19.3750,1.7500,0.7106,-0.2282,0.5973,0.2936,
2025-03-09 22:55:55.006,9.2800,1.6100,-1.1100,-24.0625,-14.8125,6.1875,0.7114,-0.2312,0.5945,0.2949,
2025-03-09 22:55:55.021,9.7200,0.9500,-1.4100,-25.0000,-14.5000,9.3750,0.7113,-0.2354,0.5922,0.2965,
2025-03-09 22:55:55.034,9.5900,1.0100,-1.3100,-22.9375,-2.3125,14.1250,0.7111,-0.2370,0.5917,0.2968,
2025-03-09 22:55:55.054,9.1900,1.1500,-1.1500,-16.5625,6.1875,17.6250,0.7094,-0.2409,0.5916,0.2979,
2025-03-09 22:55:55.070,9.4600,1.1900,-1.0900,-16.1875,7.7500,18.4375,0.7072,-0.2443,0.5927,0.2983,
2025-03-09 22:55:55.084,9.5500,0.8000,-1.2000,-14.0000,8.8125,19.3125,0.7059,-0.2460,0.5934,0.2983,
2025-03-09 22:55:55.107,9.7600,1.1200,-1.2000,-7.2500,11.5000,10.5000,0.7035,-0.2490,0.5950,0.2983,
2025-03-09 22:55:55.121,9.5600,1.2500,-0.9100,-7.2500,11.5000,10.5000,0.7015,-0.2504,0.5966,0.2986,
2025-03-09 22:55:55.138,9.6000,1.2400,-0.9300,-7.2500,8.6250,3.0625,0.7017,-0.2485,0.5980,0.2972,
2025-03-09 22:55:55.156,9.7200,0.9600,-1.0100,-6.7500,4.3125,-1.1875,0.7008,-0.2489,0.5984,0.2982,
2025-03-09 22:55:55.171,9.5900,0.9400,-0.9500,-5.5625,0.6250,-2.6250,0.7004,-0.2492,0.5982,0.2992,
2025-03-09 22:55:55.185,9.5500,1.0200,-0.9400,-4.9375,-1.3125,-3.3125,0.7010,-0.2476,0.5988,0.2980,
2025-03-09 22:55:55.203,9.7500,1.3500,-0.9000,-5.1250,-5.3750,-5.0625,0.7014,-0.2477,0.5978,0.2989,
2025-03-09 22:55:55.212,9.8600,1.0800,-1.1000,-5.9375,-6.6250,-4.5625,0.7016,-0.2479,0.5972,0.2993,
2025-03-09 22:55:55.272,9.7200,0.9600,-1.1400,-5.6875,-8.9375,-2.0625,0.7026,-0.2476,0.5963,0.2991,
2025-03-09 22:55:55.272,9.9500,1.0600,-1.2700,-3.8125,-7.3125,-2.3750,0.7032,-0.2482,0.5951,0.2996,
2025-03-09 22:55:55.272,9.7600,0.9500,-1.2300,-3.0625,-3.2500,-0.1875,0.7035,-0.2488,0.5944,0.2997,
2025-03-09 22:55:55.283,9.6500,1.0400,-1.1600,-3.0000,-0.4375,1.5625,0.7041,-0.2473,0.5952,0.2982,
2025-03-09 22:55:55.302,9.8400,1.0400,-1.1600,-3.5000,3.0625,1.6875,0.7036,-0.2478,0.5954,0.2985,
2025-03-09 22:55:55.316,9.8300,0.9500,-1.1700,-1.3750,5.2500,4.4375,0.7032,-0.2481,0.5958,0.2983,
2025-03-09 22:55:55.333,9.5700,0.9900,-1.0700,1.9375,10.6875,11.9375,0.7024,-0.2476,0.5980,0.2962,
2025-03-09 22:55:55.353,9.3000,1.1300,-0.9300,-0.1250,12.5000,14.6250,0.7005,-0.2486,0.6003,0.2952,
2025-03-09 22:55:55.371,9.6200,0.9800,-0.9600,-2.7500,12.3125,9.7500,0.6986,-0.2495,0.6023,0.2949,
2025-03-09 22:55:55.383,9.6300,1.0700,-1.1400,-6.7500,14.3750,6.3125,0.6978,-0.2491,0.6035,0.2947,
2025-03-09 22:55:55.403,9.3500,0.7500,-0.8400,-8.1875,16.3750,2.7500,0.6957,-0.2496,0.6051,0.2960,
2025-03-09 22:55:55.412,9.3700,0.7400,-0.8200,-4.5625,18.3750,5.0625,0.6945,-0.2498,0.6063,0.2963,
2025-03-09 22:55:55.422,9.4700,0.9100,-0.8600,-0.4375,18.0625,7.8750,0.6934,-0.2498,0.6075,0.2962,
2025-03-09 22:55:55.436,9.6600,0.9200,-0.8800,2.1250,17.6250,9.0000,0.6924,-0.2498,0.6088,0.2959,
2025-03-09 22:55:55.444,9.9800,1.0300,-0.9900,2.9375,18.3750,8.1250,0.6913,-0.2496,0.6102,0.2957,
2025-03-09 22:55:55.464,9.9000,0.9600,-0.9000,3.0625,19.6875,4.3125,0.6893,-0.2490,0.6128,0.2957,
2025-03-09 22:55:55.483,9.8300,0.9900,-0.7400,-2.5000,17.7500,0.5000,0.6873,-0.2483,0.6149,0.2964,
2025-03-09 22:55:55.504,9.7800,1.1400,-0.7100,-2.8125,12.8750,-2.8125,0.6857,-0.2476,0.6164,0.2975,
2025-03-09 22:55:55.512,9.6500,0.9600,-0.6300,-0.5625,8.6250,-4.5625,0.6854,-0.2471,0.6168,0.2980,
2025-03-09 22:55:55.586,9.8100,0.9400,-0.6600,2.1875,6.1875,-5.5000,0.6852,-0.2466,0.6170,0.2983,
2025-03-09 22:55:55.586,9.8900,0.9200,-0.6900,3.6250,6.0000,-6.4375,0.6852,-0.2459,0.6173,0.2985,
2025-03-09 22:55:55.586,9.9000,1.0500,-0.5600,4.8750,6.7500,-5.5000,0.6851,-0.2451,0.6176,0.2986,
2025-03-09 22:55:55.586,9.9100,0.8900,-0.6300,5.1250,8.0625,-3.6250,0.6849,-0.2444,0.6181,0.2986,
2025-03-09 22:55:55.586,9.8500,0.9100,-0.5900,4.8750,9.6250,-2.8125,0.6845,-0.2438,0.6187,0.2986,
2025-03-09 22:55:55.586,9.8500,0.9600,-0.5700,5.9375,10.9375,-3.2500,0.6842,-0.2430,0.6194,0.2987,
2025-03-09 22:55:55.589,9.7500,0.8900,-0.5700,7.2500,12.0000,-4.0000,0.6839,-0.2419,0.6202,0.2985,
2025-03-09 22:55:55.595,9.6000,1.0800,-0.3700,6.2500,12.6250,-5.9375,0.6835,-0.2410,0.6209,0.2988,
2025-03-09 22:55:55.601,9.7800,1.1000,-0.5000,6.5625,12.3750,-7.0000,0.6832,-0.2399,0.6216,0.2990,
2025-03-09 22:55:55.612,9.7800,1.0500,-0.3400,4.3750,13.1250,-7.8750,0.6827,-0.2389,0.6222,0.2994,
2025-03-09 22:55:55.622,9.9100,0.9800,-0.4500,1.5000,14.5625,-5.6875,0.6821,-0.2381,0.6230,0.2999,
2025-03-09 22:55:55.632,9.9700,1.0100,-0.5100,-2.5000,16.9375,-3.9375,0.6813,-0.2376,0.6238,0.3005,
2025-03-09 22:55:55.642,9.9300,1.1300,-0.4100,-5.1875,18.8125,-2.5625,0.6802,-0.2372,0.6247,0.3014,
2025-03-09 22:55:55.652,9.7600,1.0700,-0.3500,-5.6250,19.0000,0.6250,0.6790,-0.2371,0.6257,0.3021,
2025-03-09 22:55:55.661,9.7400,1.0500,-0.3200,-5.1250,18.6875,3.6250,0.6778,-0.2371,0.6268,0.3025,
2025-03-09 22:55:55.670,9.7900,1.0000,-0.3700,-2.7500,18.6875,5.0625,0.6767,-0.2371,0.6279,0.3027,
2025-03-09 22:55:55.684,9.8500,0.9600,-0.3900,-1.1875,19.7500,4.4375,0.6755,-0.2368,0.6291,0.3029,
2025-03-09 22:55:55.691,9.8600,0.8900,-0.3700,-0.5625,21.9375,2.6875,0.6743,-0.2365,0.6304,0.3032,
2025-03-09 22:55:55.706,9.8600,0.9000,-0.3300,-1.1875,25.1250,0.5000,0.6730,-0.2360,0.6318,0.3037,
2025-03-09 22:55:55.711,9.8400,0.9500,-0.2400,0.1250,28.6250,0.2500,0.6715,-0.2352,0.6334,0.3042,
2025-03-09 22:55:55.722,9.7900,0.9200,-0.1000,0.1875,32.5625,1.3750,0.6697,-0.2345,0.6353,0.3047,
2025-03-09 22:55:55.732,9.7500,0.8500,-0.1100,-0.5625,35.9375,3.8750,0.6678,-0.2338,0.6374,0.3051,
2025-03-09 22:55:55.742,9.7200,0.9000,-0.0700,0.3125,38.8750,6.4375,0.6656,-0.2332,0.6398,0.3055,
2025-03-09 22:55:55.751,9.7700,0.9000,-0.0400,1.3750,39.8750,8.1875,0.6633,-0.2326,0.6422,0.3057,
2025-03-09 22:55:55.774,9.7700,0.9200,0.0500,2.3125,40.3750,8.5000,0.6610,-0.2319,0.6447,0.3059,
2025-03-09 22:55:55.774,9.8200,0.8600,0.0100,4.1250,40.5625,7.3125,0.6588,-0.2311,0.6472,0.3060,
2025-03-09 22:55:55.783,9.6800,0.9100,0.1600,4.8750,41.3750,5.1875,0.6567,-0.2302,0.6497,0.3061,
2025-03-09 22:55:55.796,9.6600,1.0800,0.3600,5.6875,40.5625,4.8125,0.6545,-0.2291,0.6522,0.3063,
2025-03-09 22:55:55.802,9.7200,0.9900,0.3700,6.3750,39.9375,6.0000,0.6523,-0.2280,0.6546,0.3065,
2025-03-09 22:55:55.814,9.6800,0.9600,0.4500,7.1875,40.2500,7.2500,0.6501,-0.2270,0.6572,0.3064,
2025-03-09 22:55:55.821,9.8700,0.8100,0.3300,8.7500,42.0625,6.8125,0.6479,-0.2258,0.6599,0.3063,
2025-03-09 22:55:55.865,9.8000,0.7200,0.4500,14.7500,43.5000,6.4375,0.6457,-0.2242,0.6627,0.3060,
2025-03-09 22:55:55.873,9.8100,0.7100,0.4800,19.7500,47.1875,4.8125,0.6435,-0.2221,0.6658,0.3055,
2025-03-09 22:55:55.873,9.7500,0.6400,0.4900,21.3125,50.9375,1.6250,0.6411,-0.2197,0.6690,0.3052,
2025-03-09 22:55:55.873,9.6200,0.8400,0.8900,14.5625,53.3125,-5.5000,0.6386,-0.2172,0.6720,0.3058,
2025-03-09 22:55:55.874,9.7000,1.0200,1.0200,2.5000,52.6250,-13.1250,0.6359,-0.2150,0.6745,0.3074,
2025-03-09 22:55:55.886,10.2900,1.0700,0.9400,-7.4375,52.0625,-16.3125,0.6330,-0.2131,0.6767,0.3096,
2025-03-09 22:55:55.893,10.4300,1.0500,1.0500,-6.0625,55.6875,-14.6875,0.6300,-0.2112,0.6792,0.3118,
2025-03-09 22:55:55.900,10.1600,1.0400,1.1800,-4.0625,60.6875,-12.6250,0.6266,-0.2092,0.6820,0.3138,
2025-03-09 22:55:55.911,9.9700,1.1300,1.5400,-1.5000,66.4375,-10.9375,0.6229,-0.2070,0.6852,0.3157,
2025-03-09 22:55:55.921,9.5100,1.1800,1.5200,-1.3125,67.6250,-9.3125,0.6191,-0.2047,0.6885,0.3175,
2025-03-09 22:55:55.931,9.5800,1.0900,1.6800,-1.6250,69.4375,-9.2500,0.6150,-0.2029,0.6916,0.3198,
2025-03-09 22:55:55.944,9.4600,1.0400,1.7300,0.2500,70.9375,-7.6250,0.6110,-0.2006,0.6951,0.3214,
2025-03-09 22:55:55.951,9.4500,1.0100,1.8300,1.0625,74.0625,-5.3125,0.6067,-0.1982,0.6988,0.3229,
2025-03-09 22:55:55.960,9.5100,0.9900,1.9300,2.5000,78.8125,0.1250,0.6021,-0.1959,0.7028,0.3241,
2025-03-09 22:55:55.975,9.4000,0.8500,2.1100,5.0000,84.8750,5.8125,0.5971,-0.1936,0.7074,0.3249,
2025-03-09 22:55:55.982,9.4200,0.7900,2.1900,3.1875,91.2500,8.7500,0.5914,-0.1918,0.7120,0.3263,
2025-03-09 22:55:55.991,9.5500,0.9200,2.2500,3.6250,98.0625,10.5625,0.5854,-0.1894,0.7172,0.3271,
2025-03-09 22:55:56.003,9.5700,0.9500,2.3800,5.5000,104.5000,12.5625,0.5790,-0.1868,0.7228,0.3277,
2025-03-09 22:55:56.010,9.4600,1.0500,2.6900,5.1250,110.5625,12.3125,0.5722,-0.1840,0.7286,0.3284,
2025-03-09 22:55:56.019,9.6600,1.0800,2.8200,3.5000,115.8125,10.4375,0.5650,-0.1811,0.7345,0.3294,
2025-03-09 22:55:56.036,9.5400,1.0700,3.0700,4.8125,121.7500,8.6875,0.5574,-0.1779,0.7405,0.3306,
2025-03-09 22:55:56.042,9.2600,0.8700,3.3900,3.3125,127.8125,7.7500,0.5493,-0.1745,0.7468,0.3318,
2025-03-09 22:55:56.050,9.1000,0.7300,3.5200,-0.9375,134.3750,9.8750,0.5407,-0.1712,0.7532,0.3332,
2025-03-09 22:55:56.061,8.9800,0.6700,3.5800,-3.2500,140.8125,12.8750,0.5314,-0.1680,0.7599,0.3345,
2025-03-09 22:55:56.082,8.7200,0.7100,3.7700,-4.3750,147.0000,13.5000,0.5216,-0.1647,0.7668,0.3359,
2025-03-09 22:55:56.083,8.5000,1.0700,4.1400,-4.5625,151.0625,13.3750,0.5114,-0.1614,0.7737,0.3374,
2025-03-09 22:55:56.096,8.2700,1.1100,4.4900,-3.1875,153.5000,14.8125,0.5010,-0.1578,0.7806,0.3386,
2025-03-09 22:55:56.100,8.2700,1.1900,4.5600,2.2500,154.8750,17.8125,0.4906,-0.1540,0.7877,0.3394,
2025-03-09 22:55:56.111,8.3500,1.1200,5.0300,10.7500,155.9375,20.8750,0.4802,-0.1497,0.7948,0.3395,
2025-03-09 22:55:56.122,8.5600,0.9200,5.3000,15.8750,157.3125,22.5000,0.4698,-0.1450,0.8019,0.3394,
2025-03-09 22:55:56.171,8.4400,0.7800,5.6600,14.5625,160.1250,22.4375,0.4589,-0.1408,0.8087,0.3400,
2025-03-09 22:55:56.171,8.3900,0.7300,5.4900,5.1250,161.4375,17.3125,0.4477,-0.1365,0.8154,0.3406,
2025-03-09 22:55:56.172,7.7700,0.7900,5.7800,1.1875,163.7500,12.1250,0.4363,-0.1321,0.8219,0.3415,
2025-03-09 22:55:56.172,7.5300,0.8100,5.8900,-0.5000,163.8750,7.0000,0.4249,-0.1276,0.8281,0.3428,
2025-03-09 22:55:56.172,7.2800,0.7700,6.0600,-0.6250,161.6875,3.3125,0.4249,-0.1276,0.8281,0.3428,
2025-03-09 22:55:56.180,7.1400,0.7300,6.3400,-4.5000,157.3750,-1.8125,0.4135,-0.1231,0.8339,0.3444,
2025-03-09 22:55:56.192,7.1100,0.7700,6.5000,-5.6875,155.0000,-5.8125,0.4022,-0.1191,0.8389,0.3468,
2025-03-09 22:55:56.200,7.0400,0.6800,6.8000,-4.6250,154.0000,-9.4375,0.3910,-0.1148,0.8439,0.3490,
2025-03-09 22:55:56.211,6.7200,0.6800,6.8800,-3.5000,153.3125,-10.9375,0.3800,-0.1102,0.8486,0.3513,
2025-03-09 22:55:56.223,6.3200,0.5000,7.0300,-1.1250,154.1875,-8.2500,0.3689,-0.1055,0.8531,0.3536,
2025-03-09 22:55:56.231,6.1800,0.4300,7.2500,-3.0625,154.3125,-3.8750,0.3579,-0.1008,0.8575,0.3555,
2025-03-09 22:55:56.246,6.1900,0.4400,7.4200,-4.1250,157.4375,-1.3125,0.3462,-0.0975,0.8606,0.3605,
2025-03-09 22:55:56.251,5.8400,0.5200,7.5900,-3.5625,162.4375,-0.5000,0.3346,-0.0930,0.8651,0.3620,
2025-03-09 22:55:56.265,5.6200,0.6800,7.8000,-2.5000,170.1875,0.1875,0.3226,-0.0883,0.8696,0.3633,
2025-03-09 22:55:56.274,5.4500,0.8000,7.8900,0.4375,175.4375,-0.7500,0.3100,-0.0832,0.8741,0.3647,
2025-03-09 22:55:56.283,5.2000,0.7600,8.0900,1.1875,179.6875,-2.5625,0.2970,-0.0778,0.8785,0.3659,
2025-03-09 22:55:56.291,4.8600,0.6900,8.3700,-1.3750,187.2500,-2.9375,0.2837,-0.0721,0.8829,0.3672,
2025-03-09 22:55:56.305,4.8300,0.5800,8.5200,-3.1875,195.5625,-3.0625,0.2697,-0.0663,0.8872,0.3685,
2025-03-09 22:55:56.311,4.2300,0.4700,8.5400,3.7500,204.1875,-3.8750,0.2549,-0.0604,0.8914,0.3699,
2025-03-09 22:55:56.322,4.1300,0.4600,8.5000,-0.6250,209.5000,-4.0000,0.2396,-0.0536,0.8955,0.3711,
2025-03-09 22:55:56.337,3.6500,0.5400,8.6700,-3.6875,213.3750,-4.1875,0.2237,-0.0471,0.8995,0.3723,
2025-03-09 22:55:56.340,3.4700,0.6600,8.8800,-5.5625,215.5000,-6.0625,0.2074,-0.0405,0.9033,0.3735,
2025-03-09 22:55:56.350,3.1700,0.8000,8.9600,-5.0625,220.0000,-6.4375,0.1907,-0.0341,0.9067,0.3747,
2025-03-09 22:55:56.366,2.6500,0.7400,9.3700,-4.6250,227.8125,-6.3750,0.1737,-0.0273,0.9098,0.3759,
2025-03-09 22:55:56.371,2.1800,0.7700,9.5100,-1.5625,237.3750,-7.5625,0.1561,-0.0204,0.9128,0.3769,
2025-03-09 22:55:56.384,1.9200,0.9000,9.6700,-1.0625,243.8750,-7.3750,0.1377,-0.0128,0.9155,0.3778,
2025-03-09 22:55:56.395,1.7300,0.8500,9.4900,-0.6875,247.1875,-7.0625,0.1188,-0.0051,0.9179,0.3786,
2025-03-09 22:55:56.401,0.9800,0.8200,9.6400,2.4375,247.1250,-7.5625,0.0995,0.0029,0.9199,0.3792,
2025-03-09 22:55:56.415,0.7800,0.5800,9.3500,5.9375,245.7500,-9.3750,0.0804,0.0110,0.9216,0.3796,
2025-03-09 22:55:56.421,0.6600,0.4500,9.6200,5.5625,241.8125,-8.4375,0.0615,0.0195,0.9227,0.3800,
2025-03-09 22:55:56.466,-0.2200,0.4000,9.1700,8.1875,244.5000,-7.3125,0.0428,0.0277,0.9235,0.3801,
2025-03-09 22:55:56.466,-0.4200,0.5100,9.3900,8.2500,251.0625,-6.0625,0.0239,0.0362,0.9240,0.3800,
2025-03-09 22:55:56.471,-0.7000,0.4500,9.3900,6.5000,257.7500,-4.2500,0.0046,0.0449,0.9240,0.3796,
2025-03-09 22:55:56.471,-1.0700,0.5100,9.4600,2.4375,264.6875,-2.8750,-0.0153,0.0536,0.9238,0.3789,
2025-03-09 22:55:56.472,-1.5800,0.6100,9.3800,0.6250,264.9375,-1.8125,-0.0359,0.0623,0.9231,0.3778,
2025-03-09 22:55:56.481,-2.0300,0.7200,9.2900,0.1250,264.6875,-1.1875,-0.0566,0.0708,0.9220,0.3765,
2025-03-09 22:55:56.491,-2.2500,0.7100,9.2400,1.1875,264.3125,0.1875,-0.0771,0.0792,0.9205,0.3749,
2025-03-09 22:55:56.501,-2.9200,0.7200,9.2000,4.1250,264.3125,1.1250,-0.0977,0.0876,0.9185,0.3731,
2025-03-09 22:55:56.517,-3.2300,0.6600,9.3500,8.3750,263.8125,0.0625,-0.1180,0.0963,0.9161,0.3710,
2025-03-09 22:55:56.524,-3.5900,0.7200,9.1200,12.5625,262.1875,-0.6250,-0.1381,0.1052,0.9132,0.3688,
2025-03-09 22:55:56.530,-3.7300,0.5800,8.9200,11.6875,259.6875,-0.4375,-0.1579,0.1143,0.9097,0.3666,
2025-03-09 22:55:56.545,-4.4300,0.6900,8.7600,9.5000,257.5000,0.5625,-0.1775,0.1232,0.9059,0.3641,
2025-03-09 22:55:56.551,-4.7300,0.6600,8.5900,10.0000,253.7500,2.5000,-0.1968,0.1318,0.9018,0.3615,
2025-03-09 22:55:56.561,-5.0000,0.7700,8.3600,9.4375,249.8750,3.8750,-0.2158,0.1403,0.8973,0.3586,
2025-03-09 22:55:56.575,-5.4000,0.7100,8.1600,8.6250,245.9375,5.5000,-0.2343,0.1486,0.8926,0.3554,
2025-03-09 22:55:56.592,-5.6400,0.7500,7.9200,6.6875,241.0625,5.1250,-0.2525,0.1567,0.8876,0.3520,
2025-03-09 22:55:56.595,-5.8300,0.7600,7.7700,-2.5000,235.9375,3.3125,-0.2703,0.1645,0.8823,0.3485,
2025-03-09 22:55:56.601,-6.1500,0.6900,7.4600,-10.0000,231.9375,1.6250,-0.2878,0.1713,0.8769,0.3448,
2025-03-09 22:55:56.612,-6.6000,0.6400,7.0900,-11.3125,229.1875,1.1875,-0.3052,0.1773,0.8713,0.3411,
2025-03-09 22:55:56.621,-6.7900,0.6200,6.7900,-12.1875,226.7500,0.6250,-0.3223,0.1831,0.8654,0.3372,
2025-03-09 22:55:56.632,-7.0800,0.6500,6.6900,-11.5625,224.6250,0.0000,-0.3392,0.1887,0.8593,0.3333,
2025-03-09 22:55:56.644,-7.2400,0.5000,6.5200,-8.0625,221.1875,1.3750,-0.3557,0.1941,0.8529,0.3293,
2025-03-09 22:55:56.651,-7.7000,0.5300,6.0600,-6.3750,214.8750,1.8125,-0.3718,0.1996,0.8463,0.3253,
2025-03-09 22:55:56.673,-7.7100,0.6700,5.9100,-6.2500,206.9375,1.0625,-0.3872,0.2051,0.8395,0.3212,
2025-03-09 22:55:56.673,-7.9000,0.6800,5.6600,-6.2500,202.0000,-1.6250,-0.4020,0.2103,0.8328,0.3173,
2025-03-09 22:55:56.684,-8.0900,0.5600,5.2700,-7.8125,200.1875,-4.5625,-0.4164,0.2152,0.8258,0.3136,
2025-03-09 22:55:56.696,-8.2400,0.5700,4.8500,-11.0000,199.1250,-7.5000,-0.4305,0.2197,0.8187,0.3099,
2025-03-09 22:55:56.704,-8.2300,0.6000,4.7000,-13.4375,199.0000,-11.1875,-0.4447,0.2239,0.8113,0.3063,
2025-03-09 22:55:56.711,-8.5100,0.3600,4.6000,-18.0625,197.3750,-13.6875,-0.4588,0.2277,0.8037,0.3028,
2025-03-09 22:55:56.721,-8.6700,0.3000,4.0500,-20.0000,194.1250,-14.8125,-0.4729,0.2309,0.7960,0.2991,
2025-03-09 22:55:56.758,-8.6900,0.1800,3.9200,-17.0625,189.4375,-16.4375,-0.4866,0.2338,0.7881,0.2955,
2025-03-09 22:55:56.779,-8.6800,0.3000,3.5300,-20.0000,184.1875,-19.3125,-0.4999,0.2368,0.7802,0.2921,
2025-03-09 22:55:56.779,-8.7600,0.3500,3.0000,-24.5000,181.9375,-21.2500,-0.5129,0.2391,0.7722,0.2889,
2025-03-09 22:55:56.779,-8.7800,0.1800,2.8000,-26.5000,181.2500,-22.2500,-0.5257,0.2410,0.7642,0.2855,
2025-03-09 22:55:56.779,-8.9800,0.1500,2.6100,-26.1875,180.6250,-22.0625,-0.5385,0.2426,0.7561,0.2820,
2025-03-09 22:55:56.797,-8.9800,0.0600,2.3200,-23.1250,179.8125,-22.1875,-0.5510,0.2443,0.7478,0.2785,
2025-03-09 22:55:56.797,-9.3100,0.0200,2.0400,-18.8125,177.2500,-20.4375,-0.5633,0.2459,0.7393,0.2751,
2025-03-09 22:55:56.816,-9.6400,-0.0900,1.8600,-12.8750,171.4375,-18.5625,-0.5752,0.2479,0.7307,0.2717,
2025-03-09 22:55:56.816,-9.5000,-0.1900,1.8200,-10.1875,160.8125,-15.1875,-0.5864,0.2501,0.7221,0.2686,
2025-03-09 22:55:56.829,-9.4400,0.0900,1.3800,-10.8750,150.1250,-12.9375,-0.5967,0.2523,0.7139,0.2656,
2025-03-09 22:55:56.832,-9.6400,-0.2000,1.0700,-13.8125,141.6875,-10.6875,-0.6062,0.2544,0.7063,0.2626,
2025-03-09 22:55:56.841,-9.5200,-0.1800,1.1200,-12.0625,134.2500,-8.6250,-0.6152,0.2561,0.6990,0.2595,
2025-03-09 22:55:56.852,-9.6900,-0.4600,0.9800,-9.4375,124.4375,-5.2500,-0.6235,0.2579,0.6921,0.2565,
2025-03-09 22:55:56.863,-9.4700,-0.2000,0.5100,-9.3125,110.8750,-3.3125,-0.6311,0.2597,0.6855,0.2535,
2025-03-09 22:55:56.874,-9.4400,-0.2800,0.5300,-7.5625,99.3125,-2.6250,-0.6378,0.2614,0.6798,0.2508,
2025-03-09 22:55:56.882,-9.4400,-0.1700,0.3100,-7.6250,87.6875,-3.0000,-0.6436,0.2629,0.6745,0.2484,
2025-03-09 22:55:56.901,-9.6200,-0.2300,0.1800,-8.2500,77.3125,-2.6250,-0.6489,0.2641,0.6698,0.2462,
2025-03-09 22:55:56.908,-9.8200,-0.0500,-0.1100,-7.5625,66.0000,-2.1875,-0.6534,0.2651,0.6657,0.2441,
2025-03-09 22:55:56.912,-9.7400,-0.0700,0.1300,-7.6875,55.6250,-1.9375,-0.6573,0.2659,0.6622,0.2424,
2025-03-09 22:55:56.926,-9.6700,-0.0500,-0.2300,-6.7500,44.5625,-1.4375,-0.6606,0.2665,0.6592,0.2408,
2025-03-09 22:55:56.932,-9.5100,-0.0800,-0.2700,-6.6875,36.3750,-1.4375,-0.6633,0.2670,0.6568,0.2394,
2025-03-09 22:55:56.943,-9.3100,-0.1100,-0.3200,-6.0625,29.6250,-0.5625,-0.6655,0.2673,0.6549,0.2383,
2025-03-09 22:55:56.953,-9.1700,-0.0800,-0.5600,-4.5000,25.6250,0.3750,-0.6672,0.2675,0.6534,0.2373,
2025-03-09 22:55:56.961,-9.2500,-0.0900,-0.4800,-4.4375,23.8125,1.1250,-0.6688,0.2678,0.6520,0.2365,
2025-03-09 22:55:56.972,-9.4300,-0.0200,-0.4700,-5.0000,20.7500,1.8125,-0.6701,0.2681,0.6508,0.2357,
2025-03-09 22:55:56.985,-9.4200,-0.0200,-0.5500,-5.0000,16.1250,0.1875,-0.6713,0.2683,0.6498,0.2348,
2025-03-09 22:55:57.001,-9.4800,-0.0400,-0.5600,-3.3125,11.1875,-1.5625,-0.6723,0.2684,0.6490,0.2341,
2025-03-09 22:55:57.007,-9.6300,-0.0900,-0.5000,-0.7500,5.3750,-1.7500,-0.6730,0.2683,0.6484,0.2338,
2025-03-09 22:55:57.012,-9.6500,-0.1400,-0.4500,1.5000,-0.5625,-0.7500,-0.6734,0.2682,0.6481,0.2337,
2025-03-09 22:55:57.072,-9.6800,-0.1500,-0.4300,3.1875,-5.1875,0.1250,-0.6735,0.2681,0.6479,0.2341,
2025-03-09 22:55:57.072,-9.6800,-0.1500,-0.4300,3.6875,-7.8750,2.3750,-0.6732,0.2679,0.6481,0.2346,
2025-03-09 22:55:57.072,-9.5300,-0.0400,-0.3800,3.7500,-7.1875,4.5625,-0.6727,0.2679,0.6484,0.2351,
2025-03-09 22:55:57.072,-9.5400,-0.0100,-0.4200,2.1250,-3.0000,5.1250,-0.6722,0.2680,0.6488,0.2355,
2025-03-09 22:55:57.072,-9.5900,0.0200,-0.4200,-0.4375,2.6250,3.5625,-0.6719,0.2682,0.6489,0.2355,
2025-03-09 22:55:57.076,-9.7000,0.0600,-0.5100,-1.8750,8.5000,1.8125,-0.6721,0.2683,0.6488,0.2354,
2025-03-09 22:55:57.084,-9.7000,0.0600,-0.5100,-3.1250,12.5625,0.8125,-0.6725,0.2684,0.6484,0.2351,
2025-03-09 22:55:57.094,-9.7200,-0.1400,-0.4900,-3.3750,15.5000,-0.0625,-0.6733,0.2684,0.6477,0.2347,
2025-03-09 22:55:57.103,-9.6600,-0.1700,-0.4900,-2.1875,16.5000,-1.0625,-0.6743,0.2683,0.6468,0.2344,
2025-03-09 22:55:57.123,-9.5200,0.0300,-0.6800,-2.3125,19.7500,-3.3750,-0.6764,0.2682,0.6448,0.2339,
2025-03-09 22:55:57.146,-9.8200,0.1300,-0.6100,-4.9375,24.0625,-5.9375,-0.6791,0.2681,0.6423,0.2333,
2025-03-09 22:55:57.153,-9.4900,0.1000,-0.8800,-5.2500,22.1875,-6.3750,-0.6806,0.2679,0.6409,0.2328,
2025-03-09 22:55:57.164,-9.7100,-0.0700,-0.7400,-2.6250,18.4375,-5.1875,-0.6821,0.2677,0.6396,0.2324,
2025-03-09 22:55:57.180,-9.6900,-0.0100,-0.6800,-1.6250,12.1875,-2.8750,-0.6832,0.2676,0.6385,0.2321,
2025-03-09 22:55:57.185,-9.6900,-0.0100,-0.6800,0.1250,5.6875,-0.3750,-0.6840,0.2675,0.6378,0.2320,
2025-03-09 22:55:57.194,-9.3800,-0.0900,-0.7100,1.5625,-0.6250,1.6875,-0.6843,0.2675,0.6374,0.2320,
2025-03-09 22:55:57.206,-9.3600,-0.1400,-0.6500,2.0625,-6.3125,3.1875,-0.6843,0.2676,0.6374,0.2321,
2025-03-09 22:55:57.216,-9.3400,-0.1900,-0.6500,2.1250,-11.3750,2.9375,-0.6839,0.2676,0.6378,0.2324,
2025-03-09 22:55:57.222,-9.4200,-0.1300,-0.6100,2.1250,-16.6250,1.5625,-0.6831,0.2676,0.6384,0.2326,
2025-03-09 22:55:57.243,-9.4600,-0.0700,-0.5100,2.7500,-29.0000,-2.0625,-0.6809,0.2672,0.6406,0.2336,
2025-03-09 22:55:57.256,-9.5600,-0.2300,-0.4000,3.0000,-36.4375,-2.8125,-0.6793,0.2665,0.6422,0.2347,
2025-03-09 22:55:57.266,-9.6100,-0.1500,-0.3200,3.3750,-44.7500,-2.7500,-0.6774,0.2656,0.6441,0.2360,
2025-03-09 22:55:57.273,-9.6500,-0.1100,-0.1900,3.5000,-52.5625,-2.5625,-0.6750,0.2646,0.6465,0.2376,
2025-03-09 22:55:57.296,-9.5800,-0.1100,0.0000,2.8125,-66.8125,-2.7500,-0.6698,0.2599,0.6535,0.2383,
2025-03-09 22:55:57.312,-9.6400,-0.2000,0.2400,3.0625,-83.1250,-3.6250,-0.6619,0.2571,0.6612,0.2421,
2025-03-09 22:55:57.371,-9.7900,-0.0800,0.4600,1.1875,-93.1875,-3.9375,-0.6521,0.2533,0.6707,0.2465,
2025-03-09 22:55:57.372,-9.8800,-0.1100,0.5800,-1.8125,-113.1250,-2.1250,-0.6467,0.2499,0.6767,0.2478,
2025-03-09 22:55:57.372,-9.9000,-0.1800,0.8800,-0.1875,-136.0625,1.5000,-0.6331,0.2446,0.6896,0.2527,
2025-03-09 22:55:57.382,-9.7000,-0.0600,1.4000,1.1875,-147.4375,1.6875,-0.6163,0.2386,0.7046,0.2584,
2025-03-09 22:55:57.393,-9.5000,-0.0600,1.5700,5.2500,-169.2500,1.1250,-0.6068,0.2352,0.7128,0.2614,
2025-03-09 22:55:57.419,-9.1900,0.0500,2.1600,9.3125,-191.5625,1.7500,-0.5852,0.2283,0.7302,0.2687,
2025-03-09 22:55:57.432,-9.0200,-0.2000,2.7600,9.0000,-201.8125,1.9375,-0.5601,0.2206,0.7490,0.2769,
2025-03-09 22:55:57.444,-8.9800,-0.2900,3.2900,15.6875,-226.6250,3.8125,-0.5462,0.2164,0.7588,0.2812,
2025-03-09 22:55:57.465,-8.8500,0.1100,3.6800,24.7500,-253.1875,12.5000,-0.5147,0.2081,0.7793,0.2905,
2025-03-09 22:55:57.481,-8.0200,0.1000,4.3700,28.2500,-264.8125,15.3750,-0.4783,0.1998,0.8009,0.2998,
2025-03-09 22:55:57.492,-7.7100,0.1300,4.7800,25.7500,-282.1875,21.0000,-0.4585,0.1955,0.8118,0.3043,
2025-03-09 22:55:57.513,-7.1000,0.3400,5.5500,17.5000,-294.0000,23.7500,-0.4170,0.1855,0.8332,0.3122,
2025-03-09 22:55:57.536,-6.8500,0.7600,6.2300,11.7500,-298.8750,23.5625,-0.3732,0.1734,0.8538,0.3188,
2025-03-09 22:55:57.543,-6.2400,0.5700,6.5000,0.9375,-308.6875,23.8125,-0.3507,0.1664,0.8637,0.3215,
2025-03-09 22:55:57.567,-5.7200,0.5000,7.0600,1.5000,-331.0000,19.6250,-0.3037,0.1506,0.8822,0.3268,
2025-03-09 22:55:57.584,-4.5700,0.2500,8.1100,-2.5625,-348.0625,17.5000,-0.2522,0.1326,0.8992,0.3321,
2025-03-09 22:55:57.682,-4.3000,0.7700,8.4500,-1.5625,-379.5000,21.5000,-0.2246,0.1224,0.9071,0.3344,
2025-03-09 22:55:57.691,-3.3700,0.8100,8.6200,5.6875,-414.8125,23.5000,-0.1642,0.1011,0.9211,0.3382,
2025-03-09 22:55:57.691,-2.0200,0.8700,9.1900,9.8125,-431.1250,16.8750,-0.0972,0.0786,0.9315,0.3416,
2025-03-09 22:55:57.691,-1.6000,1.0800,9.2100,23.5000,-449.5000,0.1875,-0.0617,0.0673,0.9346,0.3439,
2025-03-09 22:55:57.691,-0.1600,1.1200,9.3000,24.8750,-446.6875,-8.2500,0.0109,0.0448,0.9361,0.3486,
2025-03-09 22:55:57.691,0.9100,0.7500,9.1400,18.9375,-434.7500,-9.6875,0.0817,0.0222,0.9320,0.3524,
2025-03-09 22:55:57.693,2.0900,0.6700,9.5900,5.5000,-401.9375,-9.4375,0.1150,0.0105,0.9282,0.3537,
2025-03-09 22:55:57.716,3.0300,0.7800,8.8900,6.5000,-386.1250,-10.5625,0.1768,-0.0119,0.9179,0.3550,
2025-03-09 22:55:57.731,4.1900,0.8200,8.3500,5.6875,-372.5000,-16.4375,0.2351,-0.0329,0.9039,0.3557,
2025-03-09 22:55:57.749,4.5900,0.8600,8.1900,-12.8750,-357.6875,-12.6875,0.2629,-0.0438,0.8957,0.3558,
2025-03-09 22:55:57.764,6.8200,0.7100,8.1100,-17.8750,-341.1250,-8.9375,0.3145,-0.0666,0.8779,0.3550,
2025-03-09 22:55:57.780,7.5700,0.8500,7.3300,-19.6250,-300.0000,-9.8750,0.3589,-0.0876,0.8594,0.3534,
2025-03-09 22:55:57.796,7.7900,0.9400,6.3400,-18.7500,-283.2500,-12.3125,0.3790,-0.0970,0.8501,0.3526,
2025-03-09 22:55:57.820,7.8500,1.0600,5.5000,-17.8125,-263.6250,-7.9375,0.4160,-0.1147,0.8312,0.3504,
2025-03-09 22:55:57.830,7.9800,1.2000,4.7100,-20.3750,-265.6875,-7.7500,0.4517,-0.1325,0.8111,0.3473,
2025-03-09 22:55:57.846,8.1400,0.9800,4.4000,-20.1875,-268.1875,-13.6250,0.4694,-0.1412,0.8000,0.3460,
2025-03-09 22:55:57.867,9.0400,0.9100,3.6600,-17.6250,-267.6875,-25.3750,0.5047,-0.1573,0.7761,0.3437,
2025-03-09 22:55:57.884,9.2800,0.8900,3.0200,-15.0000,-260.5000,-24.4375,0.5384,-0.1723,0.7511,0.3411,
2025-03-09 22:55:57.897,9.4700,0.8400,2.6600,-13.8750,-255.0000,-20.3750,0.5543,-0.1795,0.7385,0.3392,
2025-03-09 22:55:57.912,9.5800,0.9100,1.7000,-11.7500,-229.8750,-20.0000,0.5833,-0.1927,0.7142,0.3354,
2025-03-09 22:55:57.967,9.6500,1.2800,1.3500,-8.7500,-200.0000,-19.1875,0.6081,-0.2034,0.6920,0.3317,
2025-03-09 22:55:57.967,9.6900,1.1300,0.9300,-10.8750,-188.0625,-15.1875,0.6190,-0.2085,0.6816,0.3298,
2025-03-09 22:55:57.971,9.6800,1.1100,0.6000,-13.8125,-167.7500,-4.4375,0.6381,-0.2188,0.6624,0.3258,
2025-03-09 22:55:57.980,9.0100,1.1300,0.4100,-8.0625,-145.3750,7.7500,0.6541,-0.2288,0.6458,0.3207,
2025-03-09 22:55:57.999,9.7100,1.2500,0.0000,-6.3125,-133.5625,10.3750,0.6610,-0.2333,0.6385,0.3179,
2025-03-09 22:55:58.014,9.6500,0.9700,-0.5200,-13.1250,-108.3125,10.1250,0.6722,-0.2418,0.6257,0.3133,
2025-03-09 22:55:58.023,10.2500,0.8400,-0.5800,-13.6875,-96.2500,10.6875,0.6767,-0.2457,0.6202,0.3115,
2025-03-09 22:55:58.065,9.1700,0.2600,-0.6900,-8.7500,-66.8750,19.3750,0.6832,-0.2526,0.6122,0.3078,
2025-03-09 22:55:58.065,9.3500,0.5500,-0.8600,-3.6250,-41.5000,32.8750,0.6865,-0.2590,0.6080,0.3032,
2025-03-09 22:55:58.076,9.5600,0.7100,-0.8300,-1.5000,-30.7500,36.0625,0.6873,-0.2619,0.6072,0.3007,
2025-03-09 22:55:58.081,9.9900,0.8400,-0.8300,1.1250,-22.7500,36.5625,0.6876,-0.2646,0.6068,0.2983,
2025-03-09 22:55:58.092,9.8500,0.8600,-0.9700,4.9375,-16.3750,38.4375,0.6877,-0.2670,0.6069,0.2956,
2025-03-09 22:55:58.107,9.8700,0.8100,-0.7800,8.1250,-12.1250,37.7500,0.6877,-0.2690,0.6073,0.2929,
2025-03-09 22:55:58.112,10.2800,0.7300,-1.1200,9.4375,-8.8125,32.3125,0.6877,-0.2706,0.6078,0.2905,
2025-03-09 22:55:58.126,10.1400,0.9800,-0.8900,7.6875,-4.0000,36.2500,0.6872,-0.2725,0.6086,0.2881,
2025-03-09 22:55:58.131,9.7600,0.7400,-0.8700,4.0625,-2.6250,35.2500,0.6867,-0.2744,0.6094,0.2860,
2025-03-09 22:55:58.143,9.9000,0.5600,-0.8500,3.1875,-2.0625,28.8125,0.6862,-0.2759,0.6101,0.2843,
2025-03-09 22:55:58.152,9.9000,0.4400,-0.8400,2.8750,-0.2500,22.6250,0.6857,-0.2770,0.6107,0.2830,
2025-03-09 22:55:58.164,9.9400,0.4400,-0.9100,5.5000,1.9375,18.0000,0.6853,-0.2778,0.6114,0.2817,
2025-03-09 22:55:58.173,10.0400,0.5000,-0.9600,9.1875,5.7500,13.8750,0.6849,-0.2780,0.6123,0.2807,
2025-03-09 22:55:58.185,9.9600,0.5700,-0.7600,10.8125,7.6250,10.3125,0.6845,-0.2778,0.6132,0.2797,
2025-03-09 22:55:58.191,9.8600,0.6200,-0.6800,6.2500,8.6875,4.2500,0.6841,-0.2775,0.6139,0.2793,
2025-03-09 22:55:58.201,9.8800,0.5600,-0.6500,6.2500,8.6875,4.2500,0.6837,-0.2772,0.6147,0.2789,
2025-03-09 22:55:58.210,9.9900,0.5100,-0.7900,5.0000,6.7500,4.6250,0.6833,-0.2770,0.6154,0.2786,
2025-03-09 22:55:58.221,10.0000,0.7300,-0.8000,5.5625,4.6875,0.6250,0.6832,-0.2766,0.6158,0.2784,
2025-03-09 22:55:58.271,10.1100,0.7800,-0.7700,4.1875,2.1250,-5.6875,0.6833,-0.2759,0.6158,0.2787,
2025-03-09 22:55:58.271,10.0900,0.6200,-0.7800,1.6875,0.1250,-9.4375,0.6836,-0.2752,0.6157,0.2791,
2025-03-09 22:55:58.273,10.1300,0.5200,-0.8400,0.0000,-1.1875,-10.0000,0.6839,-0.2746,0.6154,0.2797,
2025-03-09 22:55:58.273,10.1500,0.4100,-0.9100,-0.8750,-1.4375,-8.2500,0.6842,-0.2742,0.6151,0.2801,
2025-03-09 22:55:58.273,10.0400,0.3900,-0.9100,-0.6875,-0.2500,-5.8750,0.6843,-0.2739,0.6149,0.2805,
2025-03-09 22:55:58.284,10.0100,0.4700,-0.9700,1.1875,1.1250,-5.1250,0.6844,-0.2735,0.6149,0.2807,
2025-03-09 22:55:58.291,9.7100,0.4700,-0.8000,3.0000,1.8750,-6.3125,0.6845,-0.2729,0.6149,0.2809,
2025-03-09 22:55:58.303,9.6700,0.5000,-0.7900,4.5625,3.0000,-6.3750,0.6846,-0.2723,0.6150,0.2810,
2025-03-09 22:55:58.315,9.7500,0.5300,-0.8000,4.8750,3.6250,-6.4375,0.6847,-0.2716,0.6152,0.2811,
2025-03-09 22:55:58.321,9.7800,0.5800,-0.7600,4.5000,4.5625,-6.5625,0.6847,-0.2708,0.6154,0.2813,
2025-03-09 22:55:58.330,10.0200,0.6700,-0.7500,3.8750,5.3125,-5.6875,0.6846,-0.2701,0.6157,0.2816,
2025-03-09 22:55:58.341,9.9700,0.6400,-0.7400,3.0625,5.8125,-3.5625,0.6844,-0.2697,0.6160,0.2817,
2025-03-09 22:55:58.353,9.9500,0.5700,-0.8600,2.6875,6.7500,-1.5000,0.6842,-0.2692,0.6164,0.2817,
2025-03-09 22:55:58.360,9.7900,0.4700,-0.8300,2.3750,8.0000,-1.3125,0.6839,-0.2689,0.6169,0.2819,
2025-03-09 22:55:58.371,9.7500,0.3700,-0.8400,2.2500,9.5625,-1.8750,0.6835,-0.2684,0.6175,0.2821,
2025-03-09 22:55:58.380,9.6500,0.3400,-0.8200,1.6250,11.5000,-2.8750,0.6830,-0.2679,0.6181,0.2823,
2025-03-09 22:55:58.390,9.6500,0.4600,-0.7400,1.3750,12.8125,-3.1875,0.6824,-0.2673,0.6188,0.2827,
2025-03-09 22:55:58.406,9.6000,0.5400,-0.6200,1.4375,12.9375,-2.0000,0.6818,-0.2668,0.6195,0.2830,
2025-03-09 22:55:58.413,9.6100,0.5800,-0.6300,1.3750,12.3125,-0.5000,0.6812,-0.2665,0.6203,0.2832,
2025-03-09 22:55:58.421,9.7400,0.6100,-0.6600,1.0000,10.7500,0.3750,0.6807,-0.2662,0.6209,0.2834,
2025-03-09 22:55:58.444,9.7600,0.5500,-0.6000,0.8125,8.5625,0.8125,0.6802,-0.2659,0.6215,0.2835,
2025-03-09 22:55:58.444,9.7700,0.5100,-0.6100,0.5625,7.0625,1.1250,0.6801,-0.2652,0.6221,0.2830,
2025-03-09 22:55:58.449,9.8200,0.5800,-0.6000,1.5000,5.5625,1.0625,0.6798,-0.2650,0.6225,0.2830,
2025-03-09 22:55:58.466,9.7900,0.6200,-0.5800,2.5625,4.5000,-0.1250,0.6796,-0.2648,0.6229,0.2830,
2025-03-09 22:55:58.474,9.7300,0.5100,-0.5600,2.6875,4.0000,0.0000,0.6795,-0.2645,0.6231,0.2829,
2025-03-09 22:55:58.480,9.6600,0.4500,-0.6100,1.8750,3.4375,1.0000,0.6793,-0.2644,0.6234,0.2828,
2025-03-09 22:55:58.490,9.5900,0.3900,-0.6200,1.8750,3.3125,2.4375,0.6791,-0.2644,0.6237,0.2826,
2025-03-09 22:55:58.500,9.6700,0.4300,-0.6800,2.3750,3.5625,4.5000,0.6789,-0.2645,0.6241,0.2823,
2025-03-09 22:55:58.510,9.5700,0.2900,-0.7300,3.0625,3.3750,6.5625,0.6787,-0.2646,0.6245,0.2819,
2025-03-09 22:55:58.524,9.5700,0.2400,-0.7400,3.0625,3.8750,7.0000,0.6784,-0.2648,0.6249,0.2813,
2025-03-09 22:55:58.566,9.6400,0.2900,-0.7200,3.4375,4.3125,4.9375,0.6782,-0.2648,0.6254,0.2809,
2025-03-09 22:55:58.566,9.5500,0.2100,-0.6400,2.5625,4.5000,1.9375,0.6779,-0.2648,0.6257,0.2806,
2025-03-09 22:55:58.568,9.5100,0.2100,-0.6200,2.6250,4.7500,0.3125,0.6777,-0.2646,0.6261,0.2805,
2025-03-09 22:55:58.568,9.4600,0.1300,-0.6000,2.2500,4.6875,0.3125,0.6775,-0.2645,0.6264,0.2804,
2025-03-09 22:55:58.571,9.2300,0.0600,-0.5200,1.9375,5.0000,1.9375,0.6772,-0.2645,0.6268,0.2802,
2025-03-09 22:55:58.580,8.9800,0.0300,-0.4900,2.3125,4.8750,4.8750,0.6769,-0.2645,0.6273,0.2798,
2025-03-09 22:55:58.592,9.0000,0.1400,-0.4400,3.5000,4.1875,8.4375,0.6768,-0.2641,0.6281,0.2788,
2025-03-09 22:55:58.601,9.2100,0.3600,-0.4700,3.9375,3.5625,8.5000,0.6766,-0.2643,0.6285,0.2781,
2025-03-09 22:55:58.610,9.5700,0.7500,-0.4700,2.5625,2.6875,3.7500,0.6764,-0.2643,0.6288,0.2779,
2025-03-09 22:55:58.621,9.7000,0.6700,-0.5000,1.6250,0.3125,-0.6250,0.6765,-0.2642,0.6288,0.2778,
2025-03-09 22:55:58.631,9.6900,0.5800,-0.4800,0.2500,-2.3750,-3.4375,0.6765,-0.2642,0.6288,0.2778,
2025-03-09 22:55:58.641,9.9200,0.5600,-0.5700,0.2500,-4.8125,-3.3750,0.6766,-0.2640,0.6287,0.2780,
2025-03-09 22:55:58.651,9.9700,0.3400,-0.7200,1.3125,-6.5625,-2.0625,0.6770,-0.2639,0.6283,0.2780,
2025-03-09 22:55:58.660,9.9000,0.4900,-0.6200,1.6250,-6.7500,-0.7500,0.6774,-0.2639,0.6279,0.2779,
2025-03-09 22:55:58.671,9.8700,0.5600,-0.5800,2.2500,-6.2500,1.5000,0.6779,-0.2639,0.6275,0.2777,
2025-03-09 22:55:58.682,9.7500,0.5100,-0.5100,2.0000,-5.0000,2.6875,0.6782,-0.2640,0.6273,0.2773,
2025-03-09 22:55:58.692,10.0800,0.5300,-0.6500,2.5000,-3.6875,3.0000,0.6784,-0.2642,0.6271,0.2770,
2025-03-09 22:55:58.701,10.2000,0.5100,-0.6500,1.1875,-1.6250,1.5625,0.6786,-0.2643,0.6270,0.2765,
2025-03-09 22:55:58.717,10.1700,0.4600,-0.6200,-0.5625,0.0625,0.5000,0.6787,-0.2644,0.6270,0.2764,
2025-03-09 22:55:58.721,9.8900,0.4500,-0.6300,-2.1250,2.0625,1.0625,0.6787,-0.2643,0.6270,0.2764,
2025-03-09 22:55:58.731,9.7700,0.4700,-0.5600,-2.8125,3.1250,1.8125,0.6785,-0.2645,0.6271,0.2765,
2025-03-09 22:55:58.741,9.6800,0.4700,-0.5700,-1.0625,4.0000,2.8750,0.6783,-0.2646,0.6272,0.2766,
2025-03-09 22:55:58.752,9.6900,0.4800,-0.5700,0.8125,4.6250,3.5000,0.6780,-0.2646,0.6276,0.2764,
2025-03-09 22:55:58.766,9.8400,0.6000,-0.5700,2.2500,5.5000,2.6250,0.6777,-0.2646,0.6279,0.2763,
2025-03-09 22:55:58.773,9.9700,0.6300,-0.5500,2.3750,6.0000,0.6250,0.6774,-0.2645,0.6284,0.2761,
2025-03-09 22:55:58.781,10.0300,0.5500,-0.5500,1.8750,6.3750,-1.3750,0.6771,-0.2643,0.6288,0.2761,
2025-03-09 22:55:58.790,9.8200,0.4400,-0.4900,0.6875,6.6875,-1.7500,0.6769,-0.2640,0.6292,0.2762,
2025-03-09 22:55:58.804,9.7600,0.4600,-0.4700,-0.3750,7.1875,0.1250,0.6768,-0.2632,0.6297,0.2760,
2025-03-09 22:55:58.811,9.7700,0.3900,-0.5200,-0.9375,7.5000,2.5000,0.6764,-0.2630,0.6301,0.2762,
2025-03-09 22:55:58.824,9.8500,0.4700,-0.5500,-0.8125,7.6250,3.7500,0.6759,-0.2630,0.6306,0.2763,
2025-03-09 22:55:58.867,9.8400,0.6400,-0.4800,0.3750,7.2500,2.0000,0.6754,-0.2631,0.6311,0.2763,
2025-03-09 22:55:58.869,9.7200,0.5600,-0.4600,0.6875,5.5625,-2.4375,0.6750,-0.2630,0.6315,0.2764,
2025-03-09 22:55:58.869,9.6700,0.5300,-0.3900,0.8750,4.8125,-6.7500,0.6749,-0.2624,0.6319,0.2764,
2025-03-09 22:55:58.869,9.6700,0.4300,-0.4200,0.5625,5.8125,-9.2500,0.6748,-0.2619,0.6320,0.2768,
2025-03-09 22:55:58.871,9.6200,0.4800,-0.3900,-1.0000,7.5625,-10.6875,0.6747,-0.2612,0.6321,0.2775,
2025-03-09 22:55:58.886,9.6100,0.5100,-0.3600,-1.5625,9.0625,-9.6250,0.6745,-0.2605,0.6323,0.2783,
2025-03-09 22:55:58.892,9.8000,0.6500,-0.3900,-1.3750,10.3125,-7.0625,0.6742,-0.2598,0.6325,0.2791,
2025-03-09 22:55:58.901,9.9200,0.6900,-0.4400,-0.3125,10.7500,-5.7500,0.6737,-0.2594,0.6328,0.2800,
2025-03-09 22:55:58.911,9.9400,0.6500,-0.4900,0.6250,9.1875,-5.8750,0.6732,-0.2588,0.6333,0.2805,
2025-03-09 22:55:58.921,9.9200,0.6200,-0.4500,0.6250,7.5000,-8.1250,0.6729,-0.2582,0.6337,0.2810,
2025-03-09 22:55:58.933,9.8900,0.5900,-0.3900,-0.5000,5.7500,-11.6875,0.6727,-0.2575,0.6339,0.2816,
2025-03-09 22:55:58.947,9.8000,0.5000,-0.3500,-1.5625,3.8750,-14.5625,0.6727,-0.2567,0.6340,0.2823,
2025-03-09 22:55:58.954,9.6800,0.5600,-0.2100,-3.3125,2.8750,-15.4375,0.6727,-0.2559,0.6338,0.2833,
2025-03-09 22:55:58.961,9.6900,0.6800,-0.1600,-3.6250,1.8125,-12.6250,0.6728,-0.2551,0.6336,0.2844,
2025-03-09 22:55:58.971,9.7400,0.8000,-0.2000,-3.2500,-0.7500,-9.6875,0.6729,-0.2545,0.6333,0.2853,
2025-03-09 22:55:58.981,9.7300,0.7900,-0.2100,-2.8750,-4.2500,-8.1250,0.6730,-0.2542,0.6329,0.2860,
2025-03-09 22:55:58.990,9.8000,0.7700,-0.2600,-3.0000,-7.6875,-7.1875,0.6734,-0.2539,0.6325,0.2866,
2025-03-09 22:55:59.002,9.8800,0.6200,-0.2700,-3.3750,-10.0000,-6.3750,0.6738,-0.2538,0.6318,0.2870,
2025-03-09 22:55:59.011,9.9600,0.6500,-0.3600,-3.4375,-11.1875,-5.6250,0.6744,-0.2539,0.6310,0.2873,
2025-03-09 22:55:59.021,9.8500,0.5500,-0.3100,-2.3750,-11.7500,-5.0625,0.6750,-0.2540,0.6302,0.2875,
2025-03-09 22:55:59.032,9.8600,0.6200,-0.4600,-0.9375,-11.0000,-4.7500,0.6757,-0.2541,0.6293,0.2877,
2025-03-09 22:55:59.041,10.7400,0.7600,-0.6300,0.5000,-9.1250,-2.0000,0.6764,-0.2542,0.6285,0.2878,
2025-03-09 22:55:59.052,10.8500,0.8000,-0.7300,0.6250,-8.3750,2.0625,0.6770,-0.2542,0.6281,0.2875,
2025-03-09 22:55:59.063,10.5500,0.6600,-0.7400,-1.2500,-4.8750,-0.3125,0.6774,-0.2544,0.6277,0.2872,
2025-03-09 22:55:59.071,9.9900,0.6500,-0.6000,-1.2500,-0.1875,-4.0625,0.6776,-0.2546,0.6273,0.2872,
2025-03-09 22:55:59.083,9.8000,0.8300,-0.4100,-0.2500,2.9375,-5.1875,0.6777,-0.2545,0.6272,0.2875,
2025-03-09 22:55:59.091,9.6400,0.8000,-0.4000,0.3125,3.3125,-3.3125,0.6776,-0.2541,0.6273,0.2878,
2025-03-09 22:55:59.104,9.7000,0.8100,-0.4200,0.7500,2.1250,-0.8750,0.6780,-0.2526,0.6279,0.2869,
2025-03-09 22:55:59.112,9.7800,0.6900,-0.4100,-0.2500,0.5000,0.3125,0.6779,-0.2524,0.6280,0.2869,
2025-03-09 22:55:59.124,9.7400,0.6500,-0.4000,-1.1250,-0.6250,2.3750,0.6779,-0.2524,0.6280,0.2869,
2025-03-09 22:55:59.177,9.7800,0.6200,-0.4600,-1.1875,-0.7500,4.1250,0.6779,-0.2526,0.6280,0.2869,
2025-03-09 22:55:59.177,9.7400,0.6400,-0.4700,-1.0625,-1.1250,4.0625,0.6778,-0.2529,0.6280,0.2867,
2025-03-09 22:55:59.177,9.7300,0.6100,-0.4300,-0.1875,-0.9375,3.5625,0.6777,-0.2534,0.6280,0.2866,
2025-03-09 22:55:59.177,9.5900,0.5300,-0.3900,0.0000,-0.1250,3.6875,0.6777,-0.2536,0.6280,0.2864,
2025-03-09 22:55:59.177,9.7100,0.6600,-0.4800,1.0000,0.3750,4.2500,0.6776,-0.2538,0.6282,0.2862,
2025-03-09 22:55:59.182,9.4500,0.5600,-0.4000,2.0625,-0.1250,3.5625,0.6775,-0.2540,0.6283,0.2859,
2025-03-09 22:55:59.191,8.7500,0.4700,-0.4600,4.9375,-1.0625,3.8125,0.6775,-0.2541,0.6284,0.2856,
2025-03-09 22:55:59.205,11.0600,1.0300,-0.5100,6.0625,-0.9375,0.3125,0.6776,-0.2540,0.6286,0.2850,
2025-03-09 22:55:59.211,9.8700,0.8100,-0.5500,0.3125,-1.3750,1.0625,0.6778,-0.2537,0.6287,0.2846,
2025-03-09 22:55:59.222,9.8800,0.8200,-0.4700,-0.3750,-0.3125,1.3750,0.6779,-0.2537,0.6286,0.2845,
2025-03-09 22:55:59.234,9.8700,0.6900,-0.5100,-0.6875,0.8750,0.1250,0.6778,-0.2538,0.6286,0.2844,
2025-03-09 22:55:59.242,9.8200,0.6400,-0.4500,-1.1250,1.6250,0.3125,0.6778,-0.2538,0.6287,0.2845,
2025-03-09 22:55:59.252,9.7800,0.4600,-0.4600,-0.7500,1.5625,0.8750,0.6777,-0.2538,0.6288,0.2846,
2025-03-09 22:55:59.276,9.7800,0.5300,-0.5200,-0.4375,1.6875,0.5000,0.6776,-0.2539,0.6288,0.2846,
2025-03-09 22:55:59.276,9.7500,0.5900,-0.4400,0.2500,2.0625,-0.5625,0.6774,-0.2539,0.6290,0.2847,
2025-03-09 22:55:59.282,9.6800,0.6600,-0.3800,0.7500,1.3125,-0.0625,0.6773,-0.2538,0.6291,0.2847,
2025-03-09 22:55:59.293,9.6800,0.6600,-0.3800,-0.3125,-0.2500,1.1875,0.6773,-0.2538,0.6291,0.2847,
2025-03-09 22:55:59.301,9.7600,0.7800,-0.3200,-3.1250,-1.1250,0.0000,0.6772,-0.2538,0.6292,0.2846,
2025-03-09 22:55:59.314,9.7700,0.7400,-0.3700,-3.7500,-2.2500,0.3750,0.6772,-0.2540,0.6291,0.2847,
2025-03-09 22:55:59.323,9.7800,0.5700,-0.4800,-3.7500,-3.5000,1.0625,0.6773,-0.2543,0.6289,0.2849,
2025-03-09 22:55:59.374,9.7400,0.6500,-0.4100,-3.6875,-3.5000,0.5000,0.6774,-0.2546,0.6286,0.2850,
2025-03-09 22:55:59.377,9.7400,0.6500,-0.4100,-2.6875,-3.8750,0.5000,0.6774,-0.2549,0.6284,0.2852,
2025-03-09 22:55:59.378,9.7900,0.6000,-0.4700,-2.3750,-3.9375,0.6250,0.6776,-0.2550,0.6281,0.2852,
2025-03-09 22:55:59.378,9.8000,0.6000,-0.5400,-2.5000,-4.1250,0.6875,0.6777,-0.2553,0.6278,0.2852,
2025-03-09 22:55:59.378,9.7500,0.5800,-0.5700,-2.5625,-4.3750,0.9375,0.6779,-0.2556,0.6276,0.2852,
2025-03-09 22:55:59.382,9.7200,0.6400,-0.5300,-2.9375,-4.1875,0.8125,0.6781,-0.2559,0.6273,0.2852,
2025-03-09 22:55:59.396,9.7200,0.6400,-0.5300,-2.9375,-3.8750,0.8750,0.6782,-0.2562,0.6270,0.2852,
2025-03-09 22:55:59.404,9.7900,0.5700,-0.6000,-2.3125,-2.8125,0.1250,0.6785,-0.2559,0.6269,0.2847,
2025-03-09 22:55:59.411,9.7500,0.6300,-0.5700,-2.3750,-1.5000,-0.6875,0.6786,-0.2561,0.6267,0.2848,
2025-03-09 22:55:59.502,9.7700,0.6400,-0.5400,-1.8750,-0.4375,-0.9375,0.6786,-0.2562,0.6266,0.2849,
2025-03-09 22:55:59.502,9.7600,0.6500,-0.5700,-2.8750,0.3125,-1.0625,0.6786,-0.2563,0.6265,0.2851,
2025-03-09 22:55:59.502,9.7600,0.6500,-0.5700,-3.6875,0.6875,-1.1250,0.6786,-0.2564,0.6264,0.2853,
2025-03-09 22:55:59.503,9.7400,0.7900,-0.4700,-4.2500,0.8125,-0.1250,0.6785,-0.2565,0.6264,0.2856,
2025-03-09 22:55:59.503,9.7500,0.7600,-0.4500,-4.3750,0.0625,1.8750,0.6783,-0.2567,0.6263,0.2859,
2025-03-09 22:55:59.503,9.7700,0.6600,-0.4800,-4.5625,-0.8750,3.8750,0.6782,-0.2570,0.6262,0.2860,
2025-03-09 22:55:59.503,9.7800,0.5600,-0.4800,-3.1250,-1.1250,5.0000,0.6781,-0.2575,0.6262,0.2861,
2025-03-09 22:55:59.503,9.7800,0.5600,-0.4800,-3.1250,-1.1250,5.0000,0.6779,-0.2580,0.6262,0.2860,
2025-03-09 22:55:59.503,9.7900,0.4900,-0.5500,-0.6875,-0.8125,3.5000,0.6778,-0.2585,0.6262,0.2859,
2025-03-09 22:55:59.516,9.8100,0.5200,-0.6100,-0.2500,-0.1250,1.3750,0.6777,-0.2587,0.6262,0.2857,
2025-03-09 22:55:59.524,9.8000,0.5300,-0.5700,-0.3750,0.1250,0.1875,0.6777,-0.2589,0.6262,0.2856,
2025-03-09 22:55:59.532,9.7700,0.5800,-0.5400,-0.5625,0.6875,-0.8125,0.6777,-0.2588,0.6262,0.2856,
2025-03-09 22:55:59.541,9.7700,0.5800,-0.5400,-0.5625,0.6875,-0.8125,0.6777,-0.2588,0.6262,0.2857,
2025-03-09 22:55:59.553,9.8000,0.5900,-0.5500,-0.3750,1.7500,-1.9375,0.6777,-0.2587,0.6263,0.2857,
2025-03-09 22:55:59.576,9.7600,0.6100,-0.4800,-0.1250,1.4375,-1.1875,0.6775,-0.2584,0.6264,0.2860,
2025-03-09 22:55:59.592,9.7900,0.6600,-0.4300,-0.4375,0.6875,-0.6875,0.6775,-0.2582,0.6265,0.2862,
2025-03-09 22:55:59.606,9.7700,0.5800,-0.4000,0.1250,-1.2500,0.1250,0.6775,-0.2581,0.6265,0.2861,
2025-03-09 22:55:59.768,9.8300,0.4400,-0.5400,-0.0625,-2.2500,-0.7500,0.6776,-0.2581,0.6265,0.2861,
2025-03-09 22:55:59.768,9.8600,0.4500,-0.6200,-1.1875,-2.5625,-2.9375,0.6777,-0.2582,0.6263,0.2860,
2025-03-09 22:55:59.768,9.8200,0.4200,-0.6300,-3.5625,-2.6875,-5.3750,0.6778,-0.2581,0.6261,0.2862,
2025-03-09 22:55:59.768,9.8200,0.4200,-0.6300,-3.5625,-2.6875,-5.3750,0.6780,-0.2581,0.6257,0.2866,
2025-03-09 22:55:59.768,9.8900,0.4700,-0.7800,-10.7500,-0.6875,-12.4375,0.6783,-0.2578,0.6254,0.2870,
2025-03-09 22:55:59.768,9.8400,0.5500,-0.6800,-17.0000,-0.0625,-15.9375,0.6783,-0.2577,0.6248,0.2882,
2025-03-09 22:55:59.768,9.8100,0.6600,-0.6700,-18.8125,1.5625,-18.1250,0.6783,-0.2578,0.6240,0.2900,
2025-03-09 22:55:59.769,9.6900,0.9800,-0.5400,-18.1875,3.6250,-19.0000,0.6782,-0.2577,0.6232,0.2920,
2025-03-09 22:55:59.769,9.5800,1.3300,-0.3300,-21.8125,2.4375,-11.3125,0.6776,-0.2573,0.6221,0.2961,
2025-03-09 22:55:59.769,9.6100,1.2600,-0.3000,-23.9375,-0.1250,-3.9375,0.6772,-0.2577,0.6215,0.2980,
2025-03-09 22:55:59.774,9.6300,1.1500,-0.3600,-24.4375,-2.6250,2.5000,0.6767,-0.2587,0.6208,0.2996,
2025-03-09 22:55:59.774,9.6400,1.0100,-0.3000,-25.5625,-5.8125,7.7500,0.6761,-0.2603,0.6202,0.3008,
2025-03-09 22:55:59.774,9.7700,0.5700,-0.4900,-6.1875,-5.0000,14.0625,0.6752,-0.2640,0.6190,0.3021,
2025-03-09 22:55:59.774,9.8300,0.4500,-0.6200,4.5000,-2.6875,14.4375,0.6750,-0.2653,0.6189,0.3016,
2025-03-09 22:55:59.786,9.7900,0.5800,-0.5200,7.9375,-1.1250,9.6250,0.6749,-0.2662,0.6196,0.2995,
2025-03-09 22:55:59.931,9.8100,0.5700,-0.5900,2.6250,-2.4375,8.6250,0.6750,-0.2667,0.6202,0.2975,
2025-03-09 22:55:59.931,9.7700,0.6100,-0.5300,1.6250,-3.6250,9.4375,0.6750,-0.2676,0.6205,0.2962,
2025-03-09 22:55:59.931,9.8000,0.4800,-0.6200,2.5625,-3.1250,8.0625,0.6751,-0.2686,0.6206,0.2949,
2025-03-09 22:55:59.931,9.7900,0.5400,-0.6100,7.6875,0.0625,5.9375,0.6752,-0.2687,0.6208,0.2942,
2025-03-09 22:55:59.931,9.7100,0.7100,-0.4500,12.5625,-1.5625,9.5625,0.6753,-0.2685,0.6216,0.2924,
2025-03-09 22:55:59.931,9.8100,0.5100,-0.5500,14.0000,-3.0625,10.9375,0.6757,-0.2684,0.6224,0.2897,
2025-03-09 22:55:59.931,9.8100,0.4700,-0.5600,17.5000,-3.3125,9.5000,0.6760,-0.2683,0.6228,0.2883,
2025-03-09 22:55:59.938,9.8100,0.3200,-0.7300,3.6250,-5.5000,5.5000,0.6769,-0.2677,0.6236,0.2852,
2025-03-09 22:55:59.944,9.7600,0.3700,-0.6800,-0.6875,-8.1875,1.1250,0.6775,-0.2683,0.6230,0.2844,
2025-03-09 22:55:59.958,9.7600,0.5400,-0.7500,-0.2500,-6.3125,-2.4375,0.6780,-0.2684,0.6225,0.2843,
2025-03-09 22:55:59.974,9.7500,0.5500,-0.6700,-0.0625,-3.5625,-2.0000,0.6786,-0.2684,0.6218,0.2843,
2025-03-09 22:55:59.994,9.7700,0.5500,-0.5000,-0.3750,-4.0000,-1.6875,0.6791,-0.2684,0.6212,0.2843,
2025-03-09 22:56:00.003,9.7500,0.5800,-0.5200,0.0000,-7.6875,-0.5000,0.6794,-0.2684,0.6209,0.2842,
2025-03-09 22:56:00.027,9.7300,0.4700,-0.5500,-0.1875,-9.6875,-0.3750,0.6803,-0.2688,0.6199,0.2839,
2025-03-09 22:56:00.074,9.7600,0.4900,-0.5700,-0.1250,-14.1250,-1.1875,0.6817,-0.2693,0.6185,0.2834,
2025-03-09 22:56:00.074,9.7400,0.5100,-0.6100,0.0000,-19.3125,-1.7500,0.6825,-0.2696,0.6175,0.2831,
2025-03-09 22:56:00.074,9.7600,0.5100,-0.6000,-0.3125,-25.8750,-1.6875,0.6847,-0.2704,0.6151,0.2824,
2025-03-09 22:56:00.090,9.7100,0.4900,-0.6100,-0.3125,-29.6875,-2.2500,0.6875,-0.2714,0.6120,0.2814,
2025-03-09 22:56:00.106,9.7300,0.5300,-0.6300,-0.6250,-33.8125,-2.6875,0.6892,-0.2720,0.6101,0.2808,
2025-03-09 22:56:00.124,9.6900,0.7000,-0.8700,-0.8125,-43.8750,-3.0000,0.6933,-0.2736,0.6053,0.2794,
2025-03-09 22:56:00.141,9.7600,0.4100,-1.1100,-0.6250,-52.3750,-0.2500,0.6985,-0.2759,0.5993,0.2772,
2025-03-09 22:56:00.154,9.6800,0.5400,-1.4200,-0.3750,-55.3125,-2.8750,0.7013,-0.2770,0.5961,0.2759,
2025-03-09 22:56:00.174,9.6800,0.7100,-1.6100,-0.1875,-54.9375,-0.2500,0.7070,-0.2792,0.5894,0.2736,
2025-03-09 22:56:00.191,9.6200,0.4500,-1.6500,0.0000,-55.5625,0.8750,0.7125,-0.2818,0.5828,0.2709,
2025-03-09 22:56:00.208,9.6200,0.5000,-1.6400,-0.2500,-59.5625,-0.8750,0.7152,-0.2831,0.5793,0.2695,
2025-03-09 22:56:00.222,9.5600,0.5900,-1.6700,0.0000,-63.2500,-0.8750,0.7213,-0.2858,0.5718,0.2667,
2025-03-09 22:56:00.237,9.5200,0.5300,-1.6700,-0.0625,-68.5625,-0.3750,0.7244,-0.2873,0.5678,0.2651,
2025-03-09 22:56:00.254,9.4300,0.5500,-1.6900,-0.2500,-83.5625,-0.8125,0.7320,-0.2898,0.5588,0.2607,
2025-03-09 22:56:00.278,9.2800,4.2400,-0.0100,1.4375,-105.0000,-6.1875,0.7413,-0.2935,0.5465,0.2562,
2025-03-09 22:56:00.290,8.7600,0.5400,-5.1000,-18.0625,-127.7500,19.6875,0.7534,-0.2964,0.5318,0.2485,
2025-03-09 22:56:00.303,9.0900,1.9200,-6.1800,-21.5000,-94.3750,0.6250,0.7571,-0.2993,0.5253,0.2474,
2025-03-09 22:56:00.328,9.4600,-0.0900,-5.0600,17.4375,-5.8125,4.2500,0.7599,-0.3000,0.5221,0.2447,
2025-03-09 22:56:00.353,9.2800,0.5000,-2.1800,9.3125,39.4375,-1.1875,0.7578,-0.2970,0.5271,0.2444,
2025-03-09 22:56:00.381,9.4000,0.9600,-2.7800,6.1250,28.1875,-1.0000,0.7567,-0.2960,0.5290,0.2447,
2025-03-09 22:56:00.381,9.2700,0.3300,-3.2700,0.8125,18.2500,3.6250,0.7549,-0.2954,0.5317,0.2452,
2025-03-09 22:56:00.390,9.3300,0.1900,-3.5300,8.7500,21.0000,-2.4375,0.7534,-0.2939,0.5345,0.2455,
2025-03-09 22:56:00.403,9.2900,0.6700,-3.0100,5.1250,29.7500,-4.2500,0.7525,-0.2922,0.5366,0.2457,
2025-03-09 22:56:00.422,9.4100,0.4300,-3.1700,-0.6250,37.3750,-3.9375,0.7494,-0.2902,0.5410,0.2480,
2025-03-09 22:56:00.433,9.2300,0.6500,-3.1600,-0.8750,40.0000,-3.5625,0.7477,-0.2891,0.5434,0.2492,
2025-03-09 22:56:00.452,9.5100,0.4700,-3.3500,6.1250,51.2500,-3.6875,0.7438,-0.2857,0.5497,0.2509,
2025-03-09 22:56:00.463,9.2700,1.0000,-2.6900,7.0000,62.1875,-6.3750,0.7414,-0.2837,0.5534,0.2523,
2025-03-09 22:56:00.485,9.5700,0.4400,-1.7300,6.7500,64.8125,3.1250,0.7355,-0.2801,0.5620,0.2545,
2025-03-09 22:56:00.506,9.6100,0.5600,-1.9000,18.6250,46.5000,1.4375,0.7310,-0.2770,0.5691,0.2549,
2025-03-09 22:56:00.523,9.6500,0.1800,-1.7900,25.8125,36.5000,-1.3125,0.7286,-0.2725,0.5750,0.2535,
2025-03-09 22:56:00.536,9.6200,0.6500,-1.8900,19.0000,34.5000,-1.9375,0.7274,-0.2708,0.5775,0.2532,
2025-03-09 22:56:00.542,9.6500,0.4100,-1.8500,5.1250,35.2500,-0.5000,0.7258,-0.2698,0.5798,0.2537,
2025-03-09 22:56:00.556,9.3900,1.7400,-0.2500,1.7500,34.5000,-0.1875,0.7242,-0.2687,0.5820,0.2541,
2025-03-09 22:56:00.564,9.7000,0.5800,0.4000,-1.4375,25.0000,4.3750,0.7228,-0.2684,0.5837,0.2546,
2025-03-09 22:56:00.574,9.5600,0.8600,-2.4800,-0.9375,-4.1875,11.0000,0.7228,-0.2693,0.5836,0.2540,
2025-03-09 22:56:00.598,9.6500,0.3400,-2.0800,-0.6250,6.0625,5.4375,0.7223,-0.2697,0.5841,0.2537,
2025-03-09 22:56:00.614,9.6900,0.0700,-2.4000,-0.5000,8.0000,5.6250,0.7219,-0.2696,0.5848,0.2534,
2025-03-09 22:56:00.615,9.6400,0.5400,-2.0100,-1.5000,14.4375,1.1250,0.7211,-0.2695,0.5857,0.2537,
2025-03-09 22:56:00.621,9.6700,0.2400,-1.7100,-3.1875,19.6875,-1.0000,0.7201,-0.2691,0.5868,0.2544,
2025-03-09 22:56:00.670,9.6100,0.6600,-1.7200,-3.0000,21.1875,-1.6875,0.7190,-0.2687,0.5879,0.2551,
2025-03-09 22:56:00.670,9.6400,0.4600,-1.6100,-0.1875,20.4375,-1.5625,0.7181,-0.2682,0.5892,0.2557,
2025-03-09 22:56:00.670,9.6500,0.5300,-1.6400,0.6875,19.1875,-1.1875,0.7172,-0.2675,0.5904,0.2560,
2025-03-09 22:56:00.670,9.6500,0.6100,-1.5800,0.7500,16.8750,-1.5000,0.7164,-0.2670,0.5914,0.2565,
2025-03-09 22:56:00.684,9.6400,0.8500,-1.4700,1.0000,16.0625,-0.7500,0.7156,-0.2666,0.5923,0.2568,
2025-03-09 22:56:00.688,9.6900,0.5100,-1.7900,1.6875,14.4375,2.8750,0.7149,-0.2664,0.5933,0.2568,
2025-03-09 22:56:00.690,9.6900,0.4100,-1.7700,3.8125,14.5000,6.0625,0.7141,-0.2662,0.5944,0.2566,
2025-03-09 22:56:00.702,9.6900,0.3600,-1.8400,7.6875,16.7500,5.5000,0.7131,-0.2664,0.5955,0.2566,
2025-03-09 22:56:00.712,9.7200,0.1500,-1.9400,11.3125,20.3125,2.8750,0.7123,-0.2655,0.5971,0.2563,
2025-03-09 22:56:00.721,9.7300,0.2100,-1.8400,11.9375,25.5000,-0.6250,0.7113,-0.2643,0.5988,0.2562,
2025-03-09 22:56:00.732,9.6900,0.3200,-1.6900,7.1250,30.8750,-3.8750,0.7099,-0.2631,0.6008,0.2566,
2025-03-09 22:56:00.741,9.6700,0.4700,-1.5100,2.1875,35.9375,-5.5000,0.7083,-0.2618,0.6028,0.2576,
2025-03-09 22:56:00.752,9.7100,0.3400,-1.3400,3.8125,39.1875,-6.1250,0.7065,-0.2606,0.6050,0.2587,
2025-03-09 22:56:00.761,9.7400,0.4800,-1.3200,6.2500,42.3125,-7.4375,0.7046,-0.2589,0.6076,0.2596,
2025-03-09 22:56:00.772,9.7800,0.5100,-1.1700,7.4375,44.3125,-9.2500,0.7027,-0.2570,0.6102,0.2606,
2025-03-09 22:56:00.791,9.6200,0.8700,-0.8500,7.5000,44.5625,-9.3750,0.7008,-0.2550,0.6127,0.2616,
2025-03-09 22:56:00.791,9.5900,0.9200,-0.5600,6.2500,42.2500,-6.1250,0.6988,-0.2534,0.6152,0.2624,
2025-03-09 22:56:00.801,9.7300,0.8300,-0.8900,3.6250,39.0625,-2.2500,0.6969,-0.2523,0.6175,0.2633,
2025-03-09 22:56:00.811,9.7400,0.5000,-0.6100,0.5625,34.5625,2.2500,0.6950,-0.2517,0.6196,0.2639,
2025-03-09 22:56:00.824,9.7300,0.4600,-0.8700,-1.1875,31.1875,4.3125,0.6932,-0.2513,0.6215,0.2645,
2025-03-09 22:56:00.831,9.8200,0.0200,-0.8700,-2.8750,28.8750,4.3125,0.6916,-0.2511,0.6232,0.2650,
2025-03-09 22:56:00.841,9.8600,0.3000,-0.9200,-3.0625,29.5000,1.8125,0.6899,-0.2507,0.6249,0.2657,
2025-03-09 22:56:00.854,9.6600,0.4900,-0.4700,-1.8125,31.6250,-2.4375,0.6882,-0.2502,0.6266,0.2668,
2025-03-09 22:56:00.862,9.6800,0.8700,-0.2600,-2.8125,31.0625,-4.4375,0.6866,-0.2493,0.6282,0.2679,
2025-03-09 22:56:00.873,9.5700,1.0400,-0.1400,-6.2500,31.4375,-6.5000,0.6849,-0.2486,0.6298,0.2692,
2025-03-09 22:56:00.880,9.8000,0.6200,-0.5900,-9.6250,25.7500,-2.5000,0.6833,-0.2483,0.6310,0.2705,
2025-03-09 22:56:00.902,9.7700,0.4200,-0.3400,-18.2500,19.4375,1.5000,0.6819,-0.2490,0.6318,0.2719,
2025-03-09 22:56:00.903,9.7800,0.4500,-0.3400,-19.0000,20.0000,-0.0625,0.6804,-0.2496,0.6325,0.2734,
2025-03-09 22:56:00.912,9.8000,0.4300,-0.2400,-19.6250,18.0000,-1.8750,0.6789,-0.2501,0.6331,0.2750,
2025-03-09 22:56:00.919,9.7900,0.5200,-0.2000,-17.2500,16.3750,-3.0625,0.6777,-0.2505,0.6336,0.2765,
2025-03-09 22:56:00.974,9.6900,0.7900,-0.0400,-15.9375,13.3125,-3.8750,0.6767,-0.2508,0.6339,0.2779,
2025-03-09 22:56:00.974,9.6900,0.8400,0.0400,-14.5000,9.0625,-2.6250,0.6760,-0.2512,0.6341,0.2791,
2025-03-09 22:56:00.974,9.7200,0.6900,-0.1300,-14.6250,3.4375,0.5625,0.6753,-0.2522,0.6338,0.2803,
2025-03-09 22:56:00.974,9.7900,0.4900,-0.3800,-12.8750,-0.8750,3.5625,0.6750,-0.2531,0.6336,0.2808,
2025-03-09 22:56:00.974,9.7500,0.5100,-0.3700,-11.1250,-2.2500,3.6250,0.6747,-0.2540,0.6334,0.2812,
2025-03-09 22:56:00.981,9.7900,0.5100,-0.4400,-7.8750,-1.8750,3.0625,0.6746,-0.2546,0.6332,0.2814,
2025-03-09 22:56:00.993,9.8000,0.4200,-0.4700,-5.0000,-1.2500,2.8125,0.6745,-0.2551,0.6330,0.2815,
2025-03-09 22:56:01.003,9.7800,0.5000,-0.4500,-4.6250,-0.5000,1.5000,0.6744,-0.2552,0.6331,0.2816,
2025-03-09 22:56:01.010,9.7500,0.5800,-0.4100,-6.8125,-0.5000,-0.0625,0.6743,-0.2556,0.6329,0.2820,
2025-03-09 22:56:01.020,9.7800,0.5200,-0.5000,-8.6250,-0.5000,-0.7500,0.6741,-0.2560,0.6327,0.2825,
2025-03-09 22:56:01.030,9.7900,0.4700,-0.5100,-9.0000,-0.3125,-0.8125,0.6739,-0.2565,0.6324,0.2831,
2025-03-09 22:56:01.041,9.7700,0.5900,-0.4200,-8.0000,0.7500,-1.6250,0.6737,-0.2568,0.6323,0.2836,
2025-03-09 22:56:01.050,9.7500,0.5600,-0.4300,-6.0000,1.8125,-1.3125,0.6734,-0.2572,0.6321,0.2842,
2025-03-09 22:56:01.062,9.7400,0.6200,-0.3300,-6.5625,1.5625,-0.9375,0.6732,-0.2574,0.6321,0.2847,
2025-03-09 22:56:01.071,9.7600,0.5600,-0.3600,-6.0625,1.0625,-0.2500,0.6730,-0.2577,0.6320,0.2851,
2025-03-09 22:56:01.082,9.7500,0.6400,-0.3000,-4.5625,1.1250,0.8125,0.6728,-0.2580,0.6320,0.2853,
2025-03-09 22:56:01.095,9.7500,0.5900,-0.3100,-3.6250,0.5000,1.3125,0.6727,-0.2583,0.6319,0.2855,
2025-03-09 22:56:01.100,9.7800,0.4800,-0.3300,-2.3750,-0.3125,2.3750,0.6727,-0.2583,0.6319,0.2855,
2025-03-09 22:56:01.112,9.7200,0.6500,-0.2200,-1.7500,-1.3750,2.1875,0.6725,-0.2586,0.6319,0.2855,
2025-03-09 22:56:01.122,9.7300,0.6500,-0.1900,-0.8750,-2.4375,1.6250,0.6725,-0.2589,0.6319,0.2855,
2025-03-09 22:56:01.130,9.7500,0.6100,-0.2500,-0.0625,-4.8750,2.6875,0.6725,-0.2590,0.6318,0.2854,
2025-03-09 22:56:01.142,9.7800,0.4900,-0.4000,-0.0625,-7.6250,4.0000,0.6728,-0.2593,0.6316,0.2852,
2025-03-09 22:56:01.151,9.8100,0.3600,-0.5100,0.4375,-9.6875,4.4375,0.6730,-0.2597,0.6312,0.2848,
2025-03-09 22:56:01.161,9.8000,0.3300,-0.6200,0.8125,-10.3750,4.0000,0.6735,-0.2602,0.6308,0.2844,
2025-03-09 22:56:01.174,9.7900,0.5200,-0.5800,0.3750,-9.5000,2.0000,0.6739,-0.2606,0.6303,0.2839,
2025-03-09 22:56:01.180,9.7600,0.4700,-0.6200,0.7500,-7.6875,1.0625,0.6744,-0.2609,0.6298,0.2835,
2025-03-09 22:56:01.191,9.7600,0.5200,-0.5800,1.3125,-6.2500,1.3125,0.6748,-0.2612,0.6294,0.2833,
2025-03-09 22:56:01.202,9.7800,0.5300,-0.5800,1.8125,-4.5000,1.1875,0.6752,-0.2613,0.6291,0.2830,
2025-03-09 22:56:01.210,9.7900,0.3600,-0.6800,4.0000,-3.6250,1.8125,0.6754,-0.2615,0.6289,0.2828,
2025-03-09 22:56:01.221,9.7900,0.4100,-0.6400,4.8750,-2.3125,1.4375,0.6756,-0.2615,0.6288,0.2824,
2025-03-09 22:56:01.271,9.7800,0.4700,-0.6000,3.9375,-1.0000,0.0000,0.6758,-0.2615,0.6288,0.2820,
2025-03-09 22:56:01.271,9.7200,0.6500,-0.4500,3.6875,0.3750,-1.1250,0.6760,-0.2613,0.6288,0.2817,
2025-03-09 22:56:01.271,9.7600,0.4600,-0.4700,1.9375,-0.6250,1.5000,0.6761,-0.2610,0.6288,0.2815,
2025-03-09 22:56:01.271,9.7600,0.4800,-0.5000,1.9375,-0.6250,1.5000,0.6762,-0.2611,0.6289,0.2814,
2025-03-09 22:56:01.271,9.7600,0.4800,-0.5300,0.4375,-1.4375,1.5625,0.6762,-0.2610,0.6289,0.2812,
2025-03-09 22:56:01.281,9.7600,0.4300,-0.4700,-0.4375,-2.3750,1.3125,0.6763,-0.2612,0.6288,0.2811,
2025-03-09 22:56:01.293,9.7800,0.3600,-0.5100,-0.7500,-3.1250,0.8125,0.6764,-0.2613,0.6287,0.2809,
2025-03-09 22:56:01.302,9.7900,0.3700,-0.5300,-1.1250,-3.5000,-0.8750,0.6765,-0.2615,0.6286,0.2809,
2025-03-09 22:56:01.312,9.7500,0.4900,-0.4500,-1.3125,-4.3750,-1.6875,0.6767,-0.2615,0.6284,0.2808,
2025-03-09 22:56:01.322,9.7500,0.5400,-0.4600,-1.1875,-6.0625,-1.0000,0.6770,-0.2615,0.6281,0.2808,
2025-03-09 22:56:01.332,9.7500,0.5200,-0.4900,-1.4375,-7.3750,-0.1875,0.6772,-0.2617,0.6277,0.2808,
2025-03-09 22:56:01.347,9.7700,0.4600,-0.5300,-1.0625,-8.4375,0.3125,0.6776,-0.2620,0.6272,0.2808,
2025-03-09 22:56:01.351,9.7800,0.4300,-0.5700,-0.2500,-8.6250,-0.2500,0.6780,-0.2622,0.6267,0.2806,
2025-03-09 22:56:01.361,9.7800,0.4500,-0.6700,0.5000,-8.5000,-0.8125,0.6785,-0.2624,0.6262,0.2805,
2025-03-09 22:56:01.370,9.7700,0.5000,-0.6500,0.6250,-8.1875,-1.0000,0.6789,-0.2626,0.6257,0.2803,
2025-03-09 22:56:01.384,9.7600,0.5300,-0.6800,0.6250,-7.8750,-0.8125,0.6794,-0.2627,0.6252,0.2801,
2025-03-09 22:56:01.391,9.7600,0.4700,-0.7300,0.3125,-6.8125,-0.7500,0.6799,-0.2628,0.6248,0.2800,
2025-03-09 22:56:01.406,9.7200,0.5200,-0.6900,-0.0625,-6.0625,-0.8125,0.6803,-0.2629,0.6243,0.2799,
2025-03-09 22:56:01.413,9.7800,0.4400,-0.7700,-0.1250,-5.3750,-0.6875,0.6808,-0.2625,0.6242,0.2793,
2025-03-09 22:56:01.421,9.8000,0.4400,-0.8300,0.0000,-3.9375,-1.6250,0.6811,-0.2626,0.6239,0.2792,
2025-03-09 22:56:01.437,9.7400,0.6000,-0.6900,-0.0625,-2.6875,-1.8750,0.6814,-0.2626,0.6236,0.2792,
2025-03-09 22:56:01.442,9.7400,0.5900,-0.6700,-0.1250,-2.5000,-1.0625,0.6816,-0.2626,0.6233,0.2792,
2025-03-09 22:56:01.451,9.7600,0.5800,-0.7000,0.1250,-2.3125,0.1875,0.6817,-0.2626,0.6232,0.2792,
2025-03-09 22:56:01.461,9.7600,0.5500,-0.7000,0.5625,-1.8750,0.5625,0.6819,-0.2626,0.6230,0.2791,
2025-03-09 22:56:01.471,9.7900,0.3700,-0.7700,0.6250,-1.6875,0.8750,0.6820,-0.2626,0.6229,0.2791,
2025-03-09 22:56:01.480,9.7600,0.3800,-0.7700,0.6250,-1.0625,-0.5000,0.6821,-0.2627,0.6229,0.2790,
2025-03-09 22:56:01.497,9.7500,0.5200,-0.6600,0.7500,-0.6875,-1.1250,0.6821,-0.2627,0.6228,0.2789,
2025-03-09 22:56:01.505,9.7200,0.5900,-0.6100,0.4375,-1.1875,-1.1250,0.6822,-0.2626,0.6228,0.2789,
2025-03-09 22:56:01.511,9.7500,0.6200,-0.5800,0.1250,-2.5000,0.1875,0.6823,-0.2626,0.6227,0.2789,
2025-03-09 22:56:01.527,9.7500,0.5800,-0.6800,-0.1875,-3.3750,1.6250,0.6824,-0.2626,0.6225,0.2789,
2025-03-09 22:56:01.574,9.7700,0.4200,-0.7600,-0.3750,-3.6875,1.7500,0.6826,-0.2628,0.6224,0.2787,
2025-03-09 22:56:01.574,9.7600,0.4200,-0.7400,0.2500,-3.5000,1.0000,0.6827,-0.2630,0.6222,0.2786,
2025-03-09 22:56:01.574,9.7600,0.4700,-0.7000,0.5000,-3.1875,0.1250,0.6829,-0.2631,0.6220,0.2784,
2025-03-09 22:56:01.575,9.7300,0.5100,-0.7100,1.0000,-3.2500,-0.0625,0.6832,-0.2629,0.6220,0.2780,
2025-03-09 22:56:01.575,9.7600,0.4800,-0.7800,0.9375,-3.5000,0.1250,0.6834,-0.2629,0.6218,0.2779,
2025-03-09 22:56:01.581,9.8000,0.4000,-0.8300,0.6875,-3.2500,0.3125,0.6836,-0.2629,0.6216,0.2778,
2025-03-09 22:56:01.592,9.7500,0.5200,-0.7300,0.0625,-2.5625,-0.2500,0.6838,-0.2630,0.6215,0.2776,
2025-03-09 22:56:01.601,9.7000,0.6900,-0.5500,-1.0625,-3.6875,0.6875,0.6839,-0.2631,0.6213,0.2776,
2025-03-09 22:56:01.611,9.7800,0.3700,-0.9700,-0.9375,-4.0000,2.1250,0.6841,-0.2632,0.6211,0.2775,
2025-03-09 22:56:01.622,9.7600,0.4700,-0.8800,-0.5625,-1.9375,0.8125,0.6842,-0.2635,0.6209,0.2774,
2025-03-09 22:56:01.632,9.7400,0.5700,-0.7900,-0.3125,-1.0000,1.0000,0.6843,-0.2636,0.6208,0.2773,
2025-03-09 22:56:01.646,9.7900,0.4000,-0.8500,-0.8125,-0.9375,2.0000,0.6843,-0.2637,0.6207,0.2772,
2025-03-09 22:56:01.651,9.7900,0.4100,-0.8400,-0.5000,-0.2500,1.4375,0.6843,-0.2639,0.6207,0.2771,
2025-03-09 22:56:01.661,9.7600,0.4000,-0.7500,0.3125,0.5625,0.4375,0.6844,-0.2637,0.6208,0.2768,
2025-03-09 22:56:01.683,9.7500,0.5100,-0.7100,0.4375,0.1875,-0.0625,0.6844,-0.2637,0.6208,0.2768,
2025-03-09 22:56:01.683,9.7600,0.4600,-0.7700,0.6250,-0.5000,-0.0625,0.6844,-0.2637,0.6208,0.2768,
2025-03-09 22:56:01.692,9.7600,0.4700,-0.7400,0.6875,-0.8125,-0.0625,0.6844,-0.2637,0.6208,0.2767,
2025-03-09 22:56:01.701,9.7700,0.4500,-0.7700,0.2500,-1.1250,-0.4375,0.6845,-0.2637,0.6208,0.2767,
2025-03-09 22:56:01.712,9.7500,0.4300,-0.7600,0.2500,-1.3125,-1.0625,0.6846,-0.2636,0.6208,0.2766,
2025-03-09 22:56:01.724,9.7500,0.5100,-0.7200,0.2500,-1.3750,-1.6875,0.6847,-0.2636,0.6207,0.2766,
2025-03-09 22:56:01.734,9.7500,0.5700,-0.7300,0.1250,-1.9375,-1.3125,0.6848,-0.2635,0.6205,0.2767,
2025-03-09 22:56:01.744,9.7500,0.4700,-0.7300,0.1250,-2.6250,-0.5000,0.6849,-0.2635,0.6204,0.2767,
2025-03-09 22:56:01.751,9.7500,0.4700,-0.7300,0.0625,-3.0625,-0.3750,0.6851,-0.2636,0.6202,0.2766,
2025-03-09 22:56:01.765,9.7700,0.4900,-0.8000,0.3750,-3.1250,-0.2500,0.6853,-0.2634,0.6202,0.2763,
2025-03-09 22:56:01.777,9.7600,0.5100,-0.7800,0.5625,-2.8125,-0.0625,0.6855,-0.2635,0.6200,0.2762,
2025-03-09 22:56:01.784,9.7300,0.4800,-0.8500,0.5625,-2.8750,0.1875,0.6856,-0.2636,0.6198,0.2762,
2025-03-09 22:56:01.792,9.7400,0.4800,-0.8500,0.8125,-2.3750,0.4375,0.6858,-0.2636,0.6196,0.2761,
2025-03-09 22:56:01.802,9.7400,0.4800,-0.8500,0.8125,-1.5625,0.4375,0.6859,-0.2636,0.6195,0.2761,
2025-03-09 22:56:01.812,9.7700,0.4400,-0.9200,0.5625,-0.2500,0.2500,0.6860,-0.2636,0.6194,0.2759,
2025-03-09 22:56:01.826,9.7800,0.4700,-0.9700,1.0625,2.1250,-0.1875,0.6860,-0.2636,0.6194,0.2759,
2025-03-09 22:56:01.878,9.7500,0.5200,-0.9100,1.8750,4.1875,-0.5000,0.6860,-0.2636,0.6196,0.2759,
2025-03-09 22:56:01.879,9.7700,0.4800,-0.8600,3.1250,5.6875,-0.4375,0.6858,-0.2634,0.6198,0.2759,
2025-03-09 22:56:01.879,9.7700,0.4800,-0.8600,3.6250,6.5000,0.0625,0.6856,-0.2631,0.6202,0.2758,
2025-03-09 22:56:01.879,9.7500,0.5400,-0.6700,3.3750,6.7500,0.7500,0.6854,-0.2627,0.6207,0.2757,
2025-03-09 22:56:01.879,9.7300,0.5900,-0.6600,2.9375,6.0000,1.5000,0.6851,-0.2624,0.6212,0.2756,
2025-03-09 22:56:01.906,9.7300,0.5200,-0.6700,3.0000,5.0000,2.8125,0.6848,-0.2622,0.6216,0.2755,
2025-03-09 22:56:01.906,9.7500,0.4000,-0.7700,3.7500,4.7500,2.6875,0.6846,-0.2621,0.6220,0.2753,
2025-03-09 22:56:01.906,9.7500,0.4000,-0.7700,4.1250,5.1875,1.6875,0.6843,-0.2619,0.6224,0.2751,
2025-03-09 22:56:01.917,9.7500,0.4400,-0.7500,4.8750,5.9375,1.2500,0.6841,-0.2617,0.6229,0.2748,
2025-03-09 22:56:01.930,9.7700,0.4200,-0.7400,5.2500,6.2500,0.6250,0.6838,-0.2614,0.6234,0.2747,
2025-03-09 22:56:01.932,9.7600,0.4600,-0.6400,4.0625,6.7500,0.0625,0.6837,-0.2610,0.6238,0.2744,
2025-03-09 22:56:01.946,9.7800,0.4700,-0.6200,2.5625,6.4375,-0.4375,0.6834,-0.2606,0.6243,0.2744,
2025-03-09 22:56:01.951,9.7800,0.4700,-0.6200,2.5625,6.4375,-0.4375,0.6831,-0.2604,0.6248,0.2744,
2025-03-09 22:56:01.965,9.7500,0.4000,-0.6800,0.5625,4.1250,0.3750,0.6828,-0.2603,0.6251,0.2745,
2025-03-09 22:56:01.974,9.7500,0.4000,-0.7300,0.3125,3.5625,0.0000,0.6826,-0.2602,0.6253,0.2746,
2025-03-09 22:56:01.983,9.7600,0.4300,-0.6700,0.3750,3.8750,-0.7500,0.6824,-0.2601,0.6255,0.2747,
2025-03-09 22:56:01.992,9.7700,0.4600,-0.7000,0.0000,3.9375,-1.0000,0.6822,-0.2600,0.6257,0.2748,
2025-03-09 22:56:02.000,9.7700,0.4600,-0.7000,0.0000,3.9375,-1.0000,0.6820,-0.2598,0.6259,0.2749,
2025-03-09 22:56:02.025,9.7600,0.5400,-0.5700,-0.5000,4.0625,-0.3125,0.6819,-0.2596,0.6262,0.2750,
2025-03-09 22:56:02.025,9.7800,0.4700,-0.5600,-0.6250,3.1875,0.6875,0.6816,-0.2595,0.6264,0.2750,
2025-03-09 22:56:02.036,9.7400,0.4400,-0.5500,-0.4375,2.1875,0.5625,0.6815,-0.2595,0.6266,0.2751,
2025-03-09 22:56:02.043,9.8300,0.4400,-0.5600,-0.2500,1.0000,0.5000,0.6813,-0.2594,0.6267,0.2751,
2025-03-09 22:56:02.067,9.8000,0.5400,-0.5400,-0.3750,-0.9375,0.1250,0.6813,-0.2595,0.6268,0.2752,
2025-03-09 22:56:02.072,9.7600,0.5100,-0.6300,-0.4375,-1.7500,0.8750,0.6813,-0.2595,0.6267,0.2752,
2025-03-09 22:56:02.085,9.7200,0.4700,-0.6600,-0.6250,-2.0000,1.6250,0.6814,-0.2595,0.6266,0.2751,
2025-03-09 22:56:02.094,9.7000,0.4900,-0.6400,-0.7500,-1.8125,1.8750,0.6815,-0.2597,0.6265,0.2750,
2025-03-09 22:56:02.101,9.7000,0.4900,-0.6400,-0.7500,-1.8125,1.8750,0.6815,-0.2599,0.6265,0.2749,
2025-03-09 22:56:02.112,9.7800,0.3700,-0.7000,-0.9375,-1.1250,0.8750,0.6815,-0.2601,0.6264,0.2748,
2025-03-09 22:56:02.174,9.7800,0.4700,-0.6700,0.3750,0.8750,-0.8125,0.6815,-0.2602,0.6263,0.2748,
2025-03-09 22:56:02.174,9.7400,0.5300,-0.6100,0.1250,1.6250,-0.1875,0.6814,-0.2601,0.6265,0.2750,
2025-03-09 22:56:02.174,9.7500,0.5200,-0.6600,0.1875,1.8750,0.6250,0.6813,-0.2600,0.6265,0.2750,
2025-03-09 22:56:02.174,9.8000,0.4800,-0.7100,0.2500,2.3125,1.3750,0.6812,-0.2600,0.6267,0.2750,
2025-03-09 22:56:02.186,9.7700,0.4500,-0.6900,0.1875,2.9375,1.9375,0.6811,-0.2601,0.6268,0.2750,
2025-03-09 22:56:02.192,9.7400,0.4100,-0.6800,0.3125,3.8125,2.0625,0.6809,-0.2601,0.6270,0.2750,
2025-03-09 22:56:02.221,9.7900,0.4000,-0.5500,0.3125,4.3750,1.5000,0.6804,-0.2601,0.6276,0.2749,
2025-03-09 22:56:02.233,9.8200,0.3400,-0.5500,0.0000,3.6875,-0.3750,0.6799,-0.2601,0.6281,0.2750,
2025-03-09 22:56:02.252,9.7500,0.4400,-0.4700,-0.1875,2.7500,-1.2500,0.6796,-0.2598,0.6285,0.2752,
2025-03-09 22:56:02.262,9.7200,0.4500,-0.4800,-0.3750,0.1250,-1.5625,0.6795,-0.2597,0.6285,0.2753,
2025-03-09 22:56:02.282,9.7400,0.4100,-0.5200,-0.8125,-2.0000,-2.1250,0.6796,-0.2596,0.6284,0.2754,
2025-03-09 22:56:02.305,9.7700,0.4700,-0.5800,-0.6875,-2.5625,-2.1875,0.6799,-0.2595,0.6280,0.2756,
2025-03-09 22:56:02.313,9.7800,0.5300,-0.5800,-0.4375,-3.1250,-1.1250,0.6801,-0.2595,0.6278,0.2757,
2025-03-09 22:56:02.337,9.7800,0.4300,-0.6700,-0.2500,-2.5000,-1.2500,0.6805,-0.2595,0.6274,0.2756,
2025-03-09 22:56:02.351,9.7700,0.4500,-0.6900,0.1250,-1.6875,-1.5625,0.6808,-0.2595,0.6271,0.2757,
2025-03-09 22:56:02.366,9.7600,0.5200,-0.6400,0.5625,-0.4375,-1.6250,0.6809,-0.2593,0.6269,0.2758,
2025-03-09 22:56:02.384,9.7400,0.5400,-0.6500,0.6250,-0.3125,0.2500,0.6809,-0.2592,0.6269,0.2759,
2025-03-09 22:56:02.403,9.7700,0.4500,-0.6400,0.4375,-0.5000,1.0625,0.6809,-0.2592,0.6270,0.2758,
2025-03-09 22:56:02.413,9.7800,0.4700,-0.6400,0.2500,-0.1250,0.9375,0.6809,-0.2593,0.6270,0.2758,
2025-03-09 22:56:02.466,9.7700,0.4700,-0.6800,0.3125,0.9375,0.3125,0.6809,-0.2594,0.6270,0.2757,
2025-03-09 22:56:02.470,9.7600,0.4600,-0.6300,0.5000,1.5625,0.1250,0.6808,-0.2593,0.6271,0.2758,
2025-03-09 22:56:02.470,9.7600,0.4900,-0.5900,0.1250,1.4375,0.4375,0.6807,-0.2593,0.6272,0.2758,
2025-03-09 22:56:02.487,9.7700,0.4700,-0.6200,-0.0625,0.9375,0.7500,0.6805,-0.2593,0.6274,0.2758,
2025-03-09 22:56:02.501,9.7600,0.4400,-0.5700,-0.0625,0.6250,0.5625,0.6804,-0.2593,0.6275,0.2758,
2025-03-09 22:56:02.517,9.7600,0.4500,-0.5800,0.0625,-0.4375,0.0000,0.6804,-0.2593,0.6275,0.2758,
2025-03-09 22:56:02.537,9.7900,0.4600,-0.6000,0.0000,-0.8750,-0.8125,0.6805,-0.2593,0.6274,0.2758,
2025-03-09 22:56:02.550,9.7700,0.4600,-0.6400,-0.1250,-0.8750,-1.0000,0.6806,-0.2592,0.6273,0.2758,
2025-03-09 22:56:02.562,9.7500,0.4700,-0.5900,-0.2500,-0.9375,-1.1250,0.6807,-0.2592,0.6272,0.2759,
2025-03-09 22:56:02.584,9.7800,0.4800,-0.6300,0.0000,-1.1250,-0.5625,0.6808,-0.2592,0.6270,0.2759,
2025-03-09 22:56:02.601,9.7700,0.4900,-0.6100,0.0000,-1.3125,-0.5000,0.6810,-0.2592,0.6269,0.2759,
2025-03-09 22:56:02.621,9.7800,0.4500,-0.6200,-0.2500,-1.6875,-0.4375,0.6810,-0.2592,0.6268,0.2758,
2025-03-09 22:56:02.633,9.7700,0.4700,-0.6600,-0.3750,-1.6250,-0.3125,0.6812,-0.2593,0.6266,0.2758,
2025-03-09 22:56:02.651,9.7800,0.4800,-0.6600,-0.1875,-0.6875,-0.6250,0.6813,-0.2593,0.6265,0.2758,
2025-03-09 22:56:02.668,9.7600,0.4800,-0.6500,-0.0625,-0.3125,-0.5000,0.6813,-0.2593,0.6265,0.2758,
2025-03-09 22:56:02.685,9.7600,0.4900,-0.6300,0.0625,0.0625,-0.6875,0.6814,-0.2592,0.6265,0.2758,
2025-03-09 22:56:02.704,9.7500,0.4800,-0.6100,-0.3750,-0.3125,-0.3125,0.6814,-0.2592,0.6265,0.2758,
2025-03-09 22:56:02.716,9.7600,0.4800,-0.6300,-0.3750,-0.5000,-0.0625,0.6814,-0.2592,0.6265,0.2758,
2025-03-09 22:56:02.772,9.7600,0.4700,-0.6800,-0.1875,-0.4375,-0.3125,0.6814,-0.2593,0.6264,0.2758,
2025-03-09 22:56:02.772,9.7700,0.4700,-0.6300,0.0000,-0.1250,-0.4375,0.6814,-0.2593,0.6264,0.2758,
2025-03-09 22:56:02.772,9.7500,0.4900,-0.6200,-0.3125,-0.1250,-0.5625,0.6814,-0.2593,0.6264,0.2758,
2025-03-09 22:56:02.787,9.7600,0.4700,-0.6400,-0.3125,-0.5000,-0.7500,0.6814,-0.2592,0.6264,0.2759,
2025-03-09 22:56:02.799,9.7500,0.5500,-0.6100,0.1875,-0.7500,-0.6250,0.6815,-0.2591,0.6263,0.2759,
2025-03-09 22:56:02.818,9.7600,0.5300,-0.6000,0.2500,-1.2500,-0.0625,0.6816,-0.2591,0.6262,0.2759,
2025-03-09 22:56:02.837,9.7600,0.4700,-0.6800,0.0625,-1.0000,0.4375,0.6818,-0.2592,0.6260,0.2759,
2025-03-09 22:56:02.844,9.7600,0.4700,-0.6700,0.3750,-0.7500,0.0000,0.6818,-0.2592,0.6260,0.2758,
2025-03-09 22:56:02.862,9.7700,0.5000,-0.6100,0.1875,-0.6250,0.0000,0.6818,-0.2593,0.6259,0.2758,
2025-03-09 22:56:02.883,9.7800,0.4600,-0.6800,0.2500,-0.9375,-0.1875,0.6819,-0.2593,0.6259,0.2758,
2025-03-09 22:56:02.900,9.7500,0.5000,-0.6600,0.1250,-0.9375,0.1875,0.6820,-0.2593,0.6257,0.2757,
2025-03-09 22:56:02.912,9.7900,0.4800,-0.6500,0.0625,-0.6250,0.3125,0.6821,-0.2593,0.6257,0.2757,
2025-03-09 22:56:02.926,9.7500,0.4800,-0.6600,0.1250,-0.6875,0.5000,0.6821,-0.2593,0.6257,0.2757,
2025-03-09 22:56:02.943,9.7900,0.4800,-0.6800,0.1250,0.1875,-0.4375,0.6821,-0.2593,0.6257,0.2757,
2025-03-09 22:56:02.966,9.7600,0.5100,-0.6100,0.0000,0.6875,-0.7500,0.6821,-0.2592,0.6257,0.2758,
2025-03-09 22:56:02.974,9.7500,0.5200,-0.6300,0.0625,0.3125,-0.6250,0.6821,-0.2592,0.6257,0.2759,
2025-03-09 22:56:02.996,9.7500,0.4800,-0.6500,0.0625,0.0000,0.2500,0.6821,-0.2592,0.6257,0.2759,
2025-03-09 22:56:03.014,9.7500,0.5000,-0.6600,0.0625,-0.1250,0.3750,0.6821,-0.2592,0.6257,0.2759,
2025-03-09 22:56:03.027,9.7600,0.5100,-0.6300,0.0000,-0.1250,0.4375,0.6821,-0.2592,0.6257,0.2759,
2025-03-09 22:56:03.078,9.7800,0.4700,-0.6600,-0.1250,-0.1250,0.6875,0.6821,-0.2592,0.6257,0.2758,
2025-03-09 22:56:03.078,9.7800,0.4500,-0.6700,0.0000,-0.2500,0.5625,0.6821,-0.2592,0.6257,0.2758,
2025-03-09 22:56:03.078,9.7800,0.4900,-0.6700,0.2500,-0.3750,0.2500,0.6821,-0.2592,0.6257,0.2758,
2025-03-09 22:56:03.078,9.7500,0.4800,-0.6500,0.2500,-0.4375,0.0625,0.6821,-0.2592,0.6257,0.2758,
2025-03-09 22:56:03.078,9.7600,0.4600,-0.6700,0.2500,-0.5000,-0.1250,0.6821,-0.2592,0.6257,0.2758,
2025-03-09 22:56:03.086,9.7500,0.4800,-0.6700,0.2500,-0.2500,-0.3750,0.6821,-0.2592,0.6257,0.2758,
2025-03-09 22:56:03.093,9.7500,0.5100,-0.6600,0.3750,-0.1875,-0.2500,0.6821,-0.2592,0.6257,0.2758,
2025-03-09 22:56:03.099,9.7600,0.4600,-0.6700,0.2500,-0.1250,0.0000,0.6821,-0.2592,0.6257,0.2758,
2025-03-09 22:56:03.116,9.7700,0.4700,-0.6700,0.1250,-0.0625,0.0625,0.6821,-0.2592,0.6257,0.2758,
2025-03-09 22:56:03.122,9.7600,0.5000,-0.6500,0.0000,0.0625,0.0000,0.6821,-0.2592,0.6257,0.2758,
2025-03-09 22:56:03.131,9.7600,0.4800,-0.7000,0.0625,0.0625,0.0000,0.6821,-0.2592,0.6257,0.2758,
2025-03-09 22:56:03.145,9.7700,0.4800,-0.6800,0.1875,-0.1250,0.0625,0.6821,-0.2592,0.6257,0.2758,
2025-03-09 22:56:03.154,9.7800,0.4700,-0.6900,0.1875,-0.3125,0.0000,0.6821,-0.2592,0.6257,0.2758,
2025-03-09 22:56:03.161,9.7900,0.4700,-0.6600,0.2500,-0.2500,-0.1875,0.6821,-0.2592,0.6257,0.2758,
2025-03-09 22:56:03.184,9.7600,0.4800,-0.6700,0.0000,0.0000,-0.3125,0.6821,-0.2592,0.6257,0.2758,
2025-03-09 22:56:03.186,9.7300,0.4900,-0.6800,-0.0625,0.2500,-0.1875,0.6821,-0.2592,0.6257,0.2758,
2025-03-09 22:56:03.192,9.7600,0.4600,-0.6600,0.1250,0.2500,-0.1250,0.6821,-0.2592,0.6257,0.2758,
