A1,,,,,,,,,,,
time,accx,accy,accz,gyrox,gyroy,gyroz,w1,w2,w3,w4,
2025-03-09 23:07:24.184,9.7900,0.3700,-0.8300,0.0000,-0.0625,0.5000,0.0335,-0.7364,0.0052,0.6757,
2025-03-09 23:07:24.198,9.7900,0.3700,-0.8700,0.1250,0.0625,0.5000,0.0335,-0.7364,0.0052,0.6757,
2025-03-09 23:07:24.212,9.7900,0.3900,-0.8500,-0.0625,0.0625,0.5000,0.0335,-0.7364,0.0052,0.6757,
2025-03-09 23:07:24.230,9.7900,0.3500,-0.8500,-0.1875,0.3125,0.6250,0.0335,-0.7364,0.0052,0.6757,
2025-03-09 23:07:24.249,9.8000,0.3600,-0.8500,-0.1250,0.5625,0.1250,0.0335,-0.7364,0.0052,0.6757,
2025-03-09 23:07:24.262,9.7900,0.3700,-0.8300,-0.0625,0.5000,-0.0625,0.0335,-0.7364,0.0052,0.6757,
2025-03-09 23:07:24.281,9.8300,0.4000,-0.8000,-0.1250,0.1875,0.0000,0.0335,-0.7364,0.0052,0.6757,
2025-03-09 23:07:24.299,9.8200,0.3800,-0.7800,0.1875,-0.2500,0.1250,0.0335,-0.7364,0.0052,0.6757,
2025-03-09 23:07:24.310,9.7800,0.3700,-0.8200,0.1875,-0.3750,0.1250,0.0335,-0.7364,0.0052,0.6757,
2025-03-09 23:07:24.334,9.8000,0.3200,-0.9000,0.3750,-0.9375,0.1875,0.0335,-0.7364,0.0052,0.6757,
2025-03-09 23:07:24.349,9.7900,0.3500,-0.8400,-0.1250,-0.1250,-0.5625,0.0335,-0.7365,0.0052,0.6756,
2025-03-09 23:07:24.401,9.8000,0.3900,-0.8400,-0.1875,0.0625,-0.5000,0.0335,-0.7365,0.0052,0.6756,
2025-03-09 23:07:24.401,9.8000,0.3500,-0.8800,-0.0625,-0.3125,0.1875,0.0335,-0.7365,0.0052,0.6756,
2025-03-09 23:07:24.401,9.7900,0.3600,-0.8400,-0.0625,0.1875,0.1875,0.0335,-0.7365,0.0052,0.6756,
2025-03-09 23:07:24.410,9.7800,0.3300,-0.8700,-0.1250,0.3125,0.3125,0.0335,-0.7365,0.0052,0.6756,
2025-03-09 23:07:24.432,9.7900,0.3500,-0.8600,-0.1875,1.0000,0.0000,0.0335,-0.7364,0.0052,0.6757,
2025-03-09 23:07:24.449,9.7900,0.3800,-0.8700,-0.3125,1.1875,0.1250,0.0335,-0.7363,0.0052,0.6758,
2025-03-09 23:07:24.458,9.8100,0.3700,-0.7800,-0.1250,1.0000,0.1875,0.0335,-0.7363,0.0052,0.6758,
2025-03-09 23:07:24.478,9.7900,0.3700,-0.7900,-0.0625,0.2500,0.5000,0.0335,-0.7362,0.0052,0.6759,
2025-03-09 23:07:24.498,9.8100,0.3600,-0.7800,-0.0625,0.0000,0.3750,0.0335,-0.7362,0.0052,0.6759,
2025-03-09 23:07:24.515,9.8100,0.3700,-0.8300,-0.1250,-0.1875,0.3125,0.0335,-0.7362,0.0052,0.6759,
2025-03-09 23:07:24.525,9.7700,0.3900,-0.8500,-0.1875,-0.1250,0.3750,0.0335,-0.7362,0.0052,0.6759,
2025-03-09 23:07:24.547,9.7900,0.3400,-0.8500,-0.3125,-0.2500,0.6250,0.0334,-0.7362,0.0053,0.6759,
2025-03-09 23:07:24.560,9.8100,0.3800,-0.8200,-0.3125,-0.1250,0.3750,0.0334,-0.7362,0.0053,0.6759,
2025-03-09 23:07:24.581,9.7700,0.3400,-0.8500,-0.0625,-0.0625,0.4375,0.0334,-0.7362,0.0053,0.6759,
2025-03-09 23:07:24.601,9.7800,0.3100,-0.8300,-0.3125,0.0000,0.0000,0.0334,-0.7362,0.0053,0.6759,
2025-03-09 23:07:24.622,9.8100,0.3900,-0.8400,-0.2500,0.6875,-0.3750,0.0335,-0.7362,0.0052,0.6759,
2025-03-09 23:07:24.643,9.7800,0.3500,-0.7900,-0.1875,0.3750,0.1875,0.0335,-0.7361,0.0052,0.6760,
2025-03-09 23:07:24.688,9.7900,0.3500,-0.7900,-0.3750,-0.4375,0.2500,0.0334,-0.7361,0.0053,0.6760,
2025-03-09 23:07:24.688,9.7800,0.3700,-0.8400,-0.1250,-0.9375,0.0000,0.0334,-0.7362,0.0053,0.6760,
2025-03-09 23:07:24.698,9.8100,0.3900,-0.8400,-0.1250,-0.8750,0.0000,0.0334,-0.7363,0.0053,0.6758,
2025-03-09 23:07:24.710,9.8000,0.3500,-0.8500,-0.3750,-0.5000,0.0625,0.0334,-0.7363,0.0053,0.6758,
2025-03-09 23:07:24.724,9.7900,0.3300,-0.8700,-0.1250,0.5625,-0.3750,0.0334,-0.7363,0.0053,0.6758,
2025-03-09 23:07:24.749,9.8000,0.4200,-0.7900,0.0000,0.6875,-0.6250,0.0335,-0.7363,0.0052,0.6758,
2025-03-09 23:07:24.761,9.7900,0.3800,-0.8200,0.0000,-0.0625,0.0625,0.0335,-0.7363,0.0052,0.6758,
2025-03-09 23:07:24.785,9.7900,0.3800,-0.8200,-0.1875,-1.1250,0.5000,0.0335,-0.7363,0.0052,0.6758,
2025-03-09 23:07:24.799,9.8100,0.2900,-0.8500,-0.3125,-1.3125,0.3750,0.0335,-0.7364,0.0052,0.6757,
2025-03-09 23:07:24.812,9.7800,0.3600,-0.8200,0.2500,-1.0625,-0.4375,0.0335,-0.7365,0.0052,0.6756,
2025-03-09 23:07:24.824,9.7900,0.3900,-0.8400,0.2500,-1.3125,0.0000,0.0335,-0.7366,0.0052,0.6755,
2025-03-09 23:07:24.843,9.8000,0.3100,-0.8900,0.1875,-1.5000,0.1875,0.0335,-0.7368,0.0052,0.6753,
2025-03-09 23:07:24.861,9.7900,0.3800,-0.8400,0.0625,-0.8750,-0.5625,0.0335,-0.7368,0.0052,0.6752,
2025-03-09 23:07:24.879,9.7800,0.4000,-0.8500,-0.1250,-1.0000,-0.3750,0.0335,-0.7369,0.0052,0.6751,
2025-03-09 23:07:24.899,9.8000,0.3600,-0.9200,-0.1250,-0.7500,0.1250,0.0335,-0.7371,0.0052,0.6750,
2025-03-09 23:07:24.911,9.7800,0.3500,-0.8700,-0.2500,-0.2500,0.1875,0.0335,-0.7371,0.0052,0.6750,
2025-03-09 23:07:24.931,9.7900,0.3500,-0.8600,-0.2500,-0.1875,-0.3750,0.0335,-0.7371,0.0052,0.6750,
2025-03-09 23:07:24.941,9.8100,0.3700,-0.8800,-0.3750,-0.6250,-0.5625,0.0335,-0.7371,0.0052,0.6749,
2025-03-09 23:07:24.992,9.7900,0.3500,-0.8400,-0.6875,-0.8750,-0.6250,0.0335,-0.7371,0.0051,0.6749,
2025-03-09 23:07:24.992,9.7800,0.4100,-0.8500,-0.7500,-1.2500,-0.6875,0.0334,-0.7373,0.0050,0.6748,
2025-03-09 23:07:25.003,9.8000,0.3400,-0.8900,-1.0625,-1.8750,0.1250,0.0333,-0.7374,0.0048,0.6746,
2025-03-09 23:07:25.010,9.7900,0.3600,-0.9000,-0.7500,-1.6875,0.0625,0.0333,-0.7376,0.0048,0.6744,
2025-03-09 23:07:25.031,9.7800,0.3400,-0.9400,-0.9375,-1.2500,-0.1250,0.0332,-0.7377,0.0046,0.6743,
2025-03-09 23:07:25.043,9.7900,0.4000,-0.9200,-0.8750,-0.1250,-0.5000,0.0331,-0.7377,0.0045,0.6743,
2025-03-09 23:07:25.061,9.8000,0.3900,-0.9000,-0.3750,0.1875,-0.3750,0.0331,-0.7377,0.0045,0.6743,
2025-03-09 23:07:25.076,9.8000,0.3300,-0.8900,-0.3750,-0.1875,-0.2500,0.0331,-0.7377,0.0045,0.6743,
2025-03-09 23:07:25.097,9.8000,0.3600,-0.8600,-0.4375,-0.6250,-0.6250,0.0331,-0.7378,0.0045,0.6742,
2025-03-09 23:07:25.115,9.7800,0.3900,-0.8900,0.0000,-0.8125,-0.5625,0.0331,-0.7379,0.0045,0.6741,
2025-03-09 23:07:25.134,9.7800,0.4200,-0.9300,0.0625,-0.8125,-0.3125,0.0331,-0.7379,0.0045,0.6741,
2025-03-09 23:07:25.148,9.7900,0.4200,-0.8700,-0.1875,-0.5000,0.1250,0.0331,-0.7380,0.0045,0.6740,
2025-03-09 23:07:25.161,9.8000,0.3800,-0.9100,-0.1875,-0.1250,0.2500,0.0331,-0.7380,0.0045,0.6740,
2025-03-09 23:07:25.182,9.7800,0.3600,-0.8800,0.1250,0.0000,0.5000,0.0331,-0.7380,0.0045,0.6740,
2025-03-09 23:07:25.197,9.7900,0.4100,-0.9000,0.0625,0.0000,0.1875,0.0331,-0.7380,0.0045,0.6740,
2025-03-09 23:07:25.213,9.8100,0.3700,-0.8800,-0.0625,0.0000,0.4375,0.0331,-0.7380,0.0045,0.6740,
2025-03-09 23:07:25.237,9.7800,0.3400,-0.9200,0.2500,0.2500,0.0625,0.0331,-0.7380,0.0045,0.6740,
2025-03-09 23:07:25.240,9.7800,0.3700,-0.8800,0.1875,0.3750,-0.4375,0.0331,-0.7380,0.0045,0.6740,
2025-03-09 23:07:25.290,9.7900,0.4000,-0.8600,0.1875,-0.3125,-0.2500,0.0331,-0.7380,0.0045,0.6740,
2025-03-09 23:07:25.290,9.7900,0.4000,-0.9400,0.0625,-1.0625,0.3750,0.0331,-0.7381,0.0045,0.6739,
2025-03-09 23:07:25.290,9.7900,0.3600,-0.9300,0.1250,-0.8125,0.6875,0.0331,-0.7381,0.0045,0.6738,
2025-03-09 23:07:25.312,9.7800,0.3700,-0.8800,0.0625,-0.3750,0.5625,0.0331,-0.7381,0.0045,0.6738,
2025-03-09 23:07:25.330,9.7900,0.3400,-0.9200,0.1250,-0.1875,0.5000,0.0331,-0.7381,0.0045,0.6738,
2025-03-09 23:07:25.347,9.7900,0.3800,-0.8900,0.3125,-0.1250,0.0000,0.0331,-0.7381,0.0045,0.6738,
2025-03-09 23:07:25.360,9.7800,0.3800,-0.8400,0.2500,-0.6250,-0.1250,0.0331,-0.7382,0.0045,0.6738,
2025-03-09 23:07:25.388,9.7900,0.3700,-0.9400,0.0625,-1.1875,0.0000,0.0331,-0.7383,0.0045,0.6737,
2025-03-09 23:07:25.398,9.7800,0.3900,-0.9300,0.0625,-0.6875,0.1875,0.0331,-0.7384,0.0045,0.6735,
2025-03-09 23:07:25.433,9.8000,0.3700,-0.9700,-0.0625,-0.6250,0.3125,0.0331,-0.7384,0.0045,0.6735,
2025-03-09 23:07:25.433,9.8000,0.3800,-0.9200,-0.1875,0.4375,0.4375,0.0331,-0.7384,0.0045,0.6735,
2025-03-09 23:07:25.439,9.8000,0.3500,-0.9000,0.0000,0.5000,0.3750,0.0331,-0.7384,0.0045,0.6735,
2025-03-09 23:07:25.459,9.7900,0.3900,-0.8700,0.0000,0.5000,0.2500,0.0331,-0.7384,0.0045,0.6735,
2025-03-09 23:07:25.471,9.8000,0.3400,-0.9200,-0.0625,0.0000,0.3750,0.0331,-0.7384,0.0045,0.6735,
2025-03-09 23:07:25.494,9.7900,0.3600,-0.9300,-0.0625,-0.3125,0.6250,0.0330,-0.7384,0.0046,0.6735,
2025-03-09 23:07:25.505,9.8100,0.3500,-0.9400,0.0625,-0.5000,0.6250,0.0330,-0.7384,0.0046,0.6735,
2025-03-09 23:07:25.526,9.7900,0.3900,-0.9100,0.1875,-0.3125,0.3750,0.0330,-0.7384,0.0046,0.6735,
2025-03-09 23:07:25.547,9.7900,0.3600,-0.9100,-0.0625,-0.7500,0.6250,0.0329,-0.7384,0.0046,0.6735,
2025-03-09 23:07:25.597,9.7900,0.3300,-0.9100,0.1875,-0.8125,0.6250,0.0329,-0.7385,0.0047,0.6735,
2025-03-09 23:07:25.600,9.7900,0.3500,-0.9500,0.2500,-0.4375,0.5000,0.0328,-0.7385,0.0048,0.6734,
2025-03-09 23:07:25.600,9.7800,0.3700,-0.9300,0.3750,-0.2500,0.5000,0.0328,-0.7385,0.0048,0.6734,
2025-03-09 23:07:25.600,9.8000,0.3400,-0.9500,0.3750,0.1250,0.3750,0.0328,-0.7385,0.0048,0.6734,
2025-03-09 23:07:25.604,9.7900,0.3700,-0.9200,0.2500,0.3750,0.5000,0.0328,-0.7385,0.0048,0.6734,
2025-03-09 23:07:25.624,9.8000,0.3300,-0.9300,0.0000,0.3125,0.3750,0.0328,-0.7385,0.0048,0.6734,
2025-03-09 23:07:25.634,9.8000,0.3700,-0.9000,0.1875,0.2500,0.4375,0.0328,-0.7385,0.0048,0.6734,
2025-03-09 23:07:25.660,9.7800,0.3700,-0.8800,0.3125,-0.1875,0.3125,0.0328,-0.7385,0.0048,0.6734,
2025-03-09 23:07:25.668,9.7800,0.3700,-0.9400,0.1875,-0.2500,0.5000,0.0328,-0.7385,0.0048,0.6734,
2025-03-09 23:07:25.684,9.7900,0.3600,-0.9400,0.0000,-0.4375,0.6875,0.0328,-0.7385,0.0048,0.6734,
2025-03-09 23:07:25.704,9.7900,0.3300,-0.9700,0.0625,0.0000,0.2500,0.0328,-0.7385,0.0048,0.6734,
2025-03-09 23:07:25.704,9.7800,0.3300,-0.9600,0.1875,0.3750,0.1250,0.0328,-0.7385,0.0048,0.6734,
2025-03-09 23:07:25.704,9.8000,0.3300,-0.8800,0.3750,0.6875,-0.1250,0.0328,-0.7385,0.0048,0.6735,
2025-03-09 23:07:25.719,9.7900,0.3500,-0.9200,0.2500,0.9375,-0.4375,0.0328,-0.7384,0.0048,0.6735,
2025-03-09 23:07:25.730,9.8000,0.3900,-0.8300,0.1875,0.5000,-0.3125,0.0328,-0.7384,0.0048,0.6735,
2025-03-09 23:07:25.744,9.7900,0.3600,-0.9100,-0.0625,-0.1250,0.0000,0.0328,-0.7384,0.0048,0.6735,
2025-03-09 23:07:25.762,9.7800,0.4000,-0.8700,-0.3125,-0.3125,0.0000,0.0328,-0.7384,0.0048,0.6735,
2025-03-09 23:07:25.769,9.8100,0.4000,-0.8600,-0.2500,-0.5625,0.4375,0.0328,-0.7384,0.0048,0.6735,
2025-03-09 23:07:25.779,9.7900,0.3300,-0.9300,-0.1250,-0.8750,0.7500,0.0327,-0.7385,0.0048,0.6735,
2025-03-09 23:07:25.793,9.7800,0.3200,-0.9400,0.0000,-0.9375,0.6250,0.0327,-0.7385,0.0048,0.6734,
2025-03-09 23:07:25.800,9.7900,0.3400,-0.9100,0.2500,-0.3750,0.3125,0.0327,-0.7385,0.0048,0.6734,
2025-03-09 23:07:25.802,9.8000,0.3400,-0.9100,0.1875,-0.1250,0.0625,0.0327,-0.7385,0.0048,0.6734,
2025-03-09 23:07:25.822,9.7700,0.3700,-0.9400,0.1250,0.0625,-0.1250,0.0327,-0.7385,0.0048,0.6734,
2025-03-09 23:07:25.823,9.7900,0.3700,-0.9200,0.1250,0.0000,0.0000,0.0327,-0.7385,0.0048,0.6734,
2025-03-09 23:07:25.833,9.7700,0.3700,-0.9300,0.0000,-0.1250,0.1250,0.0327,-0.7385,0.0048,0.6734,
2025-03-09 23:07:25.851,9.8000,0.3400,-0.9000,0.0625,-0.3125,0.0000,0.0327,-0.7385,0.0048,0.6734,
2025-03-09 23:07:25.888,9.7800,0.3800,-0.8800,0.1250,-0.3750,-0.1875,0.0327,-0.7385,0.0048,0.6734,
2025-03-09 23:07:25.888,9.7900,0.3300,-0.9100,0.0625,-0.6875,-0.1875,0.0327,-0.7386,0.0048,0.6733,
2025-03-09 23:07:25.888,9.7900,0.3200,-0.9100,-0.0625,-0.6875,-0.5000,0.0327,-0.7386,0.0048,0.6733,
2025-03-09 23:07:25.898,9.8000,0.3500,-0.9300,-0.0625,-0.6875,-0.6875,0.0328,-0.7386,0.0048,0.6733,
2025-03-09 23:07:25.898,9.7800,0.3700,-0.9100,0.0000,-0.6250,-0.8125,0.0328,-0.7387,0.0048,0.6732,
2025-03-09 23:07:25.909,9.7800,0.3700,-0.8900,-0.0625,-1.0000,-0.5625,0.0328,-0.7388,0.0048,0.6732,
2025-03-09 23:07:25.924,9.7700,0.3600,-0.9500,0.0000,-1.0625,-0.5000,0.0328,-0.7388,0.0048,0.6731,
2025-03-09 23:07:25.928,9.8000,0.3800,-0.9300,0.0000,-0.8750,-0.2500,0.0328,-0.7389,0.0048,0.6730,
2025-03-09 23:07:25.938,9.7800,0.3700,-0.9500,-0.0625,-0.8125,0.0000,0.0328,-0.7389,0.0048,0.6730,
2025-03-09 23:07:25.949,9.8000,0.3700,-0.9400,-0.0625,-0.6875,0.1875,0.0328,-0.7389,0.0048,0.6730,
2025-03-09 23:07:25.959,9.7900,0.3400,-0.9600,-0.1875,-0.6250,0.1250,0.0328,-0.7390,0.0048,0.6729,
2025-03-09 23:07:25.967,9.7900,0.3700,-0.9500,-0.1250,-0.1250,-0.1875,0.0328,-0.7390,0.0048,0.6729,
2025-03-09 23:07:25.976,9.7900,0.3800,-0.9600,0.0000,-0.4375,0.0000,0.0328,-0.7390,0.0048,0.6729,
2025-03-09 23:07:25.986,9.7800,0.3500,-0.9500,0.0625,-0.0625,0.0625,0.0328,-0.7390,0.0048,0.6729,
2025-03-09 23:07:25.996,9.7900,0.3700,-0.9000,0.0000,0.1250,0.0000,0.0328,-0.7390,0.0048,0.6729,
2025-03-09 23:07:26.009,9.7800,0.3700,-0.9400,0.1250,0.1875,0.3750,0.0328,-0.7390,0.0048,0.6729,
2025-03-09 23:07:26.023,9.7800,0.3300,-0.9500,0.3125,0.2500,0.3750,0.0328,-0.7390,0.0048,0.6729,
2025-03-09 23:07:26.029,9.8000,0.3600,-0.9300,0.0000,0.5000,-0.0625,0.0328,-0.7390,0.0048,0.6729,
2025-03-09 23:07:26.041,9.7800,0.3800,-0.8800,0.0000,0.5625,-0.1250,0.0328,-0.7390,0.0048,0.6729,
2025-03-09 23:07:26.049,9.7900,0.3800,-0.9000,-0.0625,0.2500,0.0625,0.0328,-0.7390,0.0048,0.6729,
2025-03-09 23:07:26.059,9.7900,0.3600,-0.9100,-0.2500,-0.0625,0.1250,0.0328,-0.7390,0.0048,0.6729,
2025-03-09 23:07:26.076,9.7900,0.3700,-0.9300,-0.2500,-0.4375,0.1875,0.0328,-0.7390,0.0048,0.6729,
2025-03-09 23:07:26.076,9.8100,0.3700,-0.9300,-0.1250,-0.3750,0.5625,0.0328,-0.7390,0.0048,0.6729,
2025-03-09 23:07:26.086,9.7800,0.3500,-0.9600,-0.0625,-0.2500,0.5000,0.0328,-0.7390,0.0048,0.6729,
2025-03-09 23:07:26.096,9.7800,0.3300,-0.9400,-0.1250,0.1250,0.2500,0.0328,-0.7390,0.0048,0.6729,
2025-03-09 23:07:26.109,9.8000,0.3600,-0.9200,-0.0625,0.3125,-0.1875,0.0328,-0.7390,0.0048,0.6729,
2025-03-09 23:07:26.119,9.8100,0.3100,-0.9300,-0.0625,0.3750,-0.2500,0.0328,-0.7390,0.0048,0.6729,
2025-03-09 23:07:26.129,9.8000,0.3200,-0.9700,-0.0625,0.4375,-0.6875,0.0328,-0.7390,0.0048,0.6729,
2025-03-09 23:07:26.132,9.7800,0.3400,-0.9000,0.0000,0.2500,-1.0000,0.0328,-0.7390,0.0047,0.6729,
2025-03-09 23:07:26.142,9.7800,0.3700,-0.8800,-0.1875,-0.3125,-0.9375,0.0329,-0.7390,0.0046,0.6729,
2025-03-09 23:07:26.193,9.7900,0.3900,-0.8800,-0.0625,-0.5625,-0.8125,0.0330,-0.7390,0.0046,0.6729,
2025-03-09 23:07:26.194,9.7900,0.3800,-0.9300,-0.1875,-0.8125,-0.3750,0.0330,-0.7390,0.0045,0.6729,
2025-03-09 23:07:26.194,9.7900,0.3900,-0.9200,-0.1250,-1.0625,-0.0625,0.0330,-0.7390,0.0045,0.6729,
2025-03-09 23:07:26.194,9.8000,0.3800,-0.9400,-0.0625,-0.8750,0.2500,0.0330,-0.7391,0.0045,0.6728,
2025-03-09 23:07:26.199,9.8100,0.3700,-0.9600,0.1875,-0.6250,0.4375,0.0330,-0.7391,0.0045,0.6727,
2025-03-09 23:07:26.210,9.7800,0.3700,-0.9700,0.3125,-0.0625,0.5000,0.0330,-0.7392,0.0045,0.6727,
2025-03-09 23:07:26.220,9.7800,0.3600,-0.9600,0.1250,0.4375,0.3750,0.0330,-0.7392,0.0045,0.6727,
2025-03-09 23:07:26.231,9.7900,0.3900,-0.9500,0.1250,0.3125,0.1875,0.0330,-0.7392,0.0045,0.6727,
2025-03-09 23:07:26.231,9.7900,0.3300,-0.9600,-0.1250,0.5625,0.0625,0.0330,-0.7392,0.0045,0.6727,
2025-03-09 23:07:26.251,9.7900,0.3800,-0.9100,-0.1875,0.5625,-0.2500,0.0330,-0.7392,0.0045,0.6727,
2025-03-09 23:07:26.259,9.8100,0.3400,-0.9300,-0.1250,0.6875,-0.3125,0.0330,-0.7392,0.0045,0.6727,
2025-03-09 23:07:26.262,9.7800,0.3500,-0.9300,-0.0625,0.5000,-0.5000,0.0330,-0.7391,0.0045,0.6727,
2025-03-09 23:07:26.278,9.7900,0.3900,-0.9100,0.0000,0.3125,-0.6875,0.0330,-0.7391,0.0045,0.6727,
2025-03-09 23:07:26.288,9.7700,0.3700,-0.9600,-0.3125,-0.1250,-0.4375,0.0331,-0.7391,0.0045,0.6727,
2025-03-09 23:07:26.297,9.7900,0.3500,-0.9600,-0.3750,-0.3125,-0.5000,0.0331,-0.7391,0.0045,0.6727,
2025-03-09 23:07:26.309,9.7900,0.3900,-0.9300,-0.3125,-0.1875,-0.3750,0.0331,-0.7391,0.0045,0.6727,
2025-03-09 23:07:26.319,9.7900,0.3300,-0.9200,-0.1875,-0.3125,-0.2500,0.0331,-0.7391,0.0045,0.6727,
2025-03-09 23:07:26.328,9.7800,0.3600,-0.9600,0.0625,-0.1250,-0.1875,0.0331,-0.7391,0.0045,0.6727,
2025-03-09 23:07:26.340,9.7900,0.3800,-0.9400,0.0000,-0.1250,-0.3125,0.0331,-0.7391,0.0045,0.6727,
2025-03-09 23:07:26.340,9.7900,0.3700,-0.9400,0.0000,-0.1250,-0.1875,0.0331,-0.7391,0.0045,0.6727,
2025-03-09 23:07:26.360,9.8100,0.3900,-0.9300,0.0625,0.0625,-0.3125,0.0331,-0.7391,0.0045,0.6727,
2025-03-09 23:07:26.360,9.8000,0.3700,-0.9200,0.1875,-0.3125,-0.1250,0.0331,-0.7391,0.0045,0.6727,
2025-03-09 23:07:26.379,9.7600,0.3500,-0.9800,0.1250,-0.5625,0.0000,0.0331,-0.7391,0.0045,0.6727,
2025-03-09 23:07:26.392,9.7800,0.3800,-0.9500,-0.1875,-0.4375,0.0625,0.0331,-0.7391,0.0045,0.6727,
2025-03-09 23:07:26.396,9.8000,0.3500,-0.9900,-0.0625,-0.1875,0.0000,0.0331,-0.7391,0.0045,0.6727,
2025-03-09 23:07:26.406,9.8000,0.3400,-0.9500,0.0000,0.0000,0.0000,0.0331,-0.7391,0.0045,0.6727,
2025-03-09 23:07:26.416,9.7900,0.3800,-0.9400,-0.0625,0.1250,-0.1875,0.0331,-0.7391,0.0045,0.6727,
2025-03-09 23:07:26.427,9.7800,0.3600,-0.9600,-0.1875,0.3750,-0.1250,0.0331,-0.7391,0.0045,0.6727,
2025-03-09 23:07:26.439,9.8000,0.3500,-0.9600,0.1875,0.2500,-0.1875,0.0331,-0.7391,0.0045,0.6727,
2025-03-09 23:07:26.449,9.7800,0.4000,-0.9000,0.0625,0.1250,0.1250,0.0331,-0.7391,0.0045,0.6727,
2025-03-09 23:07:26.492,9.7900,0.3800,-0.9200,0.2500,-0.2500,0.1250,0.0331,-0.7391,0.0045,0.6727,
2025-03-09 23:07:26.492,9.7800,0.3600,-0.9400,-0.0625,-0.0625,0.0000,0.0331,-0.7391,0.0045,0.6727,
2025-03-09 23:07:26.492,9.8000,0.3600,-0.9700,-0.0625,0.0625,-0.0625,0.0331,-0.7391,0.0045,0.6727,
2025-03-09 23:07:26.492,9.7800,0.3800,-0.9400,0.0625,-0.1250,-0.1875,0.0331,-0.7391,0.0045,0.6727,
2025-03-09 23:07:26.492,9.7800,0.3600,-0.9200,-0.1875,-0.1250,-0.2500,0.0331,-0.7391,0.0045,0.6727,
2025-03-09 23:07:26.502,9.7900,0.3300,-0.9200,-0.0625,-0.0625,-0.4375,0.0331,-0.7391,0.0045,0.6727,
2025-03-09 23:07:26.519,9.7900,0.3300,-0.9400,0.0000,0.0000,-0.5000,0.0331,-0.7391,0.0045,0.6727,
2025-03-09 23:07:26.528,9.7900,0.4000,-0.9200,-0.0625,-0.0625,-0.8750,0.0331,-0.7391,0.0045,0.6727,
2025-03-09 23:07:26.538,9.7900,0.3900,-0.9400,0.0000,-0.4375,-0.5625,0.0331,-0.7391,0.0045,0.6727,
2025-03-09 23:07:26.548,9.7900,0.3700,-0.9400,-0.0625,-0.5000,-0.4375,0.0331,-0.7391,0.0045,0.6727,
2025-03-09 23:07:26.558,9.7800,0.3900,-0.9600,-0.0625,-0.1250,-0.5000,0.0331,-0.7391,0.0045,0.6727,
2025-03-09 23:07:26.569,9.7800,0.3600,-0.9900,-0.1250,-0.0625,-0.2500,0.0331,-0.7391,0.0045,0.6727,
2025-03-09 23:07:26.579,9.7800,0.3900,-0.9700,0.0000,0.1875,-0.2500,0.0331,-0.7391,0.0045,0.6727,
2025-03-09 23:07:26.589,9.7500,0.3900,-0.9400,-0.0625,0.3750,-0.1250,0.0331,-0.7391,0.0045,0.6727,
2025-03-09 23:07:26.594,9.8100,0.3700,-0.9400,-0.1875,0.1250,0.1875,0.0331,-0.7391,0.0045,0.6727,
2025-03-09 23:07:26.605,9.7900,0.3500,-0.9600,-0.1250,0.1875,0.0000,0.0331,-0.7391,0.0045,0.6727,
2025-03-09 23:07:26.615,9.7900,0.3800,-0.9400,0.0000,0.5000,-0.1875,0.0331,-0.7391,0.0045,0.6727,
2025-03-09 23:07:26.626,9.7800,0.3700,-0.9000,-0.2500,0.4375,-0.0625,0.0331,-0.7391,0.0045,0.6727,
2025-03-09 23:07:26.644,9.7800,0.3600,-0.9200,-0.0625,0.1875,-0.3125,0.0331,-0.7391,0.0045,0.6727,
2025-03-09 23:07:26.649,9.7800,0.3700,-0.9300,0.1250,0.0625,-0.1875,0.0331,-0.7391,0.0045,0.6727,
2025-03-09 23:07:26.660,9.7800,0.3500,-0.9500,0.0625,-0.1250,-0.1875,0.0331,-0.7391,0.0045,0.6727,
2025-03-09 23:07:26.660,9.7900,0.3800,-0.9300,0.2500,-0.1875,-0.3750,0.0331,-0.7391,0.0045,0.6727,
2025-03-09 23:07:26.677,9.7900,0.3600,-0.9800,0.0000,-0.1875,-0.4375,0.0331,-0.7391,0.0045,0.6727,
2025-03-09 23:07:26.691,9.8000,0.3700,-0.9400,0.1250,-0.1250,-0.4375,0.0331,-0.7391,0.0045,0.6727,
2025-03-09 23:07:26.691,9.7800,0.3900,-0.9600,0.0625,-0.0625,-0.6875,0.0331,-0.7391,0.0045,0.6727,
2025-03-09 23:07:26.712,9.7800,0.3600,-0.9500,0.0000,-0.1250,-0.6250,0.0331,-0.7391,0.0044,0.6727,
2025-03-09 23:07:26.719,9.7700,0.3800,-0.9300,-0.0625,0.0625,-0.6250,0.0332,-0.7391,0.0044,0.6727,
2025-03-09 23:07:26.746,9.7800,0.4200,-0.9500,-0.1875,0.0625,-0.4375,0.0333,-0.7391,0.0043,0.6727,
2025-03-09 23:07:26.746,9.8000,0.3700,-0.9400,-0.0625,-0.3125,-0.1875,0.0333,-0.7391,0.0043,0.6727,
2025-03-09 23:07:26.749,9.7900,0.3600,-0.9700,-0.2500,-0.0625,-0.1250,0.0333,-0.7391,0.0043,0.6727,
2025-03-09 23:07:26.780,9.7900,0.3800,-0.9100,-0.3125,0.0000,0.0000,0.0333,-0.7391,0.0043,0.6727,
2025-03-09 23:07:26.790,9.7800,0.3900,-0.9700,-0.3125,0.0000,0.2500,0.0333,-0.7391,0.0043,0.6727,
2025-03-09 23:07:26.790,9.8100,0.3700,-0.9600,-0.1875,0.0625,0.1250,0.0333,-0.7391,0.0043,0.6727,
2025-03-09 23:07:26.790,9.8100,0.3600,-0.9500,-0.1250,0.5000,-0.0625,0.0333,-0.7391,0.0043,0.6727,
2025-03-09 23:07:26.819,9.7700,0.3900,-0.9100,0.0000,0.8125,-0.2500,0.0333,-0.7391,0.0043,0.6728,
2025-03-09 23:07:26.825,9.7800,0.3800,-0.9100,0.1250,0.2500,0.1250,0.0333,-0.7390,0.0043,0.6729,
2025-03-09 23:07:26.839,9.7900,0.3900,-0.9400,0.0000,-0.1250,0.1875,0.0333,-0.7390,0.0043,0.6729,
2025-03-09 23:07:26.863,9.7900,0.4000,-0.9300,-0.0625,-0.1250,0.0625,0.0333,-0.7390,0.0043,0.6729,
2025-03-09 23:07:26.886,9.7800,0.3500,-0.9900,-0.2500,-0.0625,0.3750,0.0333,-0.7390,0.0043,0.6729,
2025-03-09 23:07:26.892,9.7800,0.3500,-0.9400,-0.1250,0.1875,0.3125,0.0333,-0.7390,0.0043,0.6729,
2025-03-09 23:07:26.920,9.8100,0.3300,-0.9300,-0.1250,0.6250,-0.1875,0.0333,-0.7390,0.0043,0.6729,
2025-03-09 23:07:26.940,9.7900,0.4000,-0.9200,0.0000,0.5625,-0.6875,0.0333,-0.7390,0.0043,0.6729,
2025-03-09 23:07:26.959,9.7900,0.3600,-0.9400,-0.1250,-0.1250,0.0000,0.0333,-0.7390,0.0043,0.6729,
2025-03-09 23:07:26.979,9.8100,0.4000,-0.9500,-0.0625,-0.1250,0.3125,0.0333,-0.7390,0.0043,0.6729,
2025-03-09 23:07:27.000,9.8000,0.3900,-0.9200,0.0000,0.1250,0.1875,0.0333,-0.7390,0.0043,0.6729,
2025-03-09 23:07:27.020,9.8000,0.3900,-0.9300,0.0625,0.5000,0.0625,0.0333,-0.7390,0.0043,0.6729,
2025-03-09 23:07:27.039,9.7800,0.3900,-0.9300,0.1250,0.4375,-0.0625,0.0333,-0.7390,0.0043,0.6729,
2025-03-09 23:07:27.089,9.8000,0.3700,-0.9400,0.0625,0.3750,0.3750,0.0333,-0.7390,0.0043,0.6729,
2025-03-09 23:07:27.089,9.8000,0.3600,-0.9400,-0.0625,0.3750,0.2500,0.0333,-0.7390,0.0043,0.6729,
2025-03-09 23:07:27.099,9.7800,0.3800,-0.9300,-0.0625,0.4375,0.0625,0.0333,-0.7390,0.0043,0.6729,
2025-03-09 23:07:27.119,9.7800,0.3800,-0.9400,0.0625,-0.1250,0.1250,0.0333,-0.7390,0.0043,0.6729,
2025-03-09 23:07:27.140,9.7800,0.3300,-0.9600,0.0625,-0.6250,0.4375,0.0333,-0.7390,0.0043,0.6729,
2025-03-09 23:07:27.162,9.8000,0.4100,-0.9000,-0.1250,0.0000,0.1250,0.0333,-0.7390,0.0043,0.6729,
2025-03-09 23:07:27.179,9.7700,0.3800,-0.9600,-0.1250,0.1875,0.3125,0.0333,-0.7390,0.0043,0.6729,
2025-03-09 23:07:27.200,9.8100,0.3800,-0.9300,-0.0625,0.4375,0.2500,0.0333,-0.7390,0.0043,0.6729,
2025-03-09 23:07:27.220,9.7900,0.3900,-0.9100,0.0625,0.3125,0.4375,0.0333,-0.7390,0.0043,0.6729,
2025-03-09 23:07:27.243,9.7800,0.3500,-0.9500,-0.2500,-0.2500,0.5625,0.0333,-0.7390,0.0043,0.6729,
2025-03-09 23:07:27.254,9.7900,0.3800,-0.9200,-0.2500,0.1875,0.1250,0.0333,-0.7390,0.0043,0.6729,
2025-03-09 23:07:27.274,9.8000,0.3800,-0.9400,-0.1875,0.0625,0.1875,0.0333,-0.7390,0.0043,0.6729,
2025-03-09 23:07:27.285,9.8000,0.3600,-0.9300,-0.1250,0.1250,-0.1875,0.0333,-0.7390,0.0043,0.6729,
2025-03-09 23:07:27.309,9.7700,0.3900,-0.9000,0.0625,0.0625,-0.3125,0.0333,-0.7390,0.0043,0.6729,
2025-03-09 23:07:27.335,9.7900,0.3700,-0.9600,0.0000,-0.3125,-0.1250,0.0333,-0.7390,0.0043,0.6729,
2025-03-09 23:07:27.350,9.7900,0.3800,-0.9200,0.0000,-0.1250,0.0000,0.0333,-0.7390,0.0043,0.6729,
2025-03-09 23:07:27.401,9.7600,0.4000,-0.9200,-0.1250,0.1875,0.1875,0.0333,-0.7390,0.0043,0.6729,
2025-03-09 23:07:27.401,9.7900,0.3600,-0.9500,0.1875,0.1250,0.3125,0.0333,-0.7390,0.0043,0.6729,
2025-03-09 23:07:27.409,9.7900,0.3700,-0.9400,-0.0625,0.1250,-0.2500,0.0333,-0.7390,0.0043,0.6729,
2025-03-09 23:07:27.419,9.8000,0.3800,-0.9400,-0.1875,0.3750,-0.3125,0.0333,-0.7390,0.0043,0.6729,
2025-03-09 23:07:27.440,9.7900,0.4000,-0.9400,-0.1250,0.3125,0.0625,0.0333,-0.7390,0.0043,0.6729,
2025-03-09 23:07:27.450,9.7900,0.3700,-0.9100,0.1875,0.2500,0.0000,0.0333,-0.7390,0.0043,0.6729,
2025-03-09 23:07:27.470,9.8000,0.3600,-0.9000,0.2500,0.0000,-0.1250,0.0333,-0.7390,0.0043,0.6729,
2025-03-09 23:07:27.485,9.7800,0.3900,-0.9300,0.0000,-0.5625,-0.1250,0.0333,-0.7390,0.0043,0.6729,
2025-03-09 23:07:27.509,9.7800,0.3600,-0.9300,0.0000,-0.9375,0.1875,0.0333,-0.7391,0.0043,0.6728,
2025-03-09 23:07:27.518,9.7800,0.3900,-0.9400,0.0000,-0.2500,-0.1250,0.0333,-0.7391,0.0043,0.6728,
2025-03-09 23:07:27.538,9.8000,0.3900,-0.9600,0.0625,0.1250,0.0000,0.0333,-0.7391,0.0043,0.6728,
2025-03-09 23:07:27.563,9.7900,0.3800,-0.9400,-0.0625,0.1875,0.1250,0.0333,-0.7391,0.0043,0.6728,
2025-03-09 23:07:27.571,9.7900,0.3800,-0.9500,0.0625,0.3125,0.1875,0.0333,-0.7391,0.0043,0.6728,
2025-03-09 23:07:27.584,9.7800,0.3900,-0.9600,-0.0625,0.2500,0.0000,0.0333,-0.7391,0.0043,0.6728,
2025-03-09 23:07:27.604,9.7800,0.3600,-0.9400,0.0625,0.3125,0.0000,0.0333,-0.7391,0.0043,0.6728,
2025-03-09 23:07:27.625,9.7900,0.3900,-0.9400,-0.0625,0.6875,0.2500,0.0333,-0.7391,0.0043,0.6728,
2025-03-09 23:07:27.642,9.7700,0.3500,-0.9100,0.0000,0.7500,0.1875,0.0333,-0.7391,0.0043,0.6728,
2025-03-09 23:07:27.662,9.7800,0.3900,-0.9300,0.1250,0.6250,0.1875,0.0333,-0.7390,0.0043,0.6729,
2025-03-09 23:07:27.701,9.7900,0.3600,-0.9300,-0.0625,0.1875,0.3125,0.0333,-0.7390,0.0043,0.6729,
2025-03-09 23:07:27.701,9.7800,0.3800,-0.9400,0.0625,0.0000,0.5000,0.0333,-0.7390,0.0043,0.6729,
2025-03-09 23:07:27.701,9.8000,0.3700,-0.9100,0.0000,0.1875,0.2500,0.0333,-0.7390,0.0043,0.6729,
2025-03-09 23:07:27.715,9.7800,0.3900,-0.9100,0.0625,0.2500,-0.1250,0.0333,-0.7390,0.0043,0.6729,
2025-03-09 23:07:27.737,9.8000,0.3700,-0.9500,0.0000,0.3125,-0.3750,0.0333,-0.7390,0.0043,0.6729,
2025-03-09 23:07:27.756,9.7800,0.3900,-0.9300,-0.3125,0.3750,-0.4375,0.0333,-0.7390,0.0043,0.6729,
2025-03-09 23:07:27.772,9.7800,0.4000,-0.9200,-0.3750,0.0625,-0.2500,0.0333,-0.7390,0.0043,0.6729,
2025-03-09 23:07:27.790,9.7800,0.4100,-0.9500,0.0625,0.0625,0.0625,0.0333,-0.7390,0.0043,0.6729,
2025-03-09 23:07:27.812,9.7900,0.3400,-0.9600,-0.0625,0.1875,0.0625,0.0333,-0.7390,0.0043,0.6729,
2025-03-09 23:07:27.815,9.7800,0.4100,-0.9100,-0.1250,0.4375,-0.0625,0.0333,-0.7390,0.0043,0.6729,
2025-03-09 23:07:27.845,9.7800,0.3800,-0.9000,-0.1250,0.1250,0.0625,0.0333,-0.7390,0.0043,0.6729,
2025-03-09 23:07:27.859,9.7800,0.3900,-0.9400,-0.1250,0.1875,0.1875,0.0333,-0.7390,0.0043,0.6729,
2025-03-09 23:07:27.892,9.8000,0.3600,-0.9500,-0.3125,0.3750,-0.0625,0.0333,-0.7390,0.0043,0.6729,
2025-03-09 23:07:27.894,9.8000,0.3500,-0.9200,-0.1250,0.5000,0.0000,0.0333,-0.7390,0.0043,0.6729,
2025-03-09 23:07:27.914,9.7900,0.3900,-0.9100,0.0000,0.5625,-0.1875,0.0333,-0.7390,0.0043,0.6729,
2025-03-09 23:07:27.914,9.7900,0.3900,-0.9300,-0.0625,0.1875,-0.0625,0.0333,-0.7390,0.0043,0.6729,
2025-03-09 23:07:27.933,9.7800,0.3600,-0.9400,-0.1875,0.1250,-0.1250,0.0333,-0.7390,0.0043,0.6729,
2025-03-09 23:07:27.967,9.8100,0.4000,-0.8600,-0.1875,0.0625,-0.1250,0.0333,-0.7390,0.0043,0.6729,
2025-03-09 23:07:28.013,9.8000,0.3700,-0.9200,-0.1250,-0.6250,0.0000,0.0333,-0.7390,0.0043,0.6729,
2025-03-09 23:07:28.013,9.8000,0.3500,-0.9500,-0.1250,-0.5000,0.2500,0.0333,-0.7390,0.0043,0.6729,
2025-03-09 23:07:28.013,9.7800,0.3700,-0.9300,-0.0625,0.1250,-0.0625,0.0333,-0.7390,0.0043,0.6729,
2025-03-09 23:07:28.024,9.7800,0.3800,-0.8700,0.1250,0.3750,-0.0625,0.0333,-0.7390,0.0043,0.6729,
2025-03-09 23:07:28.041,9.7900,0.4000,-0.9200,0.0625,0.2500,0.0000,0.0333,-0.7390,0.0043,0.6729,
2025-03-09 23:07:28.058,9.7700,0.3500,-0.9400,0.1875,-0.2500,0.3125,0.0333,-0.7390,0.0043,0.6729,
2025-03-09 23:07:28.071,9.7700,0.3500,-0.9000,-0.1875,0.0000,0.2500,0.0333,-0.7390,0.0043,0.6729,
2025-03-09 23:07:28.089,9.7900,0.3800,-0.9200,-0.1875,0.1875,0.0625,0.0333,-0.7390,0.0043,0.6729,
2025-03-09 23:07:28.100,9.7900,0.4100,-0.9000,-0.1250,0.3125,0.0000,0.0333,-0.7390,0.0043,0.6729,
2025-03-09 23:07:28.121,9.7800,0.4000,-0.9200,-0.1250,0.2500,0.0625,0.0333,-0.7390,0.0043,0.6729,
2025-03-09 23:07:28.144,9.7900,0.3600,-0.9400,-0.0625,0.0625,-0.1875,0.0333,-0.7390,0.0043,0.6729,
2025-03-09 23:07:28.158,9.8000,0.3800,-0.9300,0.0625,-0.2500,0.0000,0.0333,-0.7390,0.0043,0.6729,
2025-03-09 23:07:28.167,9.7700,0.3900,-0.9100,-0.0625,-0.2500,-0.1875,0.0333,-0.7390,0.0043,0.6729,
2025-03-09 23:07:28.189,9.7800,0.4000,-0.9500,-0.0625,-0.2500,0.2500,0.0333,-0.7390,0.0043,0.6729,
2025-03-09 23:07:28.207,9.8000,0.3600,-0.9400,-0.1875,-0.0625,0.1875,0.0333,-0.7390,0.0043,0.6729,
2025-03-09 23:07:28.225,9.8100,0.3500,-0.9400,-0.1250,0.0000,0.3125,0.0333,-0.7390,0.0043,0.6729,
2025-03-09 23:07:28.241,9.7800,0.3900,-0.9200,-0.1875,0.4375,-0.1250,0.0333,-0.7390,0.0043,0.6729,
2025-03-09 23:07:28.285,9.7800,0.3700,-0.9000,0.0625,0.5000,0.2500,0.0333,-0.7390,0.0043,0.6729,
2025-03-09 23:07:28.285,9.7700,0.3800,-0.9000,0.1250,0.3750,0.2500,0.0333,-0.7390,0.0043,0.6729,
2025-03-09 23:07:28.297,9.8100,0.3700,-0.9400,0.1250,-0.3125,0.2500,0.0333,-0.7390,0.0043,0.6729,
2025-03-09 23:07:28.309,9.7800,0.3900,-0.8800,0.1250,-0.4375,-0.1875,0.0333,-0.7390,0.0043,0.6729,
2025-03-09 23:07:28.323,9.7800,0.3900,-0.8700,0.0000,-0.3125,-0.4375,0.0333,-0.7390,0.0043,0.6729,
2025-03-09 23:07:28.340,9.7800,0.3800,-0.9100,0.0625,-0.5625,-0.1875,0.0333,-0.7390,0.0043,0.6729,
2025-03-09 23:07:28.359,9.8000,0.3900,-0.9700,0.1250,-0.8125,0.0625,0.0333,-0.7391,0.0043,0.6727,
2025-03-09 23:07:28.365,9.8000,0.3900,-0.9300,0.1875,-0.4375,0.1875,0.0333,-0.7391,0.0043,0.6727,
2025-03-09 23:07:28.390,9.8000,0.3900,-0.9800,-0.0625,0.1250,0.1250,0.0333,-0.7391,0.0043,0.6727,
2025-03-09 23:07:28.409,9.8000,0.4000,-0.9200,0.0000,0.3750,0.1875,0.0333,-0.7391,0.0043,0.6727,
2025-03-09 23:07:28.419,9.7800,0.3700,-0.9400,0.0000,0.4375,0.2500,0.0333,-0.7391,0.0043,0.6727,
2025-03-09 23:07:28.440,9.7800,0.3900,-0.9000,-0.1250,0.5625,0.4375,0.0333,-0.7391,0.0043,0.6727,
2025-03-09 23:07:28.458,9.7900,0.3600,-0.9100,0.1250,0.1875,0.4375,0.0333,-0.7391,0.0043,0.6727,
2025-03-09 23:07:28.474,9.7900,0.3500,-0.9300,0.0000,0.1875,0.3750,0.0333,-0.7391,0.0043,0.6727,
2025-03-09 23:07:28.486,9.8000,0.3600,-0.9400,0.0625,0.2500,0.0625,0.0333,-0.7391,0.0043,0.6727,
2025-03-09 23:07:28.508,9.7900,0.3700,-0.9300,-0.1250,0.4375,0.0625,0.0333,-0.7391,0.0043,0.6727,
2025-03-09 23:07:28.518,9.8000,0.3700,-0.9200,0.0625,0.1875,-0.0625,0.0333,-0.7391,0.0043,0.6727,
2025-03-09 23:07:28.539,9.7800,0.3500,-0.9500,0.0000,0.0625,-0.1250,0.0333,-0.7391,0.0043,0.6727,
2025-03-09 23:07:28.568,9.7800,0.3500,-0.9400,0.0625,0.0625,-0.3125,0.0333,-0.7391,0.0043,0.6727,
2025-03-09 23:07:28.597,9.8000,0.4000,-0.8900,-0.0625,-0.1250,-0.3125,0.0333,-0.7391,0.0043,0.6727,
2025-03-09 23:07:28.597,9.7900,0.3800,-0.9500,0.0000,-0.5000,0.0000,0.0333,-0.7391,0.0043,0.6727,
2025-03-09 23:07:28.600,9.8000,0.3500,-0.9500,0.0000,-0.5625,-0.0625,0.0333,-0.7391,0.0043,0.6727,
2025-03-09 23:07:28.618,9.7800,0.3700,-0.9200,0.1875,0.0625,-0.0625,0.0333,-0.7391,0.0043,0.6727,
2025-03-09 23:07:28.640,9.7800,0.3800,-0.9600,0.0625,0.1875,0.0000,0.0333,-0.7391,0.0043,0.6727,
2025-03-09 23:07:28.658,9.7900,0.3700,-0.9300,0.0625,0.5000,-0.0625,0.0333,-0.7391,0.0043,0.6727,
2025-03-09 23:07:28.669,9.7700,0.3800,-0.9100,-0.1250,0.5000,-0.0625,0.0333,-0.7391,0.0043,0.6727,
2025-03-09 23:07:28.683,9.8000,0.3600,-0.9400,-0.0625,0.1250,0.3125,0.0333,-0.7391,0.0043,0.6727,
2025-03-09 23:07:28.700,9.7900,0.3900,-0.9300,0.0000,-0.0625,0.1875,0.0333,-0.7391,0.0043,0.6727,
2025-03-09 23:07:28.720,9.8100,0.3800,-0.9500,0.0625,-0.1250,0.0000,0.0333,-0.7391,0.0043,0.6727,
2025-03-09 23:07:28.739,9.7800,0.3900,-0.9300,0.1250,0.1875,-0.2500,0.0333,-0.7391,0.0043,0.6727,
2025-03-09 23:07:28.749,9.7800,0.3600,-0.9300,0.2500,0.0625,-0.0625,0.0333,-0.7391,0.0043,0.6727,
2025-03-09 23:07:28.759,9.7800,0.3700,-0.9100,0.0625,-0.3750,0.0000,0.0333,-0.7391,0.0043,0.6727,
2025-03-09 23:07:28.769,9.7800,0.3800,-0.9200,0.0000,-0.8750,0.0625,0.0333,-0.7392,0.0043,0.6727,
2025-03-09 23:07:28.783,9.7800,0.3800,-0.9400,-0.1250,-0.8750,0.1875,0.0333,-0.7392,0.0043,0.6726,
2025-03-09 23:07:28.788,9.8100,0.3900,-0.9700,0.2500,-0.8750,0.3125,0.0333,-0.7392,0.0043,0.6726,
2025-03-09 23:07:28.799,9.8000,0.3400,-0.9800,0.1250,-0.5625,0.3750,0.0333,-0.7392,0.0043,0.6726,
2025-03-09 23:07:28.810,9.8100,0.3400,-0.9300,0.0625,-0.0625,0.2500,0.0333,-0.7392,0.0043,0.6726,
2025-03-09 23:07:28.820,9.8000,0.3600,-0.9600,0.1250,0.1250,0.1875,0.0333,-0.7392,0.0043,0.6726,
2025-03-09 23:07:28.834,9.7800,0.3700,-0.9400,0.0000,0.3125,0.2500,0.0333,-0.7392,0.0043,0.6726,
2025-03-09 23:07:28.838,9.7900,0.3900,-0.9300,-0.1875,0.5625,0.0000,0.0333,-0.7392,0.0043,0.6726,
2025-03-09 23:07:28.847,9.7900,0.3500,-0.9100,-0.1250,0.3125,0.1875,0.0333,-0.7392,0.0043,0.6726,
2025-03-09 23:07:28.896,9.7800,0.3600,-0.9300,-0.0625,0.4375,0.1250,0.0333,-0.7392,0.0043,0.6726,
2025-03-09 23:07:28.896,9.7900,0.3700,-0.9000,0.1250,0.1875,0.0625,0.0333,-0.7392,0.0043,0.6726,
2025-03-09 23:07:28.896,9.7800,0.3800,-0.9300,0.1875,-0.1875,0.1250,0.0333,-0.7392,0.0043,0.6726,
2025-03-09 23:07:28.896,9.7800,0.3500,-0.9800,0.1250,-0.3125,0.3125,0.0333,-0.7392,0.0043,0.6726,
2025-03-09 23:07:28.899,9.7900,0.3700,-0.9400,-0.1875,-0.4375,0.1875,0.0333,-0.7392,0.0043,0.6726,
2025-03-09 23:07:28.905,9.7900,0.3800,-0.9200,-0.1250,-0.3750,0.1250,0.0333,-0.7392,0.0043,0.6726,
2025-03-09 23:07:28.921,9.7900,0.3800,-0.9000,0.1250,0.0000,0.1250,0.0333,-0.7392,0.0043,0.6726,
2025-03-09 23:07:28.929,9.7800,0.3700,-0.9000,-0.1875,0.1875,0.0625,0.0333,-0.7392,0.0043,0.6726,
2025-03-09 23:07:28.939,9.7700,0.3800,-0.9700,-0.1250,0.1250,0.1250,0.0333,-0.7392,0.0043,0.6726,
2025-03-09 23:07:28.949,9.7900,0.3700,-0.9400,-0.1250,0.0625,0.0625,0.0333,-0.7392,0.0043,0.6726,
2025-03-09 23:07:28.958,9.8000,0.3800,-0.9400,-0.0625,0.0625,0.2500,0.0333,-0.7392,0.0043,0.6726,
2025-03-09 23:07:28.969,9.7900,0.3900,-0.9000,0.1250,0.0625,0.1875,0.0333,-0.7392,0.0043,0.6726,
2025-03-09 23:07:28.970,9.7800,0.3600,-0.9000,0.2500,0.1250,0.0000,0.0333,-0.7392,0.0043,0.6726,
2025-03-09 23:07:28.980,9.7800,0.3700,-0.9300,0.0000,-0.1250,-0.1250,0.0333,-0.7392,0.0043,0.6726,
2025-03-09 23:07:28.991,9.7900,0.4000,-0.9300,-0.1250,-0.3125,-0.1250,0.0333,-0.7392,0.0043,0.6726,
2025-03-09 23:07:29.000,9.8000,0.3700,-0.9300,-0.1250,-0.3125,-0.2500,0.0333,-0.7392,0.0043,0.6726,
2025-03-09 23:07:29.024,9.8100,0.3900,-0.9200,-0.0625,-0.4375,-0.2500,0.0333,-0.7392,0.0043,0.6726,
2025-03-09 23:07:29.028,9.7900,0.3900,-0.9300,-0.1250,-0.1875,0.0625,0.0333,-0.7392,0.0043,0.6726,
2025-03-09 23:07:29.047,9.7900,0.3400,-0.9800,-0.0625,-0.1250,0.2500,0.0333,-0.7392,0.0043,0.6726,
2025-03-09 23:07:29.047,9.7800,0.3700,-0.9600,-0.1875,0.0000,0.4375,0.0333,-0.7392,0.0043,0.6726,
2025-03-09 23:07:29.067,9.8200,0.3500,-0.9800,-0.1875,0.2500,0.3125,0.0333,-0.7392,0.0043,0.6726,
2025-03-09 23:07:29.074,9.7700,0.3500,-0.9400,-0.1875,0.0000,0.2500,0.0333,-0.7392,0.0043,0.6726,
2025-03-09 23:07:29.079,9.8100,0.3700,-0.9200,0.0625,0.2500,-0.0625,0.0333,-0.7392,0.0043,0.6726,
2025-03-09 23:07:29.088,9.7700,0.3600,-0.9300,0.0625,0.3750,0.0000,0.0333,-0.7392,0.0043,0.6726,
2025-03-09 23:07:29.098,9.7900,0.3700,-0.9200,0.1250,0.5625,0.0625,0.0333,-0.7392,0.0043,0.6726,
2025-03-09 23:07:29.102,9.7900,0.3800,-0.9100,0.0000,0.3750,0.2500,0.0333,-0.7392,0.0043,0.6726,
2025-03-09 23:07:29.119,9.7900,0.3600,-0.9300,0.1250,0.2500,0.2500,0.0333,-0.7392,0.0043,0.6726,
2025-03-09 23:07:29.130,9.7900,0.3600,-0.8700,0.1250,-0.0625,0.3125,0.0333,-0.7392,0.0043,0.6726,
2025-03-09 23:07:29.135,9.8000,0.3600,-0.9300,0.0000,-0.0625,0.0000,0.0333,-0.7392,0.0043,0.6726,
2025-03-09 23:07:29.145,9.7800,0.3700,-0.9400,0.0625,-0.6250,-0.0625,0.0333,-0.7392,0.0043,0.6726,
2025-03-09 23:07:29.194,9.7800,0.3500,-0.9200,0.1250,-0.7500,-0.2500,0.0333,-0.7393,0.0043,0.6725,
2025-03-09 23:07:29.194,9.7700,0.3800,-0.9500,0.1875,-1.1250,-0.4375,0.0333,-0.7393,0.0043,0.6725,
2025-03-09 23:07:29.194,9.7900,0.3900,-0.9400,0.1875,-1.0625,-0.5000,0.0333,-0.7394,0.0043,0.6724,
2025-03-09 23:07:29.194,9.7900,0.3600,-1.0300,0.0625,-1.0625,-0.3125,0.0333,-0.7395,0.0043,0.6724,
2025-03-09 23:07:29.198,9.7800,0.4500,-0.9200,-0.6250,-0.5000,-0.1875,0.0333,-0.7395,0.0043,0.6723,
2025-03-09 23:07:29.201,9.7800,0.3900,-0.9100,-0.5000,0.1875,-0.2500,0.0333,-0.7395,0.0042,0.6723,
2025-03-09 23:07:29.221,9.7900,0.3600,-1.0000,-0.1250,-0.3125,0.3750,0.0333,-0.7395,0.0042,0.6723,
2025-03-09 23:07:29.221,9.7900,0.3900,-0.9300,-0.0625,-0.1250,0.4375,0.0333,-0.7395,0.0042,0.6723,
2025-03-09 23:07:29.231,9.7900,0.3800,-0.9600,0.0000,0.1875,0.2500,0.0333,-0.7395,0.0042,0.6723,
2025-03-09 23:07:29.248,9.7800,0.3700,-0.9100,-0.0625,0.4375,0.0000,0.0333,-0.7395,0.0042,0.6723,
2025-03-09 23:07:29.273,9.7900,0.3500,-0.9600,-0.0625,0.6250,-0.3125,0.0333,-0.7395,0.0042,0.6723,
2025-03-09 23:07:29.274,9.8000,0.3800,-0.9300,-0.1875,0.4375,-0.5000,0.0333,-0.7395,0.0042,0.6723,
2025-03-09 23:07:29.283,9.7900,0.3800,-0.9200,-0.1875,0.4375,-0.6250,0.0333,-0.7395,0.0042,0.6723,
2025-03-09 23:07:29.290,9.8200,0.3600,-0.9700,0.0000,0.1875,-0.5625,0.0333,-0.7395,0.0042,0.6723,
2025-03-09 23:07:29.301,9.7800,0.3800,-0.9300,-0.0625,-0.0625,-0.8750,0.0333,-0.7395,0.0042,0.6723,
2025-03-09 23:07:29.301,9.7700,0.4200,-0.9400,0.0000,-0.1875,-0.7500,0.0333,-0.7395,0.0042,0.6723,
2025-03-09 23:07:29.319,9.8000,0.4400,-0.9200,0.0000,-0.4375,-0.5625,0.0334,-0.7395,0.0041,0.6723,
2025-03-09 23:07:29.332,9.8100,0.3900,-0.9700,0.1250,-0.4375,-0.3125,0.0334,-0.7395,0.0041,0.6723,
2025-03-09 23:07:29.333,9.7800,0.3700,-0.9800,0.2500,-0.1875,0.0000,0.0334,-0.7395,0.0041,0.6723,
2025-03-09 23:07:29.344,9.8100,0.3400,-0.9400,0.5625,0.0625,0.3125,0.0334,-0.7395,0.0041,0.6723,
2025-03-09 23:07:29.354,9.8000,0.3800,-0.9500,0.4375,0.3750,0.2500,0.0334,-0.7395,0.0041,0.6723,
2025-03-09 23:07:29.365,9.7900,0.4000,-0.9100,0.5000,0.4375,-0.1875,0.0334,-0.7395,0.0041,0.6723,
2025-03-09 23:07:29.379,9.7800,0.3700,-0.9000,0.2500,0.5000,-0.0625,0.0334,-0.7395,0.0041,0.6723,
2025-03-09 23:07:29.389,9.7900,0.3600,-0.9500,0.1250,-0.1875,0.0625,0.0334,-0.7395,0.0041,0.6723,
2025-03-09 23:07:29.399,9.8000,0.3600,-0.9100,-0.0625,-0.3125,-0.3125,0.0334,-0.7395,0.0041,0.6723,
2025-03-09 23:07:29.409,9.7800,0.3600,-0.9200,-0.0625,-0.6875,-0.6875,0.0334,-0.7395,0.0041,0.6723,
2025-03-09 23:07:29.410,9.7900,0.4000,-0.9100,-0.1875,-1.0625,-0.9375,0.0334,-0.7395,0.0041,0.6723,
2025-03-09 23:07:29.426,9.7900,0.3900,-0.9100,-0.1250,-1.3125,-1.3125,0.0335,-0.7396,0.0040,0.6722,
2025-03-09 23:07:29.439,9.7900,0.4100,-0.9600,-0.1875,-1.4375,-1.1250,0.0336,-0.7396,0.0039,0.6721,
2025-03-09 23:07:29.448,9.7900,0.3900,-0.9800,-0.0625,-1.6875,-0.9375,0.0336,-0.7397,0.0038,0.6720,
2025-03-09 23:07:29.485,9.7900,0.4100,-0.9500,0.0000,-1.4375,-0.7500,0.0337,-0.7398,0.0038,0.6719,
2025-03-09 23:07:29.485,9.7900,0.3900,-0.9600,0.1250,-1.3125,-0.6875,0.0338,-0.7399,0.0038,0.6719,
2025-03-09 23:07:29.496,9.7800,0.4100,-0.9700,0.0625,-1.1250,-0.4375,0.0338,-0.7400,0.0037,0.6718,
2025-03-09 23:07:29.496,9.8000,0.3900,-0.9700,0.1250,-0.8750,-0.2500,0.0338,-0.7401,0.0037,0.6717,
2025-03-09 23:07:29.496,9.7900,0.4200,-0.9500,-0.0625,-0.6250,-0.1250,0.0338,-0.7401,0.0037,0.6716,
2025-03-09 23:07:29.509,9.7800,0.4200,-0.9200,-0.1250,-0.4375,-0.2500,0.0338,-0.7401,0.0037,0.6716,
2025-03-09 23:07:29.519,9.7900,0.4000,-0.9400,0.0625,-0.5625,-0.0625,0.0338,-0.7401,0.0037,0.6716,
2025-03-09 23:07:29.530,9.7800,0.3900,-0.9400,-0.0625,-0.8125,0.0000,0.0338,-0.7401,0.0037,0.6716,
2025-03-09 23:07:29.531,9.7900,0.3900,-0.9900,0.1875,-1.1875,0.0625,0.0338,-0.7402,0.0037,0.6716,
2025-03-09 23:07:29.551,9.7900,0.3700,-1.0100,0.0000,-1.3125,0.1875,0.0338,-0.7402,0.0037,0.6715,
2025-03-09 23:07:29.552,9.7800,0.3700,-0.9800,-0.0625,-1.2500,-0.1250,0.0338,-0.7403,0.0037,0.6714,
2025-03-09 23:07:29.565,9.7900,0.3900,-1.0000,-0.0625,-0.8125,-0.2500,0.0338,-0.7404,0.0037,0.6713,
2025-03-09 23:07:29.579,9.7800,0.3700,-0.9800,-0.2500,-0.4375,-0.3125,0.0338,-0.7404,0.0037,0.6713,
2025-03-09 23:07:29.588,9.7800,0.4100,-0.9500,0.1250,-0.0625,-0.1875,0.0338,-0.7404,0.0037,0.6713,
2025-03-09 23:07:29.599,9.7900,0.3700,-0.9900,0.0000,-0.0625,-0.1250,0.0338,-0.7404,0.0037,0.6713,
2025-03-09 23:07:29.615,9.7900,0.3900,-0.9600,0.0625,-0.1875,0.0625,0.0338,-0.7404,0.0037,0.6713,
2025-03-09 23:07:29.619,9.7800,0.4100,-0.9500,0.1875,-0.4375,0.0000,0.0338,-0.7404,0.0037,0.6713,
2025-03-09 23:07:29.630,9.8000,0.3900,-0.9700,0.1875,-0.4375,0.0000,0.0338,-0.7404,0.0037,0.6713,
2025-03-09 23:07:29.639,9.7800,0.4000,-0.9600,0.0000,-0.1875,0.1875,0.0338,-0.7404,0.0037,0.6713,
2025-03-09 23:07:29.650,9.8000,0.4000,-0.9700,-0.1250,-0.3125,0.1875,0.0338,-0.7404,0.0037,0.6713,
2025-03-09 23:07:29.650,9.8000,0.3700,-0.9900,-0.0625,-0.3125,0.4375,0.0338,-0.7404,0.0037,0.6713,
2025-03-09 23:07:29.665,9.8000,0.3900,-1.0000,0.0000,-0.5000,0.7500,0.0338,-0.7404,0.0037,0.6713,
2025-03-09 23:07:29.678,9.7800,0.3500,-0.9900,-0.0625,-0.3125,0.5625,0.0338,-0.7404,0.0037,0.6713,
2025-03-09 23:07:29.689,9.7800,0.3700,-1.0200,-0.0625,0.1250,0.4375,0.0338,-0.7404,0.0037,0.6713,
2025-03-09 23:07:29.696,9.7700,0.3500,-0.9800,-0.1875,0.3750,0.1875,0.0338,-0.7404,0.0037,0.6713,
2025-03-09 23:07:29.709,9.7900,0.3900,-0.9700,-0.1250,0.4375,0.0000,0.0338,-0.7404,0.0037,0.6713,
2025-03-09 23:07:29.727,9.7800,0.3600,-0.9800,0.0625,0.1250,0.0000,0.0338,-0.7404,0.0037,0.6713,
2025-03-09 23:07:29.742,9.7900,0.4000,-0.9500,0.1250,-0.1875,0.0000,0.0338,-0.7404,0.0037,0.6713,
2025-03-09 23:07:29.749,9.8000,0.3900,-0.9400,-0.0625,-0.5000,0.1250,0.0338,-0.7404,0.0037,0.6713,
2025-03-09 23:07:29.792,9.7800,0.3700,-1.0100,0.0625,-0.5000,0.0625,0.0338,-0.7404,0.0037,0.6713,
2025-03-09 23:07:29.793,9.7700,0.3800,-0.9600,0.0625,-0.5625,-0.0625,0.0338,-0.7404,0.0037,0.6713,
2025-03-09 23:07:29.793,9.8000,0.3900,-0.9900,0.0625,-0.5000,-0.1875,0.0338,-0.7404,0.0037,0.6713,
2025-03-09 23:07:29.795,9.8000,0.4100,-0.9800,0.0000,-0.2500,-0.3750,0.0338,-0.7404,0.0037,0.6713,
2025-03-09 23:07:29.815,9.7600,0.3900,-1.0100,-0.1250,-0.1250,-0.3125,0.0338,-0.7404,0.0037,0.6713,
2025-03-09 23:07:29.840,9.8100,0.3600,-0.9900,-0.2500,0.0625,-0.0625,0.0338,-0.7404,0.0037,0.6713,
2025-03-09 23:07:29.860,9.7800,0.4200,-0.9700,0.0000,-0.3125,-0.1250,0.0338,-0.7404,0.0037,0.6713,
2025-03-09 23:07:29.879,9.7800,0.3900,-0.9500,-0.0625,-0.3750,-0.0625,0.0338,-0.7404,0.0037,0.6713,
2025-03-09 23:07:29.893,9.7800,0.3800,-0.9900,-0.0625,-0.6250,0.3125,0.0338,-0.7405,0.0037,0.6712,
2025-03-09 23:07:29.916,9.7900,0.3700,-1.0400,-0.1875,-0.4375,0.3750,0.0338,-0.7405,0.0037,0.6711,
2025-03-09 23:07:29.944,9.7800,0.3900,-0.9900,0.1250,0.0625,-0.0625,0.0338,-0.7405,0.0037,0.6711,
2025-03-09 23:07:29.960,9.7900,0.4000,-0.9500,-0.0625,-0.3750,-0.1250,0.0338,-0.7405,0.0037,0.6711,
2025-03-09 23:07:29.980,9.7900,0.3600,-1.0200,0.0625,-0.6875,0.2500,0.0338,-0.7405,0.0037,0.6711,
2025-03-09 23:07:30.001,9.7700,0.3900,-0.9900,0.0000,-0.4375,-0.1250,0.0338,-0.7406,0.0037,0.6711,
2025-03-09 23:07:30.019,9.7800,0.4000,-0.9900,0.1250,-0.5625,-0.2500,0.0338,-0.7406,0.0037,0.6711,
2025-03-09 23:07:30.040,9.7900,0.3900,-1.0200,-0.0625,-0.4375,-0.0625,0.0338,-0.7406,0.0037,0.6711,
2025-03-09 23:07:30.089,9.7900,0.4000,-0.9700,0.0000,0.1875,0.1250,0.0338,-0.7406,0.0037,0.6711,
2025-03-09 23:07:30.089,9.7700,0.3900,-1.0100,0.0000,0.1875,0.3750,0.0338,-0.7406,0.0037,0.6711,
2025-03-09 23:07:30.099,9.7800,0.3900,-1.0100,0.0625,0.1875,0.3125,0.0338,-0.7406,0.0037,0.6711,
2025-03-09 23:07:30.120,9.7800,0.3700,-1.0000,0.1250,-0.1875,0.1250,0.0338,-0.7406,0.0037,0.6711,
2025-03-09 23:07:30.142,9.8000,0.4000,-1.0000,-0.1250,0.0000,0.1875,0.0338,-0.7406,0.0037,0.6711,
2025-03-09 23:07:30.158,9.7800,0.3600,-0.9700,0.1250,0.1875,0.2500,0.0338,-0.7406,0.0037,0.6711,
2025-03-09 23:07:30.179,9.7800,0.3900,-0.9900,0.0000,0.1875,0.1250,0.0338,-0.7406,0.0037,0.6711,
2025-03-09 23:07:30.200,9.7800,0.4200,-1.0200,0.1875,0.0000,0.1875,0.0338,-0.7406,0.0037,0.6711,
2025-03-09 23:07:30.219,9.7800,0.4100,-0.9600,-0.0625,0.1875,0.2500,0.0338,-0.7406,0.0037,0.6711,
2025-03-09 23:07:30.224,9.7900,0.3500,-0.9900,0.0000,0.1875,0.3125,0.0338,-0.7406,0.0037,0.6711,
2025-03-09 23:07:30.244,9.7700,0.3900,-0.9700,0.0000,-0.1250,-0.1875,0.0338,-0.7406,0.0037,0.6711,
2025-03-09 23:07:30.269,9.8000,0.3600,-0.9900,0.1250,-0.2500,-0.4375,0.0338,-0.7406,0.0037,0.6711,
2025-03-09 23:07:30.281,9.7700,0.4200,-0.9600,0.0000,0.0625,-0.5625,0.0338,-0.7406,0.0037,0.6711,
2025-03-09 23:07:30.300,9.7700,0.4200,-0.9700,0.0000,-0.1250,0.2500,0.0338,-0.7406,0.0037,0.6711,
2025-03-09 23:07:30.319,9.7800,0.3900,-0.9900,0.0625,-0.0625,0.5625,0.0338,-0.7406,0.0037,0.6711,
2025-03-09 23:07:30.350,9.7800,0.3900,-0.9900,0.0000,0.1875,0.2500,0.0338,-0.7406,0.0037,0.6711,
2025-03-09 23:07:30.389,9.7800,0.4100,-0.9800,0.0625,0.5625,-0.0625,0.0338,-0.7406,0.0037,0.6711,
2025-03-09 23:07:30.389,9.8000,0.3500,-0.9800,0.0000,0.6875,-0.3125,0.0338,-0.7406,0.0037,0.6711,
2025-03-09 23:07:30.397,9.7700,0.4100,-0.9700,0.0625,0.4375,-0.1875,0.0338,-0.7405,0.0037,0.6711,
2025-03-09 23:07:30.401,9.8000,0.4000,-0.9500,0.0625,-0.0625,-0.2500,0.0338,-0.7405,0.0037,0.6711,
2025-03-09 23:07:30.422,9.7800,0.4000,-0.9700,0.1250,0.0625,0.1875,0.0338,-0.7405,0.0037,0.6711,
2025-03-09 23:07:30.422,9.7900,0.4000,-1.0100,-0.0625,-0.1875,0.3125,0.0338,-0.7405,0.0037,0.6711,
2025-03-09 23:07:30.453,9.7800,0.3900,-1.0300,0.2500,0.1875,0.0000,0.0338,-0.7405,0.0037,0.6711,
2025-03-09 23:07:30.473,9.7900,0.3900,-0.9700,0.0625,0.3750,0.1250,0.0338,-0.7405,0.0037,0.6711,
2025-03-09 23:07:30.486,9.7800,0.3600,-1.0300,0.0000,0.4375,0.0625,0.0338,-0.7405,0.0037,0.6711,
2025-03-09 23:07:30.500,9.7900,0.3700,-1.0000,0.0625,0.3125,0.1875,0.0338,-0.7405,0.0037,0.6711,
2025-03-09 23:07:30.519,9.7800,0.3800,-0.9700,0.0625,0.2500,0.1875,0.0338,-0.7405,0.0037,0.6711,
2025-03-09 23:07:30.531,9.7800,0.3900,-0.9400,-0.0625,0.3125,0.3750,0.0338,-0.7405,0.0037,0.6711,
2025-03-09 23:07:30.552,9.7900,0.3400,-1.0000,0.1250,0.1875,0.3125,0.0338,-0.7405,0.0037,0.6711,
2025-03-09 23:07:30.574,9.7800,0.3500,-0.9900,0.1875,0.4375,0.0000,0.0338,-0.7405,0.0037,0.6711,
2025-03-09 23:07:30.605,9.7800,0.4000,-0.9900,-0.1250,0.3750,-0.3125,0.0338,-0.7405,0.0037,0.6711,
2025-03-09 23:07:30.611,9.7700,0.3700,-0.9600,0.0625,0.1875,-0.1250,0.0338,-0.7405,0.0037,0.6711,
2025-03-09 23:07:30.643,9.7800,0.3800,-0.9600,0.0625,0.0625,0.1875,0.0338,-0.7405,0.0037,0.6711,
2025-03-09 23:07:30.653,9.8000,0.3700,-1.0000,0.0000,0.0000,-0.1250,0.0338,-0.7405,0.0037,0.6711,
2025-03-09 23:07:30.694,9.7700,0.3600,-0.9900,-0.0625,0.1250,-0.5625,0.0338,-0.7405,0.0037,0.6711,
2025-03-09 23:07:30.694,9.7900,0.4000,-0.9600,-0.0625,0.1250,0.0000,0.0338,-0.7405,0.0037,0.6711,
2025-03-09 23:07:30.704,9.7800,0.3700,-0.9700,-0.0625,-0.1250,0.3125,0.0338,-0.7405,0.0037,0.6711,
2025-03-09 23:07:30.729,9.7800,0.3600,-0.9700,-0.1250,0.5000,0.2500,0.0338,-0.7405,0.0037,0.6711,
2025-03-09 23:07:30.749,9.8100,0.4000,-0.9800,-0.1250,0.6875,0.0000,0.0338,-0.7405,0.0037,0.6712,
2025-03-09 23:07:30.769,9.7800,0.3700,-0.9500,-0.0625,0.3750,0.3750,0.0338,-0.7405,0.0037,0.6712,
2025-03-09 23:07:30.784,9.7800,0.3600,-0.9300,0.1250,-0.0625,0.4375,0.0338,-0.7405,0.0037,0.6712,
2025-03-09 23:07:30.796,9.7600,0.3700,-0.9800,-0.0625,-0.3125,-0.0625,0.0338,-0.7405,0.0037,0.6712,
2025-03-09 23:07:30.822,9.7800,0.3700,-1.0000,0.0000,-0.2500,-0.1250,0.0338,-0.7405,0.0037,0.6712,
2025-03-09 23:07:30.831,9.8100,0.3900,-0.9700,0.0625,-0.1250,-0.2500,0.0338,-0.7405,0.0037,0.6712,
2025-03-09 23:07:30.852,9.7800,0.4100,-0.9700,0.0000,-0.1250,-0.3125,0.0338,-0.7405,0.0037,0.6712,
2025-03-09 23:07:30.867,9.7900,0.3600,-0.9600,0.0625,-0.3125,-0.1250,0.0338,-0.7405,0.0037,0.6712,
2025-03-09 23:07:30.872,9.7800,0.3900,-1.0000,-0.1250,-0.1875,0.0625,0.0338,-0.7405,0.0037,0.6712,
2025-03-09 23:07:30.902,9.7800,0.3600,-1.0500,-0.2500,0.2500,-0.1250,0.0338,-0.7405,0.0037,0.6712,
2025-03-09 23:07:30.918,9.7800,0.3700,-0.9800,-0.1875,0.3750,-0.3125,0.0338,-0.7405,0.0037,0.6712,
2025-03-09 23:07:30.935,9.7800,0.3800,-0.9400,-0.0625,0.3750,-0.4375,0.0338,-0.7404,0.0037,0.6713,
2025-03-09 23:07:30.950,9.8000,0.4300,-0.9800,-0.1875,0.0625,0.1250,0.0338,-0.7404,0.0037,0.6713,
2025-03-09 23:07:30.997,9.7900,0.3700,-0.9700,-0.1250,-0.0625,0.1875,0.0338,-0.7404,0.0037,0.6713,
2025-03-09 23:07:31.000,9.7800,0.3600,-0.9500,0.0000,-0.2500,0.1875,0.0338,-0.7404,0.0037,0.6713,
2025-03-09 23:07:31.000,9.7800,0.3600,-1.0000,0.0000,-0.1250,0.0625,0.0338,-0.7404,0.0037,0.6713,
2025-03-09 23:07:31.020,9.7700,0.4000,-0.9400,0.1875,0.1250,0.0625,0.0338,-0.7404,0.0037,0.6713,
2025-03-09 23:07:31.031,9.7800,0.3700,-0.9700,0.0000,-0.1250,0.1250,0.0338,-0.7404,0.0037,0.6713,
2025-03-09 23:07:31.049,9.7800,0.3900,-0.9800,-0.0625,0.1250,0.0000,0.0338,-0.7404,0.0037,0.6713,
2025-03-09 23:07:31.068,9.7800,0.3900,-0.9400,-0.1250,-0.2500,0.0000,0.0338,-0.7404,0.0037,0.6713,
2025-03-09 23:07:31.080,9.7800,0.3500,-0.9700,0.0000,-0.1875,-0.1250,0.0338,-0.7404,0.0037,0.6713,
2025-03-09 23:07:31.100,9.7800,0.3700,-1.0100,-0.1875,-0.1250,-0.1250,0.0338,-0.7404,0.0037,0.6713,
2025-03-09 23:07:31.118,9.7700,0.3700,-1.0000,-0.1250,0.4375,-0.3750,0.0338,-0.7404,0.0037,0.6713,
2025-03-09 23:07:31.131,9.7800,0.4100,-0.9600,-0.1250,0.5000,-0.2500,0.0338,-0.7404,0.0037,0.6713,
2025-03-09 23:07:31.148,9.7900,0.3800,-0.9800,0.0625,0.0000,0.2500,0.0338,-0.7404,0.0037,0.6713,
2025-03-09 23:07:31.169,9.8100,0.3700,-0.9600,0.0000,-0.1250,0.1250,0.0338,-0.7404,0.0037,0.6713,
2025-03-09 23:07:31.178,9.7800,0.3200,-1.0200,-0.0625,0.0000,0.1875,0.0338,-0.7404,0.0037,0.6713,
2025-03-09 23:07:31.204,9.7900,0.3600,-0.9800,-0.0625,0.3125,-0.3125,0.0338,-0.7404,0.0037,0.6713,
2025-03-09 23:07:31.217,9.7800,0.3900,-0.9500,0.0000,0.0625,-0.1875,0.0338,-0.7404,0.0037,0.6713,
2025-03-09 23:07:31.231,9.7800,0.3900,-0.9700,0.0000,-0.1250,-0.1250,0.0338,-0.7404,0.0037,0.6713,
2025-03-09 23:07:31.246,9.7700,0.3700,-0.9700,0.0000,0.1875,-0.3125,0.0338,-0.7404,0.0037,0.6713,
2025-03-09 23:07:31.289,9.7800,0.3700,-0.9600,0.0625,0.0625,0.0625,0.0338,-0.7404,0.0037,0.6713,
2025-03-09 23:07:31.289,9.7800,0.3700,-0.9500,0.0000,0.1250,0.0625,0.0338,-0.7404,0.0037,0.6713,
2025-03-09 23:07:31.298,9.7900,0.3600,-1.0000,0.1875,-0.0625,0.0625,0.0338,-0.7404,0.0037,0.6713,
2025-03-09 23:07:31.312,9.7800,0.3500,-0.9900,0.0625,-0.5000,0.0625,0.0338,-0.7404,0.0037,0.6713,
2025-03-09 23:07:31.322,9.7800,0.3700,-0.9700,0.1250,-0.4375,-0.0625,0.0338,-0.7404,0.0037,0.6713,
2025-03-09 23:07:31.353,9.7600,0.3700,-0.9900,0.1250,-0.4375,0.1875,0.0338,-0.7404,0.0037,0.6713,
2025-03-09 23:07:31.369,9.7800,0.3500,-0.9900,0.1875,0.1250,0.1250,0.0338,-0.7404,0.0037,0.6713,
2025-03-09 23:07:31.383,9.7800,0.3800,-0.9600,0.1250,0.2500,0.0000,0.0338,-0.7404,0.0037,0.6713,
2025-03-09 23:07:31.399,9.7900,0.3700,-0.9700,-0.1250,-0.0625,0.0625,0.0338,-0.7404,0.0037,0.6713,
2025-03-09 23:07:31.412,9.7800,0.3500,-0.9800,0.1875,-0.3125,0.1250,0.0338,-0.7404,0.0037,0.6713,
2025-03-09 23:07:31.422,9.7600,0.3600,-0.9900,0.0000,-0.4375,-0.0625,0.0338,-0.7404,0.0037,0.6713,
2025-03-09 23:07:31.442,9.8100,0.3800,-1.0100,-0.1250,0.0625,-0.3750,0.0338,-0.7404,0.0037,0.6713,
2025-03-09 23:07:31.468,9.7900,0.4000,-0.9800,0.0000,0.6250,-0.5625,0.0338,-0.7404,0.0037,0.6713,
2025-03-09 23:07:31.478,9.7700,0.3700,-0.9700,-0.0625,0.3750,-0.1875,0.0338,-0.7404,0.0037,0.6713,
2025-03-09 23:07:31.498,9.7700,0.3800,-0.9700,0.0625,-0.0625,-0.2500,0.0338,-0.7404,0.0037,0.6713,
2025-03-09 23:07:31.510,9.8000,0.4100,-0.9500,0.0000,-0.1250,-0.4375,0.0338,-0.7404,0.0037,0.6713,
2025-03-09 23:07:31.532,9.7600,0.4100,-0.9500,-0.1250,-0.2500,-0.1875,0.0338,-0.7404,0.0037,0.6713,
2025-03-09 23:07:31.543,9.7800,0.3500,-1.0500,0.0000,-0.1875,0.3125,0.0338,-0.7404,0.0037,0.6713,
2025-03-09 23:07:31.661,9.7800,0.3600,-1.0300,-0.1250,0.5000,-0.3750,0.0338,-0.7404,0.0037,0.6713,
2025-03-09 23:07:31.661,9.7900,0.3800,-0.9900,-0.1875,0.6875,-0.3125,0.0338,-0.7404,0.0037,0.6713,
2025-03-09 23:07:31.661,9.7800,0.3800,-0.9800,0.0000,0.8125,-0.0625,0.0338,-0.7403,0.0037,0.6714,
2025-03-09 23:07:31.661,9.7800,0.3900,-0.9600,0.1250,0.5000,0.3125,0.0338,-0.7403,0.0037,0.6714,
2025-03-09 23:07:31.661,9.7800,0.3700,-0.9400,0.0625,0.0625,0.0625,0.0338,-0.7403,0.0037,0.6714,
2025-03-09 23:07:31.661,9.7800,0.3200,-1.0300,0.0625,-0.2500,-0.1250,0.0338,-0.7403,0.0037,0.6714,
2025-03-09 23:07:31.664,9.7800,0.3600,-1.0000,0.1875,-0.2500,-0.6250,0.0339,-0.7403,0.0037,0.6714,
2025-03-09 23:07:31.684,9.7900,0.3900,-0.9800,0.1875,-0.2500,-0.5625,0.0339,-0.7403,0.0037,0.6714,
2025-03-09 23:07:31.694,9.7800,0.3800,-0.9800,-0.0625,-0.4375,-0.5625,0.0339,-0.7403,0.0036,0.6714,
2025-03-09 23:07:31.704,9.7900,0.4000,-0.9800,-0.0625,-0.6875,-0.3750,0.0339,-0.7403,0.0036,0.6714,
2025-03-09 23:07:31.720,9.7900,0.4100,-1.0200,0.0000,-0.6250,-0.1875,0.0339,-0.7403,0.0036,0.6714,
2025-03-09 23:07:31.729,9.7800,0.3700,-0.9900,-0.0625,-0.5625,0.0000,0.0339,-0.7403,0.0036,0.6714,
2025-03-09 23:07:31.739,9.8000,0.3600,-1.0300,-0.0625,-0.3750,0.0625,0.0339,-0.7403,0.0036,0.6714,
2025-03-09 23:07:31.749,9.7700,0.3600,-1.0200,-0.1875,0.0625,-0.0625,0.0339,-0.7403,0.0036,0.6714,
2025-03-09 23:07:31.760,9.7600,0.3800,-1.0000,-0.1250,0.2500,-0.0625,0.0339,-0.7403,0.0036,0.6714,
2025-03-09 23:07:31.767,9.7900,0.3500,-1.0300,-0.0625,0.3750,0.0000,0.0339,-0.7403,0.0036,0.6714,
2025-03-09 23:07:31.774,9.8000,0.3600,-0.9900,0.0000,0.5625,-0.1250,0.0339,-0.7403,0.0036,0.6714,
2025-03-09 23:07:31.784,9.7700,0.4000,-0.9500,-0.1875,0.8125,-0.1875,0.0339,-0.7403,0.0036,0.6714,
2025-03-09 23:07:31.805,9.7800,0.3300,-0.9600,-0.1875,0.5000,0.1250,0.0339,-0.7403,0.0036,0.6714,
2025-03-09 23:07:31.820,9.7800,0.3600,-0.9500,-0.0625,0.1875,0.1875,0.0339,-0.7403,0.0036,0.6714,
2025-03-09 23:07:31.821,9.7800,0.3600,-0.9600,0.0000,-0.1875,0.0625,0.0339,-0.7403,0.0036,0.6714,
2025-03-09 23:07:31.828,9.7800,0.3900,-0.9600,0.0000,-0.4375,-0.1875,0.0339,-0.7403,0.0036,0.6714,
2025-03-09 23:07:31.841,9.7900,0.3700,-1.0100,-0.0625,-0.5000,-0.1250,0.0339,-0.7403,0.0036,0.6714,
2025-03-09 23:07:31.849,9.7800,0.3800,-1.0000,-0.0625,-0.5000,-0.0625,0.0339,-0.7403,0.0036,0.6714,
2025-03-09 23:07:31.885,9.7600,0.4100,-0.9800,-0.2500,-0.3125,0.0625,0.0339,-0.7403,0.0036,0.6714,
2025-03-09 23:07:31.895,9.8000,0.3600,-1.0100,-0.1875,-0.2500,0.2500,0.0339,-0.7403,0.0036,0.6714,
2025-03-09 23:07:31.895,9.7700,0.3600,-0.9900,-0.0625,-0.0625,0.0625,0.0339,-0.7403,0.0036,0.6714,
2025-03-09 23:07:31.895,9.8100,0.3400,-0.9500,-0.0625,0.0000,0.1250,0.0339,-0.7403,0.0036,0.6714,
2025-03-09 23:07:31.896,9.8100,0.3300,-1.0100,-0.0625,0.1250,-0.3125,0.0339,-0.7403,0.0036,0.6714,
2025-03-09 23:07:31.906,9.7700,0.3500,-0.9800,-0.1875,0.1875,-0.6875,0.0339,-0.7403,0.0035,0.6714,
2025-03-09 23:07:31.918,9.7700,0.3600,-0.9500,-0.3125,-0.1250,-0.8750,0.0340,-0.7403,0.0035,0.6714,
2025-03-09 23:07:31.928,9.7900,0.3400,-0.9600,-0.1875,-0.3750,-1.2500,0.0341,-0.7403,0.0034,0.6714,
2025-03-09 23:07:31.940,9.7900,0.3800,-0.9800,-0.1250,-1.0000,-1.5000,0.0342,-0.7404,0.0034,0.6713,
2025-03-09 23:07:31.940,9.7900,0.4100,-1.0200,-0.2500,-1.1875,-1.5625,0.0343,-0.7404,0.0032,0.6713,
2025-03-09 23:07:31.950,9.7800,0.3900,-1.0400,-0.1875,-1.0625,-1.5000,0.0344,-0.7405,0.0032,0.6712,
2025-03-09 23:07:31.973,9.8100,0.3800,-1.0100,-0.2500,-1.0000,-1.4375,0.0345,-0.7405,0.0031,0.6711,
2025-03-09 23:07:31.973,9.7800,0.4200,-1.0500,-0.1875,-0.8750,-1.2500,0.0345,-0.7406,0.0030,0.6711,
2025-03-09 23:07:31.989,9.7600,0.3800,-1.0200,-0.0625,-0.7500,-1.3750,0.0347,-0.7406,0.0029,0.6710,
2025-03-09 23:07:31.998,9.7800,0.3900,-1.0400,-0.1250,-0.5000,-1.2500,0.0347,-0.7406,0.0029,0.6710,
2025-03-09 23:07:32.009,9.7800,0.4100,-1.0200,-0.1250,0.0000,-1.1875,0.0348,-0.7406,0.0028,0.6710,
2025-03-09 23:07:32.018,9.7800,0.4200,-1.0000,0.0000,0.1250,-0.8750,0.0348,-0.7406,0.0028,0.6710,
2025-03-09 23:07:32.028,9.7800,0.4100,-0.9700,-0.0625,-0.0625,-0.6250,0.0349,-0.7406,0.0027,0.6710,
2025-03-09 23:07:32.038,9.7900,0.3900,-0.9400,0.0000,-0.4375,-0.6250,0.0349,-0.7406,0.0027,0.6710,
2025-03-09 23:07:32.048,9.7900,0.3700,-0.9700,-0.1875,-1.0625,-0.2500,0.0349,-0.7406,0.0027,0.6710,
2025-03-09 23:07:32.060,9.7900,0.3700,-1.0100,-0.1250,-1.5625,-0.2500,0.0349,-0.7407,0.0026,0.6710,
2025-03-09 23:07:32.060,9.7900,0.3900,-1.0300,-0.3125,-1.4375,-0.8125,0.0349,-0.7407,0.0026,0.6709,
2025-03-09 23:07:32.070,9.7800,0.3900,-1.0200,-0.0625,-1.1250,-1.0625,0.0350,-0.7408,0.0026,0.6708,
2025-03-09 23:07:32.089,9.7900,0.3800,-1.0000,0.0000,-1.1875,-1.0625,0.0350,-0.7409,0.0026,0.6707,
2025-03-09 23:07:32.099,9.7900,0.3800,-0.9900,-0.0625,-1.5000,-0.9375,0.0351,-0.7409,0.0024,0.6706,
2025-03-09 23:07:32.110,9.7800,0.4100,-0.9500,-0.1250,-1.7500,-1.0625,0.0352,-0.7410,0.0024,0.6705,
2025-03-09 23:07:32.119,9.7800,0.3900,-1.0100,0.1875,-2.8125,-1.1875,0.0352,-0.7412,0.0023,0.6704,
2025-03-09 23:07:32.128,9.7700,0.4600,-0.8800,0.1875,-3.1250,-1.4375,0.0353,-0.7413,0.0023,0.6703,
2025-03-09 23:07:32.140,9.7800,0.3600,-1.0500,-0.1250,-4.1875,-1.3125,0.0354,-0.7415,0.0022,0.6701,
2025-03-09 23:07:32.149,9.7900,0.4000,-1.0800,-0.2500,-4.6250,-1.3125,0.0355,-0.7417,0.0021,0.6698,
2025-03-09 23:07:32.192,9.7800,0.3600,-1.1100,0.0000,-4.6875,-1.0000,0.0356,-0.7420,0.0020,0.6695,
2025-03-09 23:07:32.193,9.7800,0.3000,-1.2000,-0.7500,-5.0000,-1.0000,0.0356,-0.7422,0.0020,0.6692,
2025-03-09 23:07:32.193,9.7800,0.4200,-1.1700,-0.2500,-3.7500,-1.7500,0.0356,-0.7425,0.0018,0.6689,
2025-03-09 23:07:32.193,9.7800,0.4600,-1.1100,-0.1250,-2.1875,-2.0625,0.0358,-0.7427,0.0017,0.6686,
2025-03-09 23:07:32.202,9.7800,0.3900,-1.2200,-0.3750,-1.4375,-1.5000,0.0359,-0.7428,0.0016,0.6685,
2025-03-09 23:07:32.207,9.7800,0.4600,-1.1000,-0.4375,-0.3125,-1.2500,0.0360,-0.7429,0.0015,0.6684,
2025-03-09 23:07:32.218,9.7700,0.4200,-1.1600,-0.3125,0.6875,-1.1250,0.0361,-0.7429,0.0014,0.6684,
2025-03-09 23:07:32.223,9.7800,0.5000,-1.0600,-0.4375,1.2500,-0.8125,0.0361,-0.7429,0.0013,0.6685,
2025-03-09 23:07:32.233,9.7800,0.4800,-1.0400,-0.4375,1.4375,-0.1250,0.0362,-0.7428,0.0013,0.6686,
2025-03-09 23:07:32.248,9.7800,0.4500,-1.0100,-0.2500,1.1875,0.8750,0.0362,-0.7427,0.0013,0.6687,
2025-03-09 23:07:32.259,9.8000,0.4200,-1.0500,-0.4375,0.3125,1.1875,0.0361,-0.7426,0.0013,0.6687,
2025-03-09 23:07:32.270,9.7900,0.3900,-1.0900,-0.4375,-0.0625,1.3125,0.0361,-0.7426,0.0015,0.6687,
2025-03-09 23:07:32.278,9.7900,0.3400,-1.1200,-0.0625,0.0000,0.9375,0.0360,-0.7426,0.0015,0.6687,
2025-03-09 23:07:32.288,9.7900,0.4500,-1.0800,0.0625,0.8125,0.4375,0.0359,-0.7427,0.0016,0.6687,
2025-03-09 23:07:32.302,9.7900,0.4200,-1.0900,0.1250,1.3750,0.1875,0.0359,-0.7426,0.0016,0.6688,
2025-03-09 23:07:32.303,9.7700,0.4200,-1.0500,0.0000,2.0625,0.4375,0.0359,-0.7425,0.0016,0.6689,
2025-03-09 23:07:32.315,9.7800,0.4300,-1.0100,-0.2500,2.3750,0.6250,0.0359,-0.7424,0.0016,0.6690,
2025-03-09 23:07:32.323,9.7600,0.4000,-1.0500,-0.5625,2.1875,0.8750,0.0359,-0.7423,0.0016,0.6691,
2025-03-09 23:07:32.333,9.8000,0.2600,-1.1300,-0.7500,2.0625,0.7500,0.0358,-0.7422,0.0016,0.6693,
2025-03-09 23:07:32.352,9.7900,0.3500,-1.0900,-0.6875,2.8125,-0.5000,0.0358,-0.7420,0.0016,0.6694,
2025-03-09 23:07:32.360,9.8000,0.4000,-1.0200,-0.6250,3.5000,-1.9375,0.0357,-0.7419,0.0016,0.6696,
2025-03-09 23:07:32.369,9.7700,0.5000,-0.9300,-0.7500,3.1875,-2.1250,0.0358,-0.7417,0.0015,0.6698,
2025-03-09 23:07:32.379,9.7700,0.5200,-0.8900,-0.8750,2.1875,-1.5000,0.0359,-0.7415,0.0013,0.6700,
2025-03-09 23:07:32.389,9.7800,0.4900,-0.8800,-1.0000,0.7500,-0.3750,0.0359,-0.7413,0.0012,0.6702,
2025-03-09 23:07:32.402,9.8000,0.4800,-0.8500,-1.1250,-1.1250,0.9375,0.0359,-0.7413,0.0012,0.6702,
2025-03-09 23:07:32.402,9.7800,0.3700,-0.9700,-1.2500,-3.5000,1.8750,0.0358,-0.7414,0.0011,0.6701,
2025-03-09 23:07:32.413,9.7700,0.3800,-1.0000,-1.6875,-5.3750,1.7500,0.0356,-0.7416,0.0012,0.6699,
2025-03-09 23:07:32.423,9.7700,0.4300,-0.9600,-1.2500,-6.3750,1.3125,0.0353,-0.7419,0.0011,0.6696,
2025-03-09 23:07:32.438,9.7700,0.3900,-1.0500,-1.1875,-7.3750,1.4375,0.0352,-0.7423,0.0011,0.6692,
2025-03-09 23:07:32.449,9.7800,0.3400,-1.1700,-1.5000,-8.1875,2.0625,0.0350,-0.7427,0.0011,0.6687,
2025-03-09 23:07:32.496,9.7800,0.3700,-1.1400,-2.3125,-7.9375,1.8125,0.0349,-0.7432,0.0011,0.6682,
2025-03-09 23:07:32.499,9.8000,0.3000,-1.1500,-1.7500,-7.3125,0.8750,0.0346,-0.7436,0.0010,0.6677,
2025-03-09 23:07:32.499,9.7800,0.2600,-1.2900,-0.3125,-6.6875,-0.2500,0.0344,-0.7440,0.0009,0.6673,
2025-03-09 23:07:32.499,9.8100,0.3700,-1.2400,0.7500,-5.1875,-1.8750,0.0344,-0.7444,0.0009,0.6669,
2025-03-09 23:07:32.499,9.8000,0.4900,-1.2300,1.5625,-2.9375,-3.3125,0.0346,-0.7447,0.0009,0.6665,
2025-03-09 23:07:32.501,9.7800,0.4300,-1.3000,3.2500,-1.3750,-2.8750,0.0349,-0.7449,0.0007,0.6663,
2025-03-09 23:07:32.523,9.8100,0.6500,-1.2400,6.0625,0.5625,-3.0625,0.0353,-0.7449,0.0008,0.6662,
2025-03-09 23:07:32.528,9.8800,0.7300,-1.1700,14.8750,3.5625,-4.1875,0.0358,-0.7449,0.0010,0.6662,
2025-03-09 23:07:32.534,10.4100,1.2700,-0.8900,20.1250,7.6250,-3.3750,0.0369,-0.7447,0.0017,0.6664,
2025-03-09 23:07:32.543,10.1800,1.3300,-0.7600,26.5625,23.2500,-13.5000,0.0383,-0.7443,0.0028,0.6668,
2025-03-09 23:07:32.555,10.3500,1.1800,-0.5500,34.4375,45.5000,-27.0000,0.0406,-0.7429,0.0038,0.6682,
2025-03-09 23:07:32.563,10.8100,1.2800,-0.4800,37.7500,70.1250,-36.4375,0.0442,-0.7402,0.0046,0.6709,
2025-03-09 23:07:32.579,11.4000,1.0900,-0.5400,29.5000,85.5000,-46.0000,0.0486,-0.7360,0.0051,0.6752,
2025-03-09 23:07:32.588,10.9500,0.9800,-0.3300,13.3125,87.0000,-54.9375,0.0531,-0.7309,0.0047,0.6803,
2025-03-09 23:07:32.600,11.0600,0.8700,-0.4600,-0.4375,91.3750,-47.5000,0.0573,-0.7257,0.0027,0.6857,
2025-03-09 23:07:32.609,10.9300,0.6900,-0.3900,-4.3125,105.0000,-35.8750,0.0601,-0.7201,0.0004,0.6912,
2025-03-09 23:07:32.621,10.4700,0.6100,-0.2400,-4.6875,119.1250,-28.5625,0.0621,-0.7138,-0.0014,0.6976,
2025-03-09 23:07:32.621,10.3100,0.7800,-0.0200,-3.4375,129.6250,-26.1250,0.0635,-0.7066,-0.0027,0.7048,
2025-03-09 23:07:32.643,10.2700,0.8800,0.2400,-8.6250,130.5625,-22.0625,0.0649,-0.6987,-0.0038,0.7125,
2025-03-09 23:07:32.649,10.5200,0.7600,0.1700,-10.3750,130.1250,-14.2500,0.0657,-0.6906,-0.0049,0.7202,
2025-03-09 23:07:32.660,10.8100,0.8000,0.5000,-11.6250,136.0000,-7.0625,0.0660,-0.6826,-0.0057,0.7278,
2025-03-09 23:07:32.672,10.7300,0.7400,0.7500,-12.7500,146.6250,-3.0000,0.0657,-0.6741,-0.0060,0.7357,
2025-03-09 23:07:32.684,10.7800,1.0700,1.0100,-13.0000,163.5000,-0.5625,0.0652,-0.6650,-0.0061,0.7440,
2025-03-09 23:07:32.690,10.2300,0.9700,1.6600,-16.6875,185.2500,0.5000,0.0644,-0.6546,-0.0060,0.7532,
2025-03-09 23:07:32.699,9.5800,0.5600,2.2800,-17.8125,209.1250,-0.6250,0.0634,-0.6428,-0.0059,0.7634,
2025-03-09 23:07:32.710,9.2700,0.7200,1.5200,-8.3750,247.2500,-0.5625,0.0624,-0.6291,-0.0057,0.7748,
2025-03-09 23:07:32.720,9.5800,0.6600,2.6100,-2.4375,278.6875,4.8750,0.0620,-0.6128,-0.0049,0.7878,
2025-03-09 23:07:32.742,8.2700,0.2400,2.9200,-0.0625,236.8125,24.3750,0.0609,-0.5761,-0.0012,0.8151,
2025-03-09 23:07:32.750,8.3800,0.4400,3.7600,-1.5625,222.0000,36.3750,0.0598,-0.5598,0.0016,0.8265,
2025-03-09 23:07:32.798,8.9200,1.2000,4.5600,0.8125,225.0625,44.8750,0.0579,-0.5444,0.0052,0.8368,
2025-03-09 23:07:32.813,8.5700,1.3900,5.1000,-5.0625,209.3750,47.5625,0.0558,-0.5286,0.0096,0.8470,
2025-03-09 23:07:32.813,8.3800,1.6000,5.6100,12.6875,204.3750,20.0625,0.0513,-0.4998,0.0171,0.8644,
2025-03-09 23:07:32.813,8.1700,1.5200,6.0800,5.5625,203.1875,13.4375,0.0511,-0.4849,0.0200,0.8728,
2025-03-09 23:07:32.821,7.8000,0.6000,6.2100,-8.0625,205.9375,15.1250,0.0489,-0.4557,0.0235,0.8885,
2025-03-09 23:07:32.831,7.7700,0.5100,6.9900,-25.7500,213.0625,24.7500,0.0447,-0.4243,0.0272,0.9040,
2025-03-09 23:07:32.862,7.2400,0.1300,7.0700,-23.7500,210.6875,13.3750,0.0377,-0.3924,0.0301,0.9185,
2025-03-09 23:07:32.888,5.9200,0.2300,7.2900,-26.4375,196.3125,14.4375,0.0324,-0.3594,0.0319,0.9321,
2025-03-09 23:07:32.898,6.4100,0.7200,8.7500,-18.9375,199.4375,21.9375,0.0262,-0.3289,0.0341,0.9434,
2025-03-09 23:07:32.919,5.7700,-0.2600,8.3500,-14.6250,177.6250,-1.2500,0.0210,-0.2981,0.0370,0.9536,
2025-03-09 23:07:32.942,3.6400,-0.2100,7.9800,-2.3125,188.8125,-19.6875,0.0188,-0.2681,0.0356,0.9626,
2025-03-09 23:07:32.963,4.0100,0.4000,8.8800,-5.7500,216.6250,-13.6250,0.0180,-0.2363,0.0327,0.9710,
2025-03-09 23:07:32.981,3.5800,0.0300,8.7500,-10.7500,185.1875,-6.8750,0.0161,-0.2014,0.0312,0.9789,
2025-03-09 23:07:32.996,3.3100,0.2400,9.4600,-11.6875,212.1250,-14.6250,0.0127,-0.1711,0.0305,0.9847,
2025-03-09 23:07:33.018,1.9300,-0.0200,8.7700,-11.6875,184.8750,-26.5625,0.0107,-0.1356,0.0273,0.9903,
2025-03-09 23:07:33.042,1.0900,-0.1800,9.4500,-20.0625,208.7500,-21.9375,0.0082,-0.1049,0.0225,0.9942,
2025-03-09 23:07:33.086,0.9900,0.0400,9.5000,-26.3125,157.6875,-11.8125,0.0035,-0.0703,0.0200,0.9973,
2025-03-09 23:07:33.086,0.6600,-0.3600,9.4300,5.3750,151.1875,-40.0000,0.0004,-0.0446,0.0164,0.9989,
2025-03-09 23:07:33.115,0.3300,-0.1800,9.1800,17.6250,155.4375,-46.6875,0.0021,-0.0188,0.0090,0.9998,
2025-03-09 23:07:33.115,-0.5500,-0.3900,9.0000,11.4375,132.7500,-47.0000,0.0046,0.0067,0.0014,1.0000,
2025-03-09 23:07:33.140,-0.6200,-0.5400,8.9900,13.3750,119.0625,-47.0625,0.0067,0.0287,-0.0065,0.9995,
2025-03-09 23:07:33.160,-0.8600,-0.6800,9.0300,15.0625,105.0625,-42.0625,0.0089,0.0482,-0.0143,0.9987,
2025-03-09 23:07:33.172,-1.6600,-0.2500,8.9000,21.0625,88.3750,-35.0000,0.0115,0.0652,-0.0210,0.9976,
2025-03-09 23:07:33.191,-1.9300,0.2000,8.8700,21.3125,66.1875,-28.9375,0.0152,0.0793,-0.0267,0.9964,
2025-03-09 23:07:33.223,-1.7000,-0.0500,9.1100,17.5625,34.7500,-29.9375,0.0186,0.0890,-0.0317,0.9953,
2025-03-09 23:07:33.244,-1.6100,-0.2600,9.0700,3.3750,17.6250,-21.5625,0.0206,0.0941,-0.0366,0.9947,
2025-03-09 23:07:33.258,-1.2900,-0.4200,9.2300,-3.1250,-2.3125,-10.1875,0.0206,0.0964,-0.0397,0.9943,
2025-03-09 23:07:33.279,-1.0700,-0.3300,9.5500,-8.3125,-12.2500,2.5000,0.0197,0.0955,-0.0407,0.9944,
2025-03-09 23:07:33.295,-1.4500,-0.1100,9.2900,-4.8750,-16.9375,4.9375,0.0184,0.0933,-0.0402,0.9947,
2025-03-09 23:07:33.316,-1.2700,0.0500,9.7400,-6.3125,-27.0625,7.6250,0.0175,0.0900,-0.0391,0.9950,
2025-03-09 23:07:33.340,-1.2200,0.2600,9.8800,-4.6250,-25.8125,4.0625,0.0164,0.0854,-0.0379,0.9955,
2025-03-09 23:07:33.394,-0.6900,0.1200,10.3700,-5.3125,-24.6250,2.0000,0.0154,0.0811,-0.0372,0.9959,
2025-03-09 23:07:33.394,-0.8600,0.1400,10.2300,2.8125,-11.2500,-4.5000,0.0148,0.0775,-0.0373,0.9962,
2025-03-09 23:07:33.399,-1.1200,0.1900,9.9800,3.3125,-6.3750,-4.6250,0.0150,0.0765,-0.0377,0.9962,
2025-03-09 23:07:33.411,-1.2100,0.1800,9.8400,3.8750,-6.7500,-2.8750,0.0156,0.0756,-0.0386,0.9963,
2025-03-09 23:07:33.425,-1.2500,0.2400,9.8000,4.3750,-9.5625,-0.1875,0.0160,0.0743,-0.0389,0.9964,
2025-03-09 23:07:33.455,-1.1000,0.0000,9.6400,3.8125,-8.6875,-2.2500,0.0168,0.0726,-0.0391,0.9965,
2025-03-09 23:07:33.471,-1.0000,-0.0100,9.6600,1.8750,-11.4375,0.0000,0.0169,0.0707,-0.0395,0.9966,
2025-03-09 23:07:33.490,-0.9400,0.0300,9.5700,4.5000,-16.3750,0.8125,0.0167,0.0682,-0.0395,0.9968,
2025-03-09 23:07:33.514,-0.7700,-0.0700,9.6000,8.3750,-22.8750,0.3750,0.0170,0.0646,-0.0395,0.9970,
2025-03-09 23:07:33.524,-0.8000,-0.2100,9.3400,11.0000,-24.8750,0.4375,0.0176,0.0598,-0.0397,0.9973,
2025-03-09 23:07:33.544,-1.3800,-0.2600,8.4400,13.3750,-46.5625,6.2500,0.0195,0.0538,-0.0393,0.9976,
2025-03-09 23:07:33.571,-1.4200,-0.2800,8.0200,18.6250,-88.4375,11.3750,0.0217,0.0443,-0.0383,0.9980,
2025-03-09 23:07:33.591,-0.7300,-0.1700,8.0200,19.8125,-150.0000,18.4375,0.0243,0.0240,-0.0364,0.9988,
2025-03-09 23:07:33.611,1.8600,0.2200,9.9100,8.9375,-195.3125,38.1250,0.0262,-0.0050,-0.0330,0.9991,
2025-03-09 23:07:33.634,2.2600,0.3400,10.2600,8.9375,-195.3125,38.1250,0.0266,-0.0381,-0.0273,0.9985,
2025-03-09 23:07:33.649,2.3000,0.5500,9.6800,34.8125,-194.1875,12.3750,0.0281,-0.0692,-0.0227,0.9970,
2025-03-09 23:07:33.687,2.1400,0.5800,8.6200,51.8125,-231.6250,-7.6250,0.0343,-0.1036,-0.0223,0.9938,
2025-03-09 23:07:33.699,2.6600,-0.1900,8.2600,13.6875,-248.1250,33.5625,0.0405,-0.1433,-0.0228,0.9886,
2025-03-09 23:07:33.711,4.2800,0.4200,8.8600,-0.8750,-274.5625,61.3125,0.0397,-0.1860,-0.0175,0.9816,
2025-03-09 23:07:33.729,5.5500,1.1600,9.0400,0.2500,-289.5000,67.0000,0.0368,-0.2330,-0.0087,0.9717,
2025-03-09 23:07:33.751,5.4700,1.0400,8.5500,2.0625,-289.1875,80.1875,0.0344,-0.2827,0.0008,0.9586,
2025-03-09 23:07:33.771,6.0900,0.7700,7.3500,-5.6250,-294.5625,87.9375,0.0303,-0.3294,0.0125,0.9436,
2025-03-09 23:07:33.793,5.7000,0.6200,6.4600,-16.8125,-334.5625,70.7500,0.0248,-0.3782,0.0240,0.9251,
2025-03-09 23:07:33.814,7.8400,-0.1300,5.2500,11.8750,-324.5625,68.6250,0.0201,-0.4299,0.0329,0.9020,
2025-03-09 23:07:33.829,6.9500,-0.2900,4.9800,4.2500,-323.1250,51.3125,0.0188,-0.4788,0.0415,0.8768,
2025-03-09 23:07:33.851,8.9000,0.3500,4.3200,-8.3750,-273.0625,20.5625,0.0202,-0.5237,0.0483,0.8503,
2025-03-09 23:07:33.874,11.1400,0.6700,3.4900,-2.6250,-208.1875,20.6875,0.0195,-0.5616,0.0500,0.8257,
2025-03-09 23:07:33.884,10.5000,0.9900,3.6400,-23.4375,-180.9375,-28.0000,0.0198,-0.5886,0.0502,0.8066,
2025-03-09 23:07:33.904,11.5600,0.5600,2.3100,-15.6875,-158.6875,-32.8750,0.0215,-0.6115,0.0435,0.7897,
2025-03-09 23:07:33.931,9.3300,0.0000,2.2700,-0.3125,-131.2500,-58.0625,0.0283,-0.6282,0.0356,0.7767,
2025-03-09 23:07:33.942,9.8100,0.0200,1.3100,-23.6875,-144.8125,-44.5000,0.0294,-0.6372,0.0308,0.7695,
2025-03-09 23:07:33.989,11.1800,-0.5000,0.9100,5.0000,-111.6875,-28.5625,0.0331,-0.6544,0.0237,0.7551,
2025-03-09 23:07:33.989,10.5500,0.4300,0.7200,2.8750,-109.6250,-11.4375,0.0363,-0.6683,0.0209,0.7427,
2025-03-09 23:07:34.006,10.4400,0.3900,0.7900,8.3750,-94.3750,-1.3125,0.0370,-0.6741,0.0211,0.7374,
2025-03-09 23:07:34.011,10.5800,0.6200,0.7300,3.5000,-70.4375,20.0625,0.0364,-0.6834,0.0231,0.7288,
2025-03-09 23:07:34.019,9.9000,0.4800,0.6300,-10.8125,-55.3750,-5.0000,0.0354,-0.6906,0.0226,0.7220,
2025-03-09 23:07:34.040,9.7600,0.6300,0.3300,-20.6250,-51.0000,-15.6875,0.0352,-0.6937,0.0203,0.7191,
2025-03-09 23:07:34.063,9.7100,0.1900,-0.0400,-7.8125,-39.0000,-14.3125,0.0360,-0.6985,0.0175,0.7145,
2025-03-09 23:07:34.078,9.2200,-0.2200,-0.5400,-8.7500,-41.5625,-6.4375,0.0361,-0.7032,0.0150,0.7099,
2025-03-09 23:07:34.086,9.4100,-0.2500,-0.4500,-10.0000,-43.2500,-6.0000,0.0359,-0.7058,0.0139,0.7073,
2025-03-09 23:07:34.115,23.6400,0.8700,-1.9400,-38.1250,-35.0625,-27.4375,0.0346,-0.7110,0.0070,0.7023,
2025-03-09 23:07:34.129,9.8300,0.4100,-0.6400,14.5625,4.1875,-10.4375,0.0363,-0.7101,0.0036,0.7032,
2025-03-09 23:07:34.138,9.6700,0.9600,-0.1300,13.2500,3.5000,-6.1875,0.0375,-0.7099,0.0040,0.7033,
2025-03-09 23:07:34.161,9.7800,0.5500,-0.3400,1.4375,-10.9375,-9.2500,0.0385,-0.7105,0.0035,0.7026,
2025-03-09 23:07:34.178,9.7000,0.6100,-0.2200,9.8125,-14.6250,-3.2500,0.0402,-0.7121,0.0038,0.7009,
2025-03-09 23:07:34.184,9.9100,0.6200,-0.1000,8.3125,-17.0625,-0.0625,0.0407,-0.7131,0.0043,0.6999,
2025-03-09 23:07:34.204,9.8000,0.5600,-0.1200,5.2500,-14.1250,4.6250,0.0409,-0.7148,0.0053,0.6981,
2025-03-09 23:07:34.219,9.7800,0.4600,-0.2900,2.6875,-14.3125,5.6875,0.0407,-0.7156,0.0057,0.6973,
2025-03-09 23:07:34.241,9.8400,0.2700,-0.7100,-1.1875,-12.6875,1.3125,0.0403,-0.7173,0.0059,0.6956,
2025-03-09 23:07:34.271,9.8400,0.4800,-0.6900,-4.6250,-11.0625,-2.5000,0.0402,-0.7186,0.0052,0.6942,
2025-03-09 23:07:34.303,9.8100,0.5400,-0.7600,-9.4375,-9.1875,-4.3125,0.0395,-0.7198,0.0035,0.6931,
2025-03-09 23:07:34.303,9.8100,0.5800,-0.6600,-1.6875,-6.0625,-3.0000,0.0396,-0.7201,0.0032,0.6927,
2025-03-09 23:07:34.303,9.8300,0.4700,-0.9600,-1.7500,-7.4375,0.0000,0.0395,-0.7213,0.0027,0.6915,
2025-03-09 23:07:34.325,9.7600,0.6400,-0.4400,2.5625,-4.7500,0.7500,0.0396,-0.7216,0.0028,0.6912,
2025-03-09 23:07:34.340,9.8800,0.3000,-1.2700,-16.5625,-15.2500,1.8125,0.0387,-0.7229,0.0022,0.6898,
2025-03-09 23:07:34.360,9.7600,0.6800,-0.3400,6.5000,-1.0000,-2.3750,0.0391,-0.7234,0.0023,0.6893,
2025-03-09 23:07:34.373,9.8900,0.2000,-1.3900,-10.1250,-8.9375,-2.8125,0.0391,-0.7244,0.0018,0.6883,
2025-03-09 23:07:34.393,9.8600,0.1800,-1.5200,-1.5000,-1.8125,-5.6250,0.0392,-0.7250,0.0016,0.6877,
2025-03-09 23:07:34.400,9.7900,0.7300,-0.6900,-1.2500,2.3750,-7.9375,0.0396,-0.7250,0.0010,0.6876,
2025-03-09 23:07:34.415,9.8000,0.5800,-0.8300,-2.3125,3.4375,-7.0625,0.0401,-0.7247,0.0000,0.6879,
2025-03-09 23:07:34.437,9.7800,0.6100,-0.8500,-1.8125,3.6250,-3.8750,0.0405,-0.7242,-0.0008,0.6884,
2025-03-09 23:07:34.460,9.7800,0.7200,-0.6800,-2.6250,4.9375,-1.7500,0.0405,-0.7236,-0.0013,0.6890,
2025-03-09 23:07:34.478,9.8100,0.6500,-0.6500,-2.5625,4.2500,0.8750,0.0402,-0.7232,-0.0016,0.6895,
2025-03-09 23:07:34.481,9.7900,0.6500,-0.5900,-2.6875,3.8750,1.4375,0.0399,-0.7230,-0.0017,0.6897,
2025-03-09 23:07:34.497,9.7900,0.6600,-0.6100,-2.3125,2.7500,2.3750,0.0397,-0.7229,-0.0017,0.6898,
2025-03-09 23:07:34.503,9.7800,0.6800,-0.5600,-5.2500,0.8750,3.5000,0.0392,-0.7229,-0.0018,0.6899,
2025-03-09 23:07:34.514,9.7800,0.6800,-0.5200,-9.5625,-1.4375,4.6250,0.0384,-0.7230,-0.0022,0.6898,
2025-03-09 23:07:34.525,9.8000,0.6900,-0.5400,-7.1875,-3.1250,6.3125,0.0376,-0.7232,-0.0023,0.6896,
2025-03-09 23:07:34.535,9.7900,0.6400,-0.5600,-4.9375,-4.6250,8.1875,0.0368,-0.7235,-0.0022,0.6893,
2025-03-09 23:07:34.548,9.8500,0.3600,-0.8300,-2.8125,-5.2500,8.7500,0.0361,-0.7239,-0.0019,0.6890,
2025-03-09 23:07:34.591,9.8300,0.3100,-0.9100,-1.0000,-3.9375,7.2500,0.0356,-0.7242,-0.0015,0.6886,
2025-03-09 23:07:34.591,9.8200,0.3900,-0.8200,0.9375,0.1875,1.1250,0.0353,-0.7244,-0.0011,0.6885,
2025-03-09 23:07:34.591,9.7900,0.4800,-0.6800,0.7500,1.5625,-1.4375,0.0355,-0.7243,-0.0012,0.6886,
2025-03-09 23:07:34.600,9.7900,0.5800,-0.7100,0.3750,1.3125,-1.8750,0.0357,-0.7241,-0.0014,0.6887,
2025-03-09 23:07:34.610,9.7800,0.6600,-0.6400,0.3125,0.3750,-0.8125,0.0358,-0.7242,-0.0015,0.6887,
2025-03-09 23:07:34.628,9.7900,0.5700,-0.7700,0.2500,-0.5625,1.0000,0.0358,-0.7243,-0.0014,0.6886,
2025-03-09 23:07:34.639,9.7900,0.5800,-0.6800,0.1875,-0.2500,1.8750,0.0356,-0.7243,-0.0013,0.6886,
2025-03-09 23:07:34.646,9.8000,0.5700,-0.7100,-0.0625,-1.1250,3.2500,0.0355,-0.7244,-0.0012,0.6885,
2025-03-09 23:07:34.657,9.8200,0.3600,-0.8300,-0.1875,-2.3750,4.6875,0.0352,-0.7246,-0.0009,0.6882,
2025-03-09 23:07:34.667,9.8400,0.3900,-0.7900,-0.6250,-1.6250,3.6250,0.0349,-0.7248,-0.0007,0.6881,
2025-03-09 23:07:34.678,9.8200,0.3200,-0.8100,-0.4375,-0.9375,2.1250,0.0348,-0.7249,-0.0005,0.6879,
2025-03-09 23:07:34.688,9.8000,0.4400,-0.8200,-0.2500,0.5000,0.2500,0.0347,-0.7250,-0.0005,0.6879,
2025-03-09 23:07:34.698,9.7800,0.5100,-0.7700,0.0625,2.0625,-0.8750,0.0348,-0.7250,-0.0005,0.6879,
2025-03-09 23:07:34.708,9.7800,0.5900,-0.6800,-0.1250,2.3125,-0.4375,0.0348,-0.7249,-0.0006,0.6880,
2025-03-09 23:07:34.718,9.8200,0.4800,-0.8000,-0.1875,1.9375,0.3125,0.0349,-0.7248,-0.0006,0.6880,
2025-03-09 23:07:34.728,9.8400,0.5000,-0.7200,-0.0625,2.6875,0.7500,0.0348,-0.7247,-0.0005,0.6882,
2025-03-09 23:07:34.739,9.7900,0.5200,-0.6700,0.2500,3.0000,1.0000,0.0347,-0.7246,-0.0005,0.6883,
2025-03-09 23:07:34.745,9.7800,0.5000,-0.6800,0.1250,2.6250,1.3125,0.0347,-0.7245,-0.0004,0.6884,
2025-03-09 23:07:34.754,9.7800,0.6000,-0.5000,-0.2500,1.4375,1.5625,0.0346,-0.7244,-0.0003,0.6885,
2025-03-09 23:07:34.777,9.8000,0.4900,-0.6600,-0.6875,-1.0625,2.7500,0.0344,-0.7245,-0.0002,0.6884,
2025-03-09 23:07:34.777,9.8000,0.5300,-0.6400,-1.1250,-2.6250,3.2500,0.0341,-0.7247,-0.0001,0.6882,
2025-03-09 23:07:34.788,9.8000,0.4600,-0.6600,-1.1875,-3.5000,3.5000,0.0338,-0.7249,0.0000,0.6880,
2025-03-09 23:07:34.798,9.7900,0.4100,-0.8000,-1.0625,-3.8125,3.6875,0.0336,-0.7252,0.0001,0.6877,
2025-03-09 23:07:34.807,9.7900,0.4900,-0.7400,-0.8125,-3.1250,3.5000,0.0333,-0.7254,0.0003,0.6875,
2025-03-09 23:07:34.811,9.7800,0.5300,-0.6700,-1.0625,-3.1875,3.4375,0.0330,-0.7257,0.0004,0.6873,
2025-03-09 23:07:34.823,9.8000,0.4400,-0.7600,-1.1250,-3.6875,4.2500,0.0327,-0.7259,0.0005,0.6870,
2025-03-09 23:07:34.834,9.8200,0.4300,-0.8300,-1.0625,-3.3750,4.3125,0.0324,-0.7262,0.0007,0.6867,
2025-03-09 23:07:34.843,9.8200,0.3900,-0.8800,0.1250,-2.3125,4.1875,0.0322,-0.7264,0.0010,0.6865,
2025-03-09 23:07:34.893,9.8100,0.4500,-0.8100,1.0000,-0.5625,3.8750,0.0320,-0.7265,0.0012,0.6864,
2025-03-09 23:07:34.893,9.8000,0.6500,-0.6300,1.3750,-0.3750,5.0000,0.0318,-0.7265,0.0016,0.6864,
2025-03-09 23:07:34.893,9.8100,0.6600,-0.6200,1.9375,-1.8125,7.8750,0.0315,-0.7267,0.0021,0.6862,
2025-03-09 23:07:34.893,9.7900,0.5000,-0.7200,2.0625,-3.3750,11.2500,0.0309,-0.7269,0.0028,0.6860,
2025-03-09 23:07:34.897,9.8300,0.3200,-0.8300,2.0000,-4.0625,12.8750,0.0303,-0.7273,0.0037,0.6857,
2025-03-09 23:07:34.907,9.8300,0.2700,-0.8800,4.5625,-3.9375,13.4375,0.0297,-0.7276,0.0047,0.6854,
2025-03-09 23:07:34.919,9.8400,0.2700,-0.7900,9.2500,-2.5625,13.1250,0.0295,-0.7277,0.0060,0.6852,
2025-03-09 23:07:34.928,9.7700,0.2200,-0.7900,9.0000,-1.9375,12.6250,0.0292,-0.7279,0.0073,0.6850,
2025-03-09 23:07:34.941,9.7800,0.0400,-0.9200,9.5000,0.1250,10.7500,0.0292,-0.7279,0.0073,0.6850,
2025-03-09 23:07:34.949,9.8100,0.2900,-0.9000,8.3750,6.5000,8.3125,0.0291,-0.7279,0.0085,0.6850,
2025-03-09 23:07:34.959,9.8300,0.4200,-0.9100,6.7500,8.1250,7.6250,0.0291,-0.7275,0.0095,0.6854,
2025-03-09 23:07:34.969,10.0800,0.3300,-0.1200,4.2500,10.8125,9.5000,0.0290,-0.7271,0.0104,0.6858,
2025-03-09 23:07:34.984,9.9900,0.8100,-0.5900,4.6250,32.8125,14.6250,0.0286,-0.7265,0.0112,0.6865,
2025-03-09 23:07:34.988,10.0800,1.0000,0.4400,-1.4375,49.8750,19.5000,0.0280,-0.7246,0.0125,0.6885,
2025-03-09 23:07:34.999,9.8800,0.6400,0.0100,-9.0000,66.4375,34.3750,0.0267,-0.7217,0.0136,0.6915,
2025-03-09 23:07:35.009,9.7800,0.4900,0.7700,-13.0000,84.4375,48.1875,0.0239,-0.7179,0.0153,0.6955,
2025-03-09 23:07:35.018,10.9100,0.2700,0.1500,-17.2500,92.8750,53.3750,0.0201,-0.7131,0.0175,0.7006,
2025-03-09 23:07:35.028,10.1300,-0.3900,0.3700,-9.0625,93.9375,57.5625,0.0157,-0.7076,0.0197,0.7061,
2025-03-09 23:07:35.039,6.4300,-1.8100,-0.6400,-6.8125,100.1875,65.6875,0.0117,-0.7021,0.0228,0.7116,
2025-03-09 23:07:35.049,13.3500,-0.5800,0.2900,-15.6250,85.0625,92.2500,0.0071,-0.6961,0.0264,0.7174,
2025-03-09 23:07:35.059,7.9600,-1.9200,1.4800,30.8125,66.5000,84.3750,0.0005,-0.6910,0.0311,0.7222,
2025-03-09 23:07:35.069,11.3400,-2.3000,0.2400,36.9375,102.7500,115.6250,-0.0026,-0.6869,0.0381,0.7258,
2025-03-09 23:07:35.075,12.2100,-1.1000,1.1600,18.5625,113.5625,127.9375,-0.0074,-0.6804,0.0472,0.7313,
2025-03-09 23:07:35.085,13.2800,-0.4000,0.9000,12.8750,106.4375,132.0000,-0.0141,-0.6731,0.0562,0.7373,
2025-03-09 23:07:35.096,14.1000,0.7100,1.0200,11.8750,99.0625,90.6250,-0.0213,-0.6662,0.0650,0.7426,
2025-03-09 23:07:35.106,9.9900,0.1600,1.7300,22.8125,95.0000,19.7500,-0.0262,-0.6597,0.0712,0.7477,
2025-03-09 23:07:35.120,9.7500,-0.3900,1.9900,44.3125,90.3750,-29.9375,-0.0264,-0.6535,0.0735,0.7529,
2025-03-09 23:07:35.128,9.9300,-0.9000,2.0100,56.6250,101.8125,-50.6250,-0.0225,-0.6475,0.0738,0.7581,
2025-03-09 23:07:35.141,9.9100,-1.0800,1.8500,55.1875,112.3125,-52.0000,-0.0167,-0.6407,0.0735,0.7641,
2025-03-09 23:07:35.141,9.6000,-1.6200,1.4700,54.0000,115.4375,-49.0000,-0.0110,-0.6331,0.0729,0.7705,
2025-03-09 23:07:35.197,9.5100,-1.5500,1.4500,63.1875,117.6875,-51.3125,-0.0056,-0.6253,0.0725,0.7770,
2025-03-09 23:07:35.197,9.3600,-1.6200,1.6200,67.4375,110.3750,-50.1250,0.0005,-0.6172,0.0724,0.7835,
2025-03-09 23:07:35.197,9.0200,-1.7600,1.7900,65.9375,101.1875,-36.1250,0.0069,-0.6094,0.0726,0.7895,
2025-03-09 23:07:35.197,8.9800,-1.4200,2.3300,59.1250,97.0625,-15.1875,0.0126,-0.6022,0.0737,0.7949,
2025-03-09 23:07:35.199,9.3600,-1.1300,2.5000,51.4375,93.0625,6.3750,0.0167,-0.5953,0.0757,0.7998,
2025-03-09 23:07:35.208,9.4500,-1.0700,2.7100,43.1875,88.2500,17.1875,0.0192,-0.5886,0.0789,0.8043,
2025-03-09 23:07:35.219,9.4100,-0.7000,2.9200,37.2500,87.9375,11.6875,0.0208,-0.5824,0.0823,0.8085,
2025-03-09 23:07:35.228,9.5900,-0.6300,2.9800,36.5000,90.0625,-4.9375,0.0221,-0.5761,0.0851,0.8126,
2025-03-09 23:07:35.239,9.6800,-0.8200,3.0300,37.5625,89.8750,-20.4375,0.0242,-0.5696,0.0867,0.8170,
2025-03-09 23:07:35.255,9.3500,-0.3300,4.6900,34.1875,90.3125,-25.0625,0.0271,-0.5630,0.0873,0.8213,
2025-03-09 23:07:35.261,8.5400,-0.2100,4.0200,12.5625,116.1250,-19.0625,0.0300,-0.5564,0.0874,0.8257,
2025-03-09 23:07:35.271,9.2300,0.4500,3.8200,6.4375,168.6250,-44.9375,0.0309,-0.5482,0.0870,0.8312,
2025-03-09 23:07:35.276,9.7400,-0.1500,3.8100,19.1875,178.8750,-64.5625,0.0322,-0.5361,0.0845,0.8393,
2025-03-09 23:07:35.289,9.6200,-0.3000,4.7700,26.1875,172.0000,-69.7500,0.0352,-0.5231,0.0813,0.8477,
2025-03-09 23:07:35.293,7.8700,-2.7600,3.9900,25.8125,177.7500,-67.5625,0.0390,-0.5103,0.0780,0.8556,
2025-03-09 23:07:35.304,7.4600,-0.9600,6.4500,22.0625,218.1250,-51.8125,0.0426,-0.4970,0.0748,0.8635,
2025-03-09 23:07:35.321,8.4200,-0.1600,6.4200,37.8125,268.5000,-1.1875,0.0450,-0.4806,0.0727,0.8727,
2025-03-09 23:07:35.329,7.5000,0.6000,6.1100,30.6250,303.3125,15.6875,0.0462,-0.4605,0.0751,0.8833,
2025-03-09 23:07:35.339,7.0500,0.0600,6.1300,36.8750,323.4375,7.1875,0.0459,-0.4376,0.0787,0.8945,
2025-03-09 23:07:35.350,6.7800,-0.4900,5.8100,32.7500,341.0000,-3.6250,0.0463,-0.4128,0.0818,0.9060,
2025-03-09 23:07:35.359,6.2600,0.2200,6.2200,13.6875,330.5625,2.2500,0.0466,-0.3863,0.0840,0.9174,
2025-03-09 23:07:35.369,6.3600,0.6100,6.9400,1.8125,297.4375,12.9375,0.0452,-0.3605,0.0859,0.9277,
2025-03-09 23:07:35.375,7.4000,0.5800,7.1400,7.3125,267.5625,14.3125,0.0427,-0.3371,0.0880,0.9364,
2025-03-09 23:07:35.389,7.7500,0.2600,7.2500,11.6875,237.3125,-1.9375,0.0409,-0.3159,0.0903,0.9436,
2025-03-09 23:07:35.399,5.9400,-0.0100,7.7300,19.3125,204.9375,-13.2500,0.0401,-0.2968,0.0913,0.9497,
2025-03-09 23:07:35.405,4.5900,0.6600,8.0800,23.4375,187.5000,-19.4375,0.0404,-0.2801,0.0914,0.9548,
2025-03-09 23:07:35.415,4.6000,0.4100,8.6600,25.5000,191.4375,-21.0625,0.0413,-0.2646,0.0910,0.9592,
2025-03-09 23:07:35.425,3.9400,0.4700,8.9800,22.0000,209.1875,-15.1250,0.0424,-0.2488,0.0905,0.9634,
2025-03-09 23:07:35.435,5.0900,-0.0600,8.9100,10.1250,235.6875,-7.3750,0.0428,-0.2316,0.0905,0.9677,
2025-03-09 23:07:35.450,4.7700,0.3400,9.2200,-1.6250,251.1250,1.2500,0.0420,-0.2122,0.0909,0.9721,
2025-03-09 23:07:35.489,3.8200,0.6200,9.3500,-2.1250,242.8125,16.8125,0.0399,-0.1915,0.0919,0.9764,
2025-03-09 23:07:35.499,3.5700,0.9800,10.0200,2.3125,235.9375,24.1250,0.0376,-0.1715,0.0940,0.9800,
2025-03-09 23:07:35.499,3.9100,0.8500,10.3200,6.5000,254.2500,6.0000,0.0355,-0.1520,0.0967,0.9830,
2025-03-09 23:07:35.499,3.9500,0.5300,10.3600,21.6250,268.3125,-11.5000,0.0339,-0.1309,0.0981,0.9860,
2025-03-09 23:07:35.499,3.8800,-0.3700,9.8800,39.3750,269.8125,-25.5000,0.0336,-0.1083,0.0981,0.9887,
2025-03-09 23:07:35.504,0.7900,0.0000,8.5200,55.6250,260.8750,-21.5000,0.0349,-0.0853,0.0970,0.9910,
2025-03-09 23:07:35.514,-0.3000,0.6800,8.2000,56.9375,248.8125,-5.9375,0.0376,-0.0629,0.0964,0.9926,
2025-03-09 23:07:35.528,-0.5800,1.2200,8.6100,43.8125,244.0625,-2.9375,0.0403,-0.0416,0.0970,0.9936,
2025-03-09 23:07:35.539,-0.1800,1.1800,8.8800,34.0625,242.3125,-9.8750,0.0420,-0.0207,0.0977,0.9941,
2025-03-09 23:07:35.549,0.2400,0.6700,9.1300,19.8750,231.5625,-13.3125,0.0429,-0.0001,0.0978,0.9943,
2025-03-09 23:07:35.559,0.5500,0.5000,9.5800,16.3125,211.6875,-14.0625,0.0427,0.0196,0.0975,0.9941,
2025-03-09 23:07:35.569,-0.0500,0.6500,9.7100,18.9375,186.5000,-14.3125,0.0422,0.0376,0.0970,0.9937,
2025-03-09 23:07:35.575,-0.5000,0.8200,10.5400,25.6250,168.0625,-10.3125,0.0422,0.0534,0.0964,0.9930,
2025-03-09 23:07:35.594,-1.6600,0.4700,9.5900,45.1250,194.6250,-9.2500,0.0447,0.0824,0.0958,0.9910,
2025-03-09 23:07:35.602,-2.3800,-0.3000,8.5800,32.0000,231.8125,-0.6250,0.0469,0.0991,0.0954,0.9894,
2025-03-09 23:07:35.619,-2.7600,0.2300,8.3300,12.8125,264.6250,23.7500,0.0477,0.1187,0.0960,0.9871,
2025-03-09 23:07:35.629,-3.1700,1.1200,8.4400,2.9375,278.0000,48.3125,0.0468,0.1407,0.0989,0.9840,
2025-03-09 23:07:35.660,-3.7200,2.6400,8.4300,25.4375,222.4375,25.5625,0.0444,0.1853,0.1088,0.9756,
2025-03-09 23:07:35.660,-3.9300,2.3500,8.1000,50.8750,175.3125,-3.6250,0.0449,0.2037,0.1113,0.9716,
2025-03-09 23:07:35.678,-4.5600,2.1700,8.3300,59.5000,137.1250,-33.3750,0.0473,0.2186,0.1108,0.9684,
2025-03-09 23:07:35.678,-4.5000,0.9800,8.3500,58.7500,121.6875,-48.3750,0.0503,0.2305,0.1075,0.9658,
2025-03-09 23:07:35.698,-4.9700,0.6800,7.9300,32.5000,133.3750,-41.5625,0.0552,0.2521,0.0983,0.9611,
2025-03-09 23:07:35.709,-4.8100,0.7700,8.7700,4.6250,148.8750,-23.7500,0.0559,0.2634,0.0948,0.9584,
2025-03-09 23:07:35.719,-5.0400,1.1400,8.9300,-7.6250,171.6875,-10.3750,0.0546,0.2756,0.0934,0.9552,
2025-03-09 23:07:35.735,-5.2500,1.0300,8.9200,-31.9375,236.1250,1.7500,0.0489,0.3053,0.0945,0.9463,
2025-03-09 23:07:35.787,-5.8700,0.7800,6.3400,-27.4375,266.6875,11.0625,0.0401,0.3447,0.0991,0.9326,
2025-03-09 23:07:35.787,-6.8100,1.5500,6.1300,-0.5000,171.8750,19.3125,0.0323,0.3829,0.1046,0.9173,
2025-03-09 23:07:35.801,-7.2500,1.4000,6.7600,19.3750,118.2500,-11.8750,0.0316,0.4061,0.1065,0.9070,
2025-03-09 23:07:35.820,-7.0300,1.1800,7.3700,-4.3125,146.1875,-14.4375,0.0305,0.4252,0.1040,0.8986,
2025-03-09 23:07:35.834,-7.4600,0.5100,5.4100,-10.7500,171.1250,-8.7500,0.0261,0.4484,0.1031,0.8875,
2025-03-09 23:07:35.854,-7.7700,0.5800,4.8400,-10.5625,160.7500,-2.1250,0.0208,0.4738,0.1039,0.8743,
2025-03-09 23:07:35.886,-8.0900,0.7000,4.4800,29.0625,110.0625,-4.3125,0.0182,0.4954,0.1038,0.8622,
2025-03-09 23:07:35.900,-8.0300,0.9800,4.9000,28.8750,86.3750,-3.9375,0.0204,0.5107,0.1011,0.8535,
2025-03-09 23:07:35.920,-8.2000,1.1600,4.5800,24.8125,88.1875,-7.8125,0.0224,0.5236,0.0982,0.8460,
2025-03-09 23:07:35.940,-8.4200,1.0200,3.5000,29.1875,72.3750,-11.2500,0.0240,0.5364,0.0950,0.8383,
2025-03-09 23:07:35.959,-8.3500,0.6300,3.6100,27.1875,38.8750,-11.8750,0.0259,0.5458,0.0910,0.8325,
2025-03-09 23:07:35.977,-8.5500,0.9600,3.7900,17.5000,29.1250,-6.5000,0.0279,0.5513,0.0873,0.8293,
2025-03-09 23:07:35.997,-8.6400,1.1000,3.8100,14.1875,16.1875,-5.7500,0.0293,0.5552,0.0851,0.8268,
2025-03-09 23:07:36.020,-8.6300,1.0000,4.1500,22.5625,-1.0625,-8.5000,0.0303,0.5568,0.0825,0.8260,
2025-03-09 23:07:36.032,-8.4700,0.8700,4.0300,32.7500,-12.3125,-11.2500,0.0329,0.5563,0.0786,0.8266,
2025-03-09 23:07:36.099,-8.5300,0.9200,3.8300,18.3125,-15.3125,-8.1875,0.0360,0.5550,0.0744,0.8277,
2025-03-09 23:07:36.099,-8.4400,1.0100,3.8000,2.3750,-29.5625,-7.5000,0.0376,0.5526,0.0718,0.8295,
2025-03-09 23:07:36.099,-8.3200,0.8200,4.0600,-9.8750,-47.1250,-10.0000,0.0371,0.5478,0.0707,0.8328,
2025-03-09 23:07:36.124,-8.2000,0.6800,3.9700,-13.5000,-64.6250,-10.1875,0.0349,0.5404,0.0698,0.8378,
2025-03-09 23:07:36.140,-7.9200,0.7500,4.0300,-12.7500,-90.0625,-8.8125,0.0325,0.5304,0.0690,0.8443,
2025-03-09 23:07:36.154,-7.8600,0.6900,4.2900,-8.9375,-108.9375,-8.8125,0.0317,0.5239,0.0687,0.8484,
2025-03-09 23:07:36.164,-7.8300,0.7800,4.4300,6.8750,-145.6250,-7.5000,0.0315,0.5068,0.0673,0.8589,
2025-03-09 23:07:36.184,-7.3900,0.7900,4.0800,8.0000,-180.1875,-8.1250,0.0341,0.4844,0.0645,0.8718,
2025-03-09 23:07:36.214,-7.2100,1.1700,5.4900,-51.1875,-211.0625,-3.8125,0.0346,0.4565,0.0625,0.8869,
2025-03-09 23:07:36.230,-6.2700,1.0800,7.1500,-76.6250,-239.3125,-7.7500,0.0277,0.4228,0.0652,0.9034,
2025-03-09 23:07:36.242,-5.3200,-0.0900,7.3400,-70.9375,-273.6875,4.2500,0.0184,0.3838,0.0684,0.9207,
2025-03-09 23:07:36.274,-4.6400,-0.2000,7.5700,-68.6250,-290.6250,10.9375,0.0112,0.3390,0.0731,0.9379,
2025-03-09 23:07:36.290,-3.8700,-0.4300,7.9700,-69.7500,-307.0000,11.4375,0.0043,0.2914,0.0784,0.9534,
2025-03-09 23:07:36.307,-2.4300,0.3100,10.2500,-18.1250,-339.5000,-3.0625,-0.0009,0.2394,0.0824,0.9674,
2025-03-09 23:07:36.326,-1.7100,-0.0100,10.5000,25.6250,-341.0625,-26.0000,0.0031,0.1830,0.0808,0.9798,
2025-03-09 23:07:36.350,-1.5800,0.2200,10.3200,1.8125,-282.0625,-15.8125,0.0107,0.1285,0.0758,0.9887,
2025-03-09 23:07:36.394,-1.3000,0.6500,9.8300,-23.5625,-198.7500,-1.8125,0.0125,0.0847,0.0733,0.9936,
2025-03-09 23:07:36.394,-0.7800,0.8200,9.6000,-31.0000,-170.8750,24.1250,0.0104,0.0533,0.0739,0.9958,
2025-03-09 23:07:36.394,1.1600,-0.0700,9.2100,-24.5000,-192.7500,25.6250,0.0090,0.0387,0.0759,0.9963,
2025-03-09 23:07:36.424,1.3900,0.0500,9.2700,-6.3125,-270.4375,9.8125,0.0085,0.0030,0.0790,0.9968,
2025-03-09 23:07:36.442,1.7900,-0.1100,9.1200,2.4375,-310.5625,7.1250,0.0120,-0.0460,0.0800,0.9957,
2025-03-09 23:07:36.454,2.4400,0.0400,9.2600,-7.9375,-345.6875,3.0000,0.0143,-0.0742,0.0799,0.9939,
2025-03-09 23:07:36.471,3.7200,0.9300,9.3300,-14.0625,-332.4375,7.8125,0.0172,-0.1320,0.0796,0.9879,
2025-03-09 23:07:36.491,4.1000,1.1600,9.1300,-10.6875,-320.6875,4.2500,0.0193,-0.1864,0.0792,0.9791,
2025-03-09 23:07:36.513,4.1000,0.2900,8.4300,-7.6250,-299.0000,-10.0625,0.0219,-0.2372,0.0775,0.9681,
2025-03-09 23:07:36.524,7.3100,-0.5000,8.7800,-28.9375,-257.6875,0.7500,0.0235,-0.2845,0.0747,0.9555,
2025-03-09 23:07:36.551,5.5100,-0.1600,7.9800,-3.5625,-210.6250,-21.9375,0.0231,-0.3245,0.0714,0.9429,
2025-03-09 23:07:36.570,6.4600,-0.4300,7.5600,4.2500,-156.7500,-6.6250,0.0266,-0.3558,0.0675,0.9318,
2025-03-09 23:07:36.580,7.3000,-0.3900,7.2800,-3.2500,-122.4375,2.8750,0.0283,-0.3777,0.0666,0.9231,
2025-03-09 23:07:36.611,7.5000,-0.5100,6.4400,-0.4375,-101.6875,5.6875,0.0277,-0.3928,0.0666,0.9168,
2025-03-09 23:07:36.636,6.7500,-0.2100,5.8100,15.5000,-110.8750,4.3125,0.0292,-0.4088,0.0671,0.9097,
2025-03-09 23:07:36.651,6.7000,0.4900,5.7400,17.1250,-116.8125,1.9375,0.0327,-0.4261,0.0682,0.9015,
2025-03-09 23:07:36.691,8.4200,-0.2800,5.6500,-11.1875,-116.7500,13.3125,0.0355,-0.4443,0.0684,0.8926,
2025-03-09 23:07:36.691,9.5900,0.2800,5.7900,-13.3125,-115.3125,18.7500,0.0338,-0.4620,0.0692,0.8835,
2025-03-09 23:07:36.700,9.1500,0.5000,5.2700,-6.0625,-109.5000,2.1250,0.0332,-0.4706,0.0695,0.8790,
2025-03-09 23:07:36.723,8.4500,-0.1100,4.6000,-12.6875,-97.5000,-14.5000,0.0334,-0.4863,0.0677,0.8705,
2025-03-09 23:07:36.737,8.4500,-0.2800,4.6400,-10.4375,-97.6250,-13.8125,0.0341,-0.5006,0.0641,0.8626,
2025-03-09 23:07:36.748,8.7900,-0.2300,4.8100,-2.3125,-107.1875,-0.7500,0.0345,-0.5081,0.0629,0.8583,
2025-03-09 23:07:36.771,9.9000,0.1300,4.7400,2.1875,-112.8125,6.1875,0.0353,-0.5237,0.0624,0.8489,
2025-03-09 23:07:36.789,9.2200,-0.5700,4.0100,2.5625,-112.0000,8.4375,0.0361,-0.5398,0.0630,0.8387,
2025-03-09 23:07:36.801,8.6100,-0.7900,4.2500,-8.8750,-81.1875,18.8125,0.0361,-0.5469,0.0636,0.8340,
2025-03-09 23:07:36.821,9.1500,-0.1600,3.8400,-0.5625,-70.0000,22.0000,0.0334,-0.5574,0.0654,0.8270,
2025-03-09 23:07:36.835,8.3000,0.0900,2.7900,7.1875,-81.0625,2.3125,0.0336,-0.5679,0.0670,0.8196,
2025-03-09 23:07:36.845,8.3200,-0.0700,2.8300,6.3125,-99.1250,-19.6250,0.0355,-0.5743,0.0663,0.8152,
2025-03-09 23:07:36.874,9.4100,-0.3600,2.7100,1.6875,-90.9375,-22.3750,0.0391,-0.5875,0.0631,0.8058,
2025-03-09 23:07:36.888,9.6700,-0.3300,2.1200,3.8125,-86.9375,-16.3125,0.0423,-0.5994,0.0601,0.7971,
2025-03-09 23:07:36.900,9.7200,-0.1300,2.0900,3.9375,-89.8750,-7.8750,0.0435,-0.6050,0.0592,0.7928,
2025-03-09 23:07:36.922,9.6900,-0.2300,2.0700,5.8125,-94.6875,-9.5625,0.0459,-0.6172,0.0579,0.7833,
2025-03-09 23:07:36.954,10.0400,-0.0400,1.8600,5.9375,-84.5000,-14.5000,0.0491,-0.6287,0.0560,0.7741,
2025-03-09 23:07:36.994,9.9500,0.1300,1.8300,0.9375,-72.8750,-5.0625,0.0503,-0.6336,0.0552,0.7700,
2025-03-09 23:07:36.994,9.7100,0.4500,1.5700,-4.3750,-65.7500,-8.1250,0.0514,-0.6429,0.0540,0.7623,
2025-03-09 23:07:36.994,9.2400,-0.5600,1.4400,1.1250,-49.6875,-25.4375,0.0535,-0.6501,0.0511,0.7562,
2025-03-09 23:07:37.000,10.0300,1.4000,1.0400,-0.1875,-22.0000,-37.6875,0.0558,-0.6516,0.0474,0.7550,
2025-03-09 23:07:37.020,9.7200,0.3800,0.9600,7.7500,-25.9375,-22.3125,0.0598,-0.6543,0.0438,0.7526,
2025-03-09 23:07:37.038,9.7900,0.4200,0.7700,-1.0000,-23.3125,-20.1250,0.0625,-0.6573,0.0412,0.7499,
2025-03-09 23:07:37.055,9.7500,0.3900,0.8200,-1.1250,-18.9375,-20.1250,0.0636,-0.6584,0.0397,0.7489,
2025-03-09 23:07:37.066,9.8600,-0.0600,0.8700,3.6250,-10.5625,-15.2500,0.0660,-0.6598,0.0377,0.7476,
2025-03-09 23:07:37.087,9.6900,0.6800,1.0100,-6.1875,-8.8125,-10.5000,0.0668,-0.6608,0.0356,0.7468,
2025-03-09 23:07:37.101,10.0800,1.1200,1.0000,-0.3125,-9.1250,-3.5000,0.0671,-0.6613,0.0354,0.7463,
2025-03-09 23:07:37.121,9.8500,1.2300,0.7900,5.5000,-11.0000,-9.7500,0.0688,-0.6625,0.0346,0.7451,
2025-03-09 23:07:37.137,9.6500,1.0700,1.0800,-2.0000,-12.5625,-3.6875,0.0691,-0.6640,0.0336,0.7438,
2025-03-09 23:07:37.151,9.7000,0.7400,0.9700,-2.5000,-14.5000,2.5625,0.0688,-0.6649,0.0336,0.7430,
2025-03-09 23:07:37.173,9.8400,0.4200,0.7800,-5.7500,-18.0625,10.1875,0.0673,-0.6672,0.0339,0.7411,
2025-03-09 23:07:37.184,9.8900,0.2600,0.6900,-18.3125,-21.2500,6.2500,0.0646,-0.6699,0.0330,0.7389,
2025-03-09 23:07:37.207,9.8100,0.4200,0.7300,-15.1875,-20.0000,3.0000,0.0635,-0.6713,0.0322,0.7378,
2025-03-09 23:07:37.220,9.7500,0.7100,0.6000,-2.3125,-19.8125,0.9375,0.0628,-0.6737,0.0314,0.7357,
2025-03-09 23:07:37.233,9.8900,0.5800,0.2600,1.1250,-22.7500,5.0000,0.0625,-0.6765,0.0317,0.7331,
2025-03-09 23:07:37.250,9.8200,0.5800,0.1600,1.0000,-23.1875,5.0000,0.0624,-0.6780,0.0320,0.7317,
2025-03-09 23:07:37.275,9.8700,0.5200,0.4700,0.0000,-17.0625,5.0000,0.0618,-0.6803,0.0325,0.7296,
2025-03-09 23:07:37.296,9.7000,0.6000,0.2500,-1.1250,-18.5625,5.8750,0.0613,-0.6825,0.0328,0.7276,
2025-03-09 23:07:37.296,9.8900,-0.2900,0.7300,-5.1875,-21.4375,6.5000,0.0606,-0.6839,0.0328,0.7263,
2025-03-09 23:07:37.324,9.8900,0.6300,-0.2000,-43.6250,-29.0000,-6.5625,0.0569,-0.6872,0.0287,0.7236,
2025-03-09 23:07:37.338,9.8300,0.6400,0.0200,-14.1875,-26.0000,-3.6875,0.0546,-0.6906,0.0247,0.7207,
2025-03-09 23:07:37.354,9.8500,0.3900,-0.0200,0.8125,-24.8750,0.8125,0.0547,-0.6921,0.0247,0.7193,
2025-03-09 23:07:37.362,9.8500,0.6400,-0.2100,26.1875,-18.4375,2.4375,0.0566,-0.6945,0.0268,0.7167,
2025-03-09 23:07:37.382,9.8400,0.5500,0.6200,64.7500,-9.5625,8.7500,0.0627,-0.6957,0.0341,0.7148,
2025-03-09 23:07:37.400,9.9300,0.4500,0.4200,49.8125,-12.5000,11.8125,0.0651,-0.6964,0.0377,0.7137,
2025-03-09 23:07:37.422,10.5000,-1.2900,2.6000,22.2500,20.1250,36.0000,0.0652,-0.6959,0.0440,0.7138,
2025-03-09 23:07:37.438,10.2300,-2.8400,2.1900,-36.5625,155.1250,158.1875,0.0474,-0.6824,0.0580,0.7272,
2025-03-09 23:07:37.451,12.4300,-3.2500,0.7500,-50.8125,184.3750,223.7500,0.0305,-0.6720,0.0695,0.7367,
2025-03-09 23:07:37.471,12.9600,-0.6700,1.0800,-87.1250,154.1875,300.0625,-0.0135,-0.6527,0.0980,0.7512,
2025-03-09 23:07:37.482,11.7200,-1.4000,1.3900,-59.2500,84.5625,234.1875,-0.0533,-0.6391,0.1221,0.7575,
2025-03-09 23:07:37.502,10.9400,-2.7900,1.5000,1.9375,47.2500,187.4375,-0.0637,-0.6352,0.1339,0.7580,
2025-03-09 23:07:37.520,9.6800,-4.4800,1.0100,73.4375,41.5000,164.9375,-0.0739,-0.6267,0.1608,0.7589,
2025-03-09 23:07:37.539,9.0200,-5.7200,1.6000,68.4375,45.1250,210.5625,-0.0869,-0.6155,0.1938,0.7590,
2025-03-09 23:07:37.550,9.2200,-6.2100,2.0100,2.8750,15.3750,235.1875,-0.0992,-0.6126,0.2089,0.7558,
2025-03-09 23:07:37.596,9.7900,-6.4800,2.4400,-85.8125,33.7500,304.5000,-0.1383,-0.6061,0.2382,0.7462,
2025-03-09 23:07:37.597,9.4900,-5.1100,2.7500,-100.1250,53.7500,319.4375,-0.1858,-0.5955,0.2664,0.7348,
2025-03-09 23:07:37.600,9.1400,-4.8700,3.0500,-74.6250,57.2500,301.7500,-0.2069,-0.5886,0.2804,0.7294,
2025-03-09 23:07:37.627,6.4300,-6.6000,1.4500,-9.0000,72.9375,236.5625,-0.2382,-0.5720,0.3065,0.7226,
2025-03-09 23:07:37.637,5.9000,-7.4100,0.9900,-16.3125,70.2500,239.4375,-0.2654,-0.5539,0.3306,0.7166,
2025-03-09 23:07:37.649,5.1200,-7.9300,0.1900,-26.0000,58.3750,258.2500,-0.2806,-0.5452,0.3437,0.7113,
2025-03-09 23:07:37.673,4.2600,-6.6500,0.1800,-30.0625,20.0000,272.2500,-0.3106,-0.5299,0.3717,0.6961,
2025-03-09 23:07:37.682,3.1200,-5.1900,1.7500,-39.0625,-27.6875,286.5625,-0.3384,-0.5184,0.4023,0.6744,
2025-03-09 23:07:37.694,3.4500,-4.9100,2.5000,-65.7500,-51.3750,274.3750,-0.3523,-0.5156,0.4164,0.6608,
2025-03-09 23:07:37.713,3.6700,-6.7100,3.4900,-54.3750,-49.1875,244.0625,-0.3777,-0.5095,0.4426,0.6340,
2025-03-09 23:07:37.731,3.0800,-7.9600,2.8600,-31.4375,-37.6250,206.3750,-0.3868,-0.5060,0.4534,0.6235,
2025-03-09 23:07:37.748,0.2800,-8.5900,0.3600,1.8750,-2.9375,190.9375,-0.4020,-0.4951,0.4731,0.6078,
2025-03-09 23:07:37.768,-0.1200,-6.7700,1.0800,-37.3750,-33.8750,216.1250,-0.4203,-0.4849,0.4942,0.5865,
2025-03-09 23:07:37.789,-0.5300,-4.7100,2.7600,-67.0000,-50.6875,163.8125,-0.4371,-0.4819,0.5104,0.5624,
2025-03-09 23:07:37.801,-0.5600,-4.8000,2.9100,-56.3125,-42.8750,114.1250,-0.4425,-0.4821,0.5151,0.5536,
2025-03-09 23:07:37.809,0.0200,-5.5500,3.1900,-39.3750,-29.5000,64.7500,-0.4457,-0.4827,0.5176,0.5481,
2025-03-09 23:07:37.818,0.0100,-6.7300,2.9800,-26.7500,-12.4375,26.8750,-0.4475,-0.4834,0.5182,0.5454,
2025-03-09 23:07:37.831,-0.1900,-8.4600,1.6000,-14.1875,7.1875,3.9375,-0.4486,-0.4836,0.5176,0.5450,
2025-03-09 23:07:37.839,-0.2300,-9.1000,0.9000,1.8125,16.9375,-7.1875,-0.4490,-0.4830,0.5167,0.5461,
2025-03-09 23:07:37.847,-0.5300,-9.6600,0.1300,7.9375,12.6250,-4.9375,-0.4490,-0.4822,0.5163,0.5471,
2025-03-09 23:07:37.888,-1.1800,-9.9200,-0.3700,0.5000,0.8750,12.1250,-0.4495,-0.4818,0.5168,0.5466,
2025-03-09 23:07:37.888,-0.9800,-9.3600,0.0400,-14.2500,-12.0000,33.6875,-0.4510,-0.4817,0.5182,0.5441,
2025-03-09 23:07:37.888,-0.6300,-8.4800,0.8000,-25.0000,-21.4375,38.5000,-0.4528,-0.4822,0.5198,0.5406,
2025-03-09 23:07:37.888,-0.4200,-7.7500,1.5200,-21.6875,-21.8750,23.1250,-0.4537,-0.4833,0.5208,0.5378,
2025-03-09 23:07:37.898,-0.3700,-7.4000,1.8400,-8.0000,-14.3750,-5.1250,-0.4533,-0.4845,0.5208,0.5371,
2025-03-09 23:07:37.908,-0.5600,-7.6200,1.6600,6.5625,-5.9375,-33.3125,-0.4514,-0.4858,0.5198,0.5386,
2025-03-09 23:07:37.918,-0.5400,-8.0300,1.4100,16.5000,0.0625,-55.4375,-0.4483,-0.4872,0.5179,0.5417,
2025-03-09 23:07:37.928,0.0900,-9.1200,1.1500,21.3750,2.8750,-71.8750,-0.4445,-0.4888,0.5154,0.5458,
2025-03-09 23:07:37.938,0.0700,-9.8000,0.8300,22.6250,4.3125,-78.2500,-0.4404,-0.4905,0.5125,0.5502,
2025-03-09 23:07:37.946,0.0500,-10.3500,0.6400,18.3750,3.6875,-64.6875,-0.4370,-0.4920,0.5101,0.5538,
2025-03-09 23:07:37.956,0.6800,-10.5600,0.7600,9.5625,-1.6250,-40.6875,-0.4348,-0.4932,0.5087,0.5558,
2025-03-09 23:07:37.969,0.7300,-10.0200,1.1300,1.3125,-8.0625,-20.8125,-0.4335,-0.4943,0.5081,0.5565,
2025-03-09 23:07:37.980,0.6200,-9.6700,1.2600,-2.8125,-7.5625,-9.7500,-0.4329,-0.4951,0.5078,0.5565,
2025-03-09 23:07:37.991,0.6100,-9.2700,1.3200,-3.8125,-6.6250,-5.3750,-0.4326,-0.4957,0.5076,0.5563,
2025-03-09 23:07:37.999,0.4600,-8.8100,1.4800,-2.3750,-7.7500,-8.5625,-0.4320,-0.4965,0.5074,0.5562,
2025-03-09 23:07:38.008,0.5000,-8.7000,1.5000,0.2500,-7.7500,-16.7500,-0.4310,-0.4975,0.5069,0.5566,
2025-03-09 23:07:38.012,0.5000,-8.6500,1.4500,4.3750,-5.7500,-27.5625,-0.4294,-0.4986,0.5060,0.5577,
2025-03-09 23:07:38.022,0.2400,-8.8700,1.2900,4.1250,-5.0625,-33.8750,-0.4275,-0.4999,0.5047,0.5591,
2025-03-09 23:07:38.032,0.2500,-8.8900,1.0800,-1.6875,-6.8750,-29.8750,-0.4260,-0.5014,0.5035,0.5600,
2025-03-09 23:07:38.042,0.6500,-8.7000,1.3500,-7.6875,-10.6875,-26.3750,-0.4248,-0.5032,0.5023,0.5604,
2025-03-09 23:07:38.059,0.8400,-8.4300,1.5800,-8.0000,-12.9375,-30.8750,-0.4233,-0.5052,0.5010,0.5609,
2025-03-09 23:07:38.075,0.8100,-7.8000,1.6800,-3.8125,-10.1250,-43.2500,-0.4213,-0.5074,0.4991,0.5621,
2025-03-09 23:07:38.080,0.5100,-7.4500,1.4600,1.0000,-5.6250,-63.2500,-0.4213,-0.5074,0.4991,0.5621,
2025-03-09 23:07:38.089,0.0600,-7.1600,1.1400,5.4375,-4.3125,-86.7500,-0.4182,-0.5099,0.4963,0.5646,
2025-03-09 23:07:38.099,-0.0700,-6.9500,0.8100,6.6250,-8.7500,-107.5625,-0.4141,-0.5129,0.4926,0.5682,
2025-03-09 23:07:38.110,0.3400,-6.3700,0.7000,6.5625,-19.3750,-129.5000,-0.4087,-0.5168,0.4880,0.5725,
2025-03-09 23:07:38.119,0.8000,-5.9600,0.9500,12.3125,-33.1250,-159.2500,-0.4019,-0.5219,0.4827,0.5772,
2025-03-09 23:07:38.129,1.0200,-5.5900,1.2300,24.4375,-43.4375,-199.9375,-0.3929,-0.5284,0.4765,0.5826,
2025-03-09 23:07:38.139,1.4700,-5.2500,1.6500,31.5625,-47.1250,-242.2500,-0.3809,-0.5361,0.4691,0.5894,
2025-03-09 23:07:38.153,2.8900,-5.5900,1.7400,43.5625,-40.5000,-282.6875,-0.3665,-0.5449,0.4599,0.5978,
2025-03-09 23:07:38.190,3.3800,-5.2400,2.0700,46.4375,-35.8750,-320.4375,-0.3495,-0.5538,0.4488,0.6081,
2025-03-09 23:07:38.194,3.9700,-5.4400,1.9100,50.5625,-29.5000,-347.3125,-0.3307,-0.5631,0.4354,0.6197,
2025-03-09 23:07:38.194,6.0400,-6.7000,1.4200,60.1875,-20.4375,-369.3750,-0.3103,-0.5723,0.4202,0.6322,
2025-03-09 23:07:38.194,6.8400,-6.9000,1.3000,71.5000,-19.4375,-389.0625,-0.2883,-0.5806,0.4038,0.6456,
2025-03-09 23:07:38.199,7.6500,-6.9600,1.1900,91.7500,-24.6250,-396.8750,-0.2646,-0.5884,0.3863,0.6592,
2025-03-09 23:07:38.210,7.9500,-7.3900,0.9600,96.5000,-35.5625,-383.9375,-0.2388,-0.5953,0.3691,0.6726,
2025-03-09 23:07:38.230,7.6200,-7.3900,0.5800,76.0625,-50.5000,-358.8750,-0.2128,-0.6017,0.3527,0.6844,
2025-03-09 23:07:38.230,7.5000,-6.7100,0.5200,52.1875,-64.8750,-324.7500,-0.1885,-0.6084,0.3365,0.6935,
2025-03-09 23:07:38.263,7.1600,-5.9200,0.6000,13.4375,-85.6250,-285.7500,-0.1669,-0.6157,0.3211,0.7000,
2025-03-09 23:07:38.263,8.2500,-5.3800,1.4900,-31.6250,-105.6875,-236.7500,-0.1488,-0.6242,0.3060,0.7032,
2025-03-09 23:07:38.263,9.4000,-5.4300,2.2800,-72.0000,-108.6875,-184.9375,-0.1354,-0.6342,0.2916,0.7032,
2025-03-09 23:07:38.269,9.6700,-5.2100,3.1000,-106.9375,-94.9375,-140.2500,-0.1271,-0.6444,0.2779,0.7010,
2025-03-09 23:07:38.286,10.1900,-5.7000,1.8300,-125.9375,-69.3125,-122.1875,-0.1236,-0.6539,0.2648,0.6979,
2025-03-09 23:07:38.287,11.3600,-4.4400,2.4000,-99.8750,-28.0000,-147.7500,-0.1227,-0.6620,0.2513,0.6954,
2025-03-09 23:07:38.297,12.1500,-5.5100,1.8500,-47.5625,-1.0000,-182.7500,-0.1197,-0.6672,0.2373,0.6958,
2025-03-09 23:07:38.317,12.2400,-6.4700,1.4200,-7.4375,3.4375,-195.3125,-0.1121,-0.6700,0.2238,0.6988,
2025-03-09 23:07:38.319,10.9200,-6.8300,0.9900,10.1250,6.1250,-179.9375,-0.1016,-0.6717,0.2118,0.7026,
2025-03-09 23:07:38.333,10.4800,-5.9900,0.8400,14.3750,16.2500,-154.5625,-0.0909,-0.6727,0.2017,0.7061,
2025-03-09 23:07:38.339,10.1600,-5.2600,0.5600,20.5625,26.3125,-138.8750,-0.0815,-0.6725,0.1931,0.7098,
2025-03-09 23:07:38.350,10.0800,-4.6400,0.2600,35.4375,29.6875,-137.1250,-0.0728,-0.6715,0.1857,0.7136,
2025-03-09 23:07:38.352,9.7400,-3.7500,0.2600,51.4375,21.3125,-142.9375,-0.0634,-0.6700,0.1793,0.7176,
2025-03-09 23:07:38.363,9.5500,-3.6100,0.0800,54.0625,3.0625,-148.6875,-0.0524,-0.6686,0.1734,0.7212,
2025-03-09 23:07:38.373,9.1700,-3.4400,0.2000,48.0000,-14.5000,-143.3750,-0.0408,-0.6683,0.1674,0.7237,
2025-03-09 23:07:38.389,9.0800,-3.3600,0.2800,36.5625,-28.0625,-125.7500,-0.0295,-0.6689,0.1614,0.7250,
2025-03-09 23:07:38.399,9.3100,-3.0200,0.3000,20.0000,-41.5000,-106.3125,-0.0198,-0.6704,0.1558,0.7252,
2025-03-09 23:07:38.409,9.5100,-2.7800,0.6400,4.9375,-48.1875,-96.6875,-0.0120,-0.6728,0.1505,0.7243,
2025-03-09 23:07:38.421,9.8200,-2.5000,0.7500,-3.7500,-50.3125,-92.7500,-0.0056,-0.6758,0.1449,0.7227,
2025-03-09 23:07:38.429,10.9100,-2.2300,0.7200,-2.3750,-53.9375,-91.8125,0.0001,-0.6789,0.1390,0.7209,
2025-03-09 23:07:38.440,14.1900,-4.1800,2.2600,2.3750,-52.3750,-95.8125,0.0058,-0.6822,0.1333,0.7189,
2025-03-09 23:07:38.441,9.7800,-2.9700,0.6500,-13.7500,-18.6875,-96.8125,0.0121,-0.6853,0.1276,0.7169,
2025-03-09 23:07:38.492,9.5500,-0.6400,0.0400,-1.6875,-10.1875,-99.4375,0.0170,-0.6864,0.1209,0.7169,
2025-03-09 23:07:38.492,9.4400,-0.5900,0.6600,20.5625,-20.0000,-110.0625,0.0228,-0.6869,0.1147,0.7173,
2025-03-09 23:07:38.492,8.7600,-1.0700,0.8300,23.5000,-18.3750,-122.1250,0.0306,-0.6877,0.1093,0.7171,
2025-03-09 23:07:38.492,8.6200,-1.8100,0.3200,9.5625,-8.8750,-110.2500,0.0393,-0.6882,0.1031,0.7170,
2025-03-09 23:07:38.492,10.0700,-2.3500,0.2500,-11.7500,-5.8750,-87.9375,0.0464,-0.6883,0.0970,0.7174,
2025-03-09 23:07:38.501,9.6800,-1.8200,0.0700,-27.6875,-0.6875,-67.3750,0.0508,-0.6884,0.0909,0.7178,
2025-03-09 23:07:38.529,9.9000,-0.8200,0.2300,-27.0625,6.8750,-56.0625,0.0531,-0.6883,0.0852,0.7184,
2025-03-09 23:07:38.530,9.6300,0.0400,0.4300,-13.8750,7.4375,-59.4375,0.0546,-0.6878,0.0803,0.7194,
2025-03-09 23:07:38.540,9.8700,0.1200,0.5100,-2.4375,-1.4375,-66.4375,0.0572,-0.6872,0.0759,0.7202,
2025-03-09 23:07:38.560,9.8900,-0.4700,0.5000,15.6875,-9.5000,-77.4375,0.0659,-0.6869,0.0674,0.7206,
2025-03-09 23:07:38.569,9.8300,-0.8100,0.4500,10.3750,-7.6875,-63.8750,0.0714,-0.6869,0.0635,0.7204,
2025-03-09 23:07:38.573,9.8600,-0.7300,0.5500,1.8125,-2.5000,-41.6875,0.0757,-0.6870,0.0602,0.7202,
2025-03-09 23:07:38.583,9.8600,0.2400,0.4100,-1.9375,2.8750,-24.2500,0.0782,-0.6869,0.0577,0.7203,
2025-03-09 23:07:38.596,9.7900,0.3200,0.4600,2.0000,2.9375,-20.7500,0.0795,-0.6865,0.0562,0.7205,
2025-03-09 23:07:38.604,9.7900,0.3700,0.4900,2.0625,1.6250,-18.1250,0.0809,-0.6862,0.0551,0.7208,
2025-03-09 23:07:38.646,9.8400,0.3900,0.3800,0.3125,0.2500,-15.0000,0.0820,-0.6860,0.0541,0.7210,
2025-03-09 23:07:38.646,9.8400,0.4800,0.4400,-2.6875,0.0000,-11.6875,0.0829,-0.6859,0.0532,0.7210,
2025-03-09 23:07:38.646,9.9200,0.4900,0.4000,-8.5000,-0.9375,-8.4375,0.0834,-0.6858,0.0523,0.7211,
2025-03-09 23:07:38.651,9.5900,0.9300,0.8100,-12.6250,-2.0000,-4.1875,0.0834,-0.6859,0.0513,0.7211,
2025-03-09 23:07:38.667,9.8800,0.0800,0.2000,-19.5625,-5.1875,1.6250,0.0829,-0.6860,0.0503,0.7211,
2025-03-09 23:07:38.669,9.8800,0.1200,0.2000,-27.4375,-3.8125,0.8125,0.0816,-0.6864,0.0492,0.7210,
2025-03-09 23:07:38.680,9.6800,0.4500,0.5200,-20.8125,-3.7500,2.3750,0.0799,-0.6867,0.0476,0.7209,
2025-03-09 23:07:38.690,9.8400,-0.0600,0.3400,-14.8125,-5.3125,4.8125,0.0785,-0.6871,0.0466,0.7208,
2025-03-09 23:07:38.699,9.8300,-0.0500,0.3600,-21.0000,-5.5000,2.2500,0.0773,-0.6875,0.0460,0.7206,
2025-03-09 23:07:38.705,9.8700,-0.1300,0.2200,-17.3750,-5.1250,-0.8750,0.0759,-0.6879,0.0449,0.7204,
2025-03-09 23:07:38.715,9.8100,0.1500,0.3400,-11.9375,-3.7500,-4.3750,0.0750,-0.6883,0.0438,0.7202,
2025-03-09 23:07:38.725,9.8100,0.1600,0.4100,-4.3125,-3.8125,-5.3125,0.0745,-0.6885,0.0427,0.7201,
2025-03-09 23:07:38.740,9.8200,0.1200,0.3500,-2.3125,-4.6250,-5.8125,0.0745,-0.6888,0.0422,0.7199,
2025-03-09 23:07:38.748,9.8200,0.1200,0.3500,-2.6250,-4.7500,-6.9375,0.0748,-0.6890,0.0416,0.7197,
2025-03-09 23:07:38.793,9.9300,0.2600,0.2400,-2.5000,-4.8125,-7.7500,0.0749,-0.6893,0.0412,0.7194,
2025-03-09 23:07:38.793,9.7300,0.4100,0.3500,0.8750,-4.4375,-6.5625,0.0751,-0.6896,0.0406,0.7191,
2025-03-09 23:07:38.793,9.8600,0.2100,0.1800,-0.4375,-5.2500,-5.9375,0.0754,-0.6899,0.0403,0.7189,
2025-03-09 23:07:38.793,9.8500,0.2600,0.2500,-0.5625,-4.7500,-6.8750,0.0757,-0.6902,0.0400,0.7186,
2025-03-09 23:07:38.802,9.8800,0.2500,0.1800,1.3125,-3.5000,-7.5625,0.0764,-0.6907,0.0394,0.7180,
2025-03-09 23:07:38.819,9.8500,0.3600,0.1800,2.5625,-2.8750,-6.9375,0.0768,-0.6910,0.0391,0.7177,
2025-03-09 23:07:38.829,9.7900,0.4700,0.2800,3.2500,-2.3125,-6.0625,0.0773,-0.6911,0.0389,0.7175,
2025-03-09 23:07:38.839,9.7900,0.5600,0.2700,2.3750,-2.6250,-3.9375,0.0778,-0.6912,0.0387,0.7174,
2025-03-09 23:07:38.860,9.8300,0.5500,0.2700,0.6875,-3.8750,3.1250,0.0783,-0.6916,0.0386,0.7170,
2025-03-09 23:07:38.879,9.8600,0.2200,0.1400,-0.4375,-4.2500,8.1250,0.0778,-0.6921,0.0392,0.7165,
2025-03-09 23:07:38.899,9.8000,0.1700,0.1500,0.0625,-1.3125,5.3750,0.0769,-0.6927,0.0402,0.7159,
2025-03-09 23:07:38.920,9.8300,0.1500,0.1500,1.4375,0.5000,2.5000,0.0764,-0.6929,0.0408,0.7159,
2025-03-09 23:07:38.939,9.8300,0.2200,0.2200,6.2500,1.8125,0.0000,0.0765,-0.6928,0.0413,0.7159,
2025-03-09 23:07:38.960,9.8300,0.1600,0.1500,8.6250,1.7500,-1.2500,0.0771,-0.6926,0.0424,0.7160,
2025-03-09 23:07:38.979,9.8000,0.3000,0.2600,6.8750,2.4375,-3.3750,0.0781,-0.6923,0.0433,0.7160,
2025-03-09 23:07:39.003,9.8400,0.2600,0.2300,6.6875,2.1875,-2.9375,0.0791,-0.6920,0.0439,0.7162,
2025-03-09 23:07:39.012,9.8100,0.2700,0.2500,8.1875,2.5625,-3.1250,0.0796,-0.6919,0.0442,0.7162,
2025-03-09 23:07:39.035,9.8000,0.3200,0.2400,11.5000,3.3750,-3.1250,0.0809,-0.6915,0.0451,0.7164,
2025-03-09 23:07:39.050,9.8200,0.3400,0.2800,13.0625,3.6875,-2.0625,0.0825,-0.6910,0.0463,0.7167,
2025-03-09 23:07:39.092,9.8300,0.3200,0.2300,12.8125,3.8125,-1.5625,0.0834,-0.6907,0.0471,0.7167,
2025-03-09 23:07:39.092,9.7900,0.3800,0.3700,8.7500,3.3125,-1.0000,0.0849,-0.6902,0.0485,0.7170,
2025-03-09 23:07:39.100,9.7900,0.3600,0.3500,3.0000,1.7500,0.1250,0.0857,-0.6898,0.0494,0.7172,
2025-03-09 23:07:39.110,9.8100,0.3300,0.3200,1.8125,0.8125,1.0625,0.0858,-0.6896,0.0496,0.7173,
2025-03-09 23:07:39.130,9.8200,0.2900,0.3000,0.0000,-0.3750,1.6250,0.0857,-0.6896,0.0499,0.7173,
2025-03-09 23:07:39.149,9.8200,0.2700,0.2900,-0.2500,-1.4375,2.5000,0.0853,-0.6898,0.0503,0.7172,
2025-03-09 23:07:39.163,9.8100,0.2600,0.3000,0.0000,-1.6250,2.3750,0.0851,-0.6899,0.0505,0.7171,
2025-03-09 23:07:39.185,9.8200,0.2600,0.2300,-0.4375,-1.6875,2.8750,0.0848,-0.6901,0.0509,0.7169,
2025-03-09 23:07:39.199,9.8100,0.2600,0.2400,-0.9375,-0.8125,2.8750,0.0842,-0.6904,0.0513,0.7167,
2025-03-09 23:07:39.216,9.8300,0.2600,0.2000,-1.0625,-0.2500,2.7500,0.0840,-0.6905,0.0515,0.7166,
2025-03-09 23:07:39.230,9.8100,0.2700,0.2500,-0.8125,1.3750,2.2500,0.0834,-0.6906,0.0518,0.7165,
2025-03-09 23:07:39.248,9.8100,0.2800,0.2900,-0.3750,2.1875,2.9375,0.0829,-0.6905,0.0521,0.7167,
2025-03-09 23:07:39.254,9.8200,0.1600,0.2800,0.1875,2.4375,2.5625,0.0827,-0.6904,0.0524,0.7167,
2025-03-09 23:07:39.280,9.7900,0.1300,0.2700,0.6250,2.5625,0.2500,0.0823,-0.6902,0.0528,0.7170,
2025-03-09 23:07:39.298,9.8100,0.2000,0.3100,1.0625,3.0625,-2.2500,0.0823,-0.6899,0.0530,0.7173,
2025-03-09 23:07:39.312,9.8100,0.2900,0.3100,1.2500,2.5000,-2.3125,0.0824,-0.6897,0.0530,0.7175,
2025-03-09 23:07:39.333,9.8000,0.3000,0.2900,1.9375,2.9375,-0.8125,0.0827,-0.6893,0.0531,0.7177,
2025-03-09 23:07:39.349,9.8100,0.3000,0.2800,1.0000,4.2500,0.5000,0.0829,-0.6890,0.0533,0.7181,
