A1,,,,,,,,,,,
time,accx,accy,accz,gyrox,gyroy,gyroz,w1,w2,w3,w4,
2025-03-09 23:11:13.599,9.6800,1.5900,-0.1700,-3.1875,2.5000,-0.2500,0.7057,-0.1231,0.6609,0.2234,
2025-03-09 23:11:13.611,9.7500,1.3900,-0.2200,-3.4375,2.6250,-0.1875,0.7055,-0.1232,0.6611,0.2237,
2025-03-09 23:11:13.630,9.7700,1.2900,-0.2000,-1.1875,2.3750,0.3125,0.7051,-0.1235,0.6613,0.2241,
2025-03-09 23:11:13.670,9.7300,1.4000,-0.1700,0.3125,1.7500,0.6875,0.7048,-0.1235,0.6616,0.2242,
2025-03-09 23:11:13.670,9.7300,1.4200,-0.1400,0.8125,0.2500,1.4375,0.7048,-0.1235,0.6616,0.2241,
2025-03-09 23:11:13.680,9.7600,1.2000,-0.0800,0.1875,-0.1250,1.1875,0.7048,-0.1236,0.6617,0.2239,
2025-03-09 23:11:13.699,9.7100,1.1100,-0.0400,-0.1250,-0.8125,0.6875,0.7047,-0.1238,0.6619,0.2237,
2025-03-09 23:11:13.710,9.6100,1.0200,-0.0500,1.1250,-1.7500,0.5000,0.7048,-0.1238,0.6618,0.2236,
2025-03-09 23:11:13.729,9.6700,1.0400,-0.1100,5.8125,-3.6250,0.8125,0.7051,-0.1237,0.6616,0.2233,
2025-03-09 23:11:13.748,9.7000,1.0900,-0.1400,8.1875,-4.6875,0.8750,0.7057,-0.1234,0.6614,0.2221,
2025-03-09 23:11:13.760,9.9200,1.2100,-0.2400,9.5625,-6.6875,1.2500,0.7061,-0.1232,0.6613,0.2213,
2025-03-09 23:11:13.782,9.9500,1.2400,-0.3100,10.0625,-7.3750,1.6875,0.7071,-0.1228,0.6608,0.2196,
2025-03-09 23:11:13.801,9.6900,1.4100,-0.2300,10.7500,-7.3750,1.6875,0.7082,-0.1222,0.6603,0.2180,
2025-03-09 23:11:13.815,9.5800,1.5000,-0.3100,11.4375,-7.7500,1.7500,0.7089,-0.1218,0.6600,0.2171,
2025-03-09 23:11:13.830,9.5800,1.6000,-0.5300,11.0625,-7.0625,1.6250,0.7101,-0.1210,0.6594,0.2154,
2025-03-09 23:11:13.849,9.6600,1.5300,-0.7700,10.0000,-6.1875,1.8125,0.7112,-0.1202,0.6588,0.2138,
2025-03-09 23:11:13.852,9.8300,1.4400,-0.9500,6.8750,-5.8125,2.0625,0.7116,-0.1199,0.6586,0.2131,
2025-03-09 23:11:13.881,9.9000,1.3900,-1.0400,3.9375,-5.6250,2.5625,0.7124,-0.1197,0.6581,0.2120,
2025-03-09 23:11:13.898,9.8600,1.3200,-0.8500,2.8750,-5.9375,2.8750,0.7131,-0.1199,0.6576,0.2112,
2025-03-09 23:11:13.909,9.8500,1.2900,-0.8300,2.8750,-8.0000,3.2500,0.7136,-0.1201,0.6572,0.2108,
2025-03-09 23:11:13.929,9.9100,1.2700,-0.8300,4.7500,-8.0000,4.3125,0.7148,-0.1205,0.6562,0.2096,
2025-03-09 23:11:13.964,9.9300,1.1400,-0.8300,6.0625,-7.3125,5.0625,0.7160,-0.1210,0.6553,0.2081,
2025-03-09 23:11:13.973,9.8100,1.1300,-0.8500,10.1250,-6.2500,5.6875,0.7165,-0.1211,0.6550,0.2072,
2025-03-09 23:11:13.980,9.6400,1.3500,-1.1100,12.0000,-7.0625,6.6250,0.7179,-0.1210,0.6543,0.2048,
2025-03-09 23:11:13.997,9.8300,1.3800,-1.1000,11.0000,-7.0000,7.3750,0.7194,-0.1208,0.6534,0.2023,
2025-03-09 23:11:14.009,9.9500,1.2500,-0.9800,7.1875,-5.0000,8.8750,0.7199,-0.1212,0.6531,0.2013,
2025-03-09 23:11:14.028,9.8700,1.0100,-0.8100,3.7500,-2.8125,9.5625,0.7205,-0.1218,0.6529,0.1993,
2025-03-09 23:11:14.048,9.7400,0.9500,-0.6000,3.8750,-2.2500,9.5000,0.7208,-0.1226,0.6530,0.1977,
2025-03-09 23:11:14.060,9.7500,0.9700,-0.5400,12.5000,-2.7500,8.2500,0.7209,-0.1227,0.6531,0.1967,
2025-03-09 23:11:14.081,9.8400,1.1500,-0.6400,18.1250,-4.1875,7.3125,0.7216,-0.1223,0.6532,0.1940,
2025-03-09 23:11:14.096,9.8600,1.4300,-0.6700,19.3125,-4.0625,7.2500,0.7225,-0.1212,0.6533,0.1908,
2025-03-09 23:11:14.107,9.8400,1.6600,-0.7200,17.1875,-1.0625,6.5625,0.7229,-0.1207,0.6535,0.1893,
2025-03-09 23:11:14.136,9.8800,1.7400,-0.7700,12.6250,1.0625,5.8750,0.7233,-0.1197,0.6539,0.1866,
2025-03-09 23:11:14.148,9.9100,1.6800,-0.8800,10.5000,1.5625,5.3125,0.7234,-0.1190,0.6545,0.1846,
2025-03-09 23:11:14.161,9.8700,1.6700,-0.8500,8.0000,1.2500,4.8750,0.7235,-0.1189,0.6547,0.1838,
2025-03-09 23:11:14.172,9.7200,1.5100,-0.8100,3.1875,1.1250,3.3750,0.7236,-0.1182,0.6548,0.1835,
2025-03-09 23:11:14.192,9.6700,1.4000,-0.7500,0.1250,0.8750,2.2500,0.7236,-0.1180,0.6548,0.1836,
2025-03-09 23:11:14.210,9.7300,1.3600,-0.7600,-0.5625,0.3125,2.1875,0.7236,-0.1180,0.6548,0.1836,
2025-03-09 23:11:14.231,9.8500,1.2200,-0.7600,-2.5625,0.0625,2.4375,0.7235,-0.1184,0.6548,0.1837,
2025-03-09 23:11:14.252,9.8900,1.1400,-0.6600,-5.1250,0.1250,2.6875,0.7233,-0.1192,0.6547,0.1840,
2025-03-09 23:11:14.278,9.9200,1.1000,-0.5800,-6.0000,0.6875,2.6875,0.7232,-0.1197,0.6548,0.1843,
2025-03-09 23:11:14.280,9.9400,1.0500,-0.5600,-5.6250,0.5625,2.5625,0.7228,-0.1206,0.6549,0.1847,
2025-03-09 23:11:14.294,9.8500,1.1700,-0.6100,-4.0000,-0.2500,2.0625,0.7226,-0.1213,0.6549,0.1851,
2025-03-09 23:11:14.316,9.8200,1.1600,-0.6000,-2.8750,0.0000,2.0000,0.7225,-0.1216,0.6549,0.1851,
2025-03-09 23:11:14.327,9.5500,1.2300,-0.5200,-1.1250,-0.0625,2.0625,0.7224,-0.1220,0.6550,0.1852,
2025-03-09 23:11:14.347,9.4800,1.2900,-0.5500,-3.0625,-1.1250,2.2500,0.7224,-0.1225,0.6549,0.1852,
2025-03-09 23:11:14.360,9.5900,1.2300,-0.6500,-4.5625,-1.1875,2.1250,0.7223,-0.1229,0.6548,0.1854,
2025-03-09 23:11:14.380,9.8300,1.0300,-0.6800,-5.3750,-0.3125,2.2500,0.7221,-0.1238,0.6547,0.1858,
2025-03-09 23:11:14.393,9.8900,0.8200,-0.6200,-2.2500,-1.6250,3.0000,0.7220,-0.1246,0.6547,0.1859,
2025-03-09 23:11:14.404,9.8700,0.8400,-0.5600,-0.2500,-2.5000,3.0000,0.7222,-0.1248,0.6545,0.1857,
2025-03-09 23:11:14.427,9.7100,1.0300,-0.4500,1.6875,-3.8125,3.6875,0.7225,-0.1252,0.6542,0.1851,
2025-03-09 23:11:14.440,9.7200,1.0700,-0.4300,1.8750,-4.0000,3.7500,0.7227,-0.1253,0.6542,0.1847,
2025-03-09 23:11:14.447,9.7400,1.1400,-0.4900,1.6250,-4.5625,4.2500,0.7228,-0.1255,0.6540,0.1844,
2025-03-09 23:11:14.459,9.7800,0.9800,-0.4900,1.2500,-4.9375,4.2500,0.7230,-0.1258,0.6539,0.1840,
2025-03-09 23:11:14.470,9.8900,1.1100,-0.6800,1.0000,-5.0000,4.2500,0.7232,-0.1260,0.6537,0.1837,
2025-03-09 23:11:14.479,9.8900,1.0500,-0.6900,0.5000,-4.8750,4.6250,0.7234,-0.1264,0.6535,0.1834,
2025-03-09 23:11:14.489,9.8300,1.0700,-0.6400,0.6250,-4.3125,4.5000,0.7236,-0.1266,0.6534,0.1831,
2025-03-09 23:11:14.500,9.7300,1.1500,-0.5200,0.6875,-3.6875,4.5625,0.7237,-0.1269,0.6533,0.1829,
2025-03-09 23:11:14.514,9.6800,1.0700,-0.4900,0.0000,-2.9375,4.9375,0.7237,-0.1272,0.6533,0.1826,
2025-03-09 23:11:14.527,9.7400,0.9900,-0.5200,-1.0625,-1.7500,5.0000,0.7236,-0.1278,0.6533,0.1822,
2025-03-09 23:11:14.545,9.8400,0.8400,-0.6400,-1.0000,-2.3750,5.1250,0.7236,-0.1282,0.6533,0.1819,
2025-03-09 23:11:14.598,9.8700,0.7700,-0.7000,0.0000,-2.8125,5.6250,0.7237,-0.1286,0.6533,0.1816,
2025-03-09 23:11:14.598,9.8400,0.8200,-0.7000,1.5625,-3.0000,5.8125,0.7238,-0.1290,0.6532,0.1811,
2025-03-09 23:11:14.598,9.7800,0.8600,-0.6900,4.1875,-3.0625,5.9375,0.7240,-0.1292,0.6532,0.1805,
2025-03-09 23:11:14.602,9.6600,0.9000,-0.7000,6.3125,-2.9375,6.3750,0.7241,-0.1292,0.6532,0.1798,
2025-03-09 23:11:14.602,9.6400,0.9900,-0.7000,7.0625,-2.9375,6.8125,0.7243,-0.1293,0.6532,0.1790,
2025-03-09 23:11:14.602,9.6900,1.0400,-0.7300,6.0625,-3.1250,7.5625,0.7245,-0.1295,0.6532,0.1781,
2025-03-09 23:11:14.619,9.8800,1.1100,-0.7700,4.3125,-3.3750,7.8125,0.7246,-0.1297,0.6532,0.1774,
2025-03-09 23:11:14.621,9.8900,1.1100,-0.7800,2.3125,-3.1250,7.8125,0.7248,-0.1301,0.6531,0.1769,
2025-03-09 23:11:14.630,9.8900,1.1800,-0.8000,0.8125,-2.7500,7.3750,0.7249,-0.1304,0.6530,0.1765,
2025-03-09 23:11:14.636,9.8100,1.1300,-0.8100,-0.5625,-2.3125,7.0000,0.7249,-0.1308,0.6530,0.1761,
2025-03-09 23:11:14.644,9.7200,0.9700,-0.8900,-1.5000,-1.7500,6.5625,0.7249,-0.1312,0.6529,0.1760,
2025-03-09 23:11:14.654,9.7800,0.8700,-0.9200,-2.3125,-2.0000,6.3125,0.7249,-0.1318,0.6529,0.1757,
2025-03-09 23:11:14.670,9.8700,0.8400,-0.9200,-2.6875,-2.1250,6.1875,0.7249,-0.1323,0.6528,0.1755,
2025-03-09 23:11:14.680,9.9300,0.7500,-0.9000,-2.6875,-1.8125,6.1875,0.7249,-0.1329,0.6528,0.1754,
2025-03-09 23:11:14.689,9.9400,0.8000,-0.8100,-2.3125,-1.1250,5.6250,0.7249,-0.1334,0.6527,0.1752,
2025-03-09 23:11:14.691,9.9600,0.8000,-0.8300,-1.7500,-1.0000,5.8125,0.7248,-0.1338,0.6528,0.1749,
2025-03-09 23:11:14.701,9.9600,0.8000,-0.7900,-1.1875,-1.8750,5.8125,0.7249,-0.1343,0.6527,0.1747,
2025-03-09 23:11:14.719,9.9300,0.8400,-0.7900,-1.6875,-2.4375,6.1250,0.7249,-0.1348,0.6526,0.1744,
2025-03-09 23:11:14.736,9.8900,0.8200,-0.7700,-2.9375,-2.1250,6.0625,0.7249,-0.1354,0.6526,0.1742,
2025-03-09 23:11:14.739,9.8700,0.8100,-0.7300,-4.1250,-1.6250,6.2500,0.7248,-0.1360,0.6525,0.1741,
2025-03-09 23:11:14.747,9.8600,0.8100,-0.7000,-4.7500,-1.1875,6.1250,0.7247,-0.1366,0.6525,0.1741,
2025-03-09 23:11:14.756,9.8900,0.7900,-0.7000,-5.2500,-0.7500,5.8750,0.7246,-0.1373,0.6525,0.1741,
2025-03-09 23:11:14.776,9.9200,0.8200,-0.7200,-4.8750,-0.6250,5.8750,0.7245,-0.1379,0.6525,0.1741,
2025-03-09 23:11:14.776,9.9000,0.8200,-0.7500,-4.1875,-0.3125,5.6875,0.7243,-0.1384,0.6526,0.1741,
2025-03-09 23:11:14.799,9.7900,0.8200,-0.7200,-3.3125,0.2500,5.6250,0.7242,-0.1389,0.6527,0.1740,
2025-03-09 23:11:14.808,9.7900,0.8300,-0.6800,-2.5000,0.4375,5.4375,0.7241,-0.1394,0.6527,0.1739,
2025-03-09 23:11:14.809,9.7500,0.8200,-0.6600,-2.6250,0.8125,5.0000,0.7239,-0.1398,0.6529,0.1738,
2025-03-09 23:11:14.822,9.7700,0.8400,-0.6700,-3.1250,0.6875,4.6875,0.7237,-0.1402,0.6530,0.1738,
2025-03-09 23:11:14.822,9.7900,0.8300,-0.6900,-4.1875,0.6875,4.4375,0.7235,-0.1406,0.6531,0.1739,
2025-03-09 23:11:14.874,9.8800,0.8100,-0.6900,-4.9375,0.8125,4.5000,0.7233,-0.1411,0.6531,0.1741,
2025-03-09 23:11:14.874,9.8900,0.7100,-0.7500,-5.2500,1.0625,4.5625,0.7231,-0.1417,0.6533,0.1741,
2025-03-09 23:11:14.874,9.8500,0.7400,-0.7700,-4.8750,1.2500,4.2500,0.7229,-0.1422,0.6533,0.1743,
2025-03-09 23:11:14.874,9.7800,0.7300,-0.7400,-4.3750,1.3750,4.0625,0.7227,-0.1426,0.6534,0.1743,
2025-03-09 23:11:14.878,9.7400,0.7200,-0.7500,-3.9375,1.1250,3.7500,0.7225,-0.1430,0.6535,0.1744,
2025-03-09 23:11:14.888,9.6900,0.7100,-0.7000,-4.1875,1.0000,3.6250,0.7223,-0.1434,0.6536,0.1745,
2025-03-09 23:11:14.898,9.6900,0.6500,-0.6900,-4.9375,1.0625,3.5000,0.7222,-0.1439,0.6537,0.1746,
2025-03-09 23:11:14.908,9.7000,0.6200,-0.6800,-5.6875,1.0000,3.3125,0.7219,-0.1444,0.6538,0.1748,
2025-03-09 23:11:14.918,9.7400,0.6100,-0.7300,-5.8125,0.6250,3.4375,0.7218,-0.1449,0.6537,0.1750,
2025-03-09 23:11:14.918,9.8900,0.5900,-0.7700,-5.4375,0.5625,3.5625,0.7216,-0.1454,0.6538,0.1752,
2025-03-09 23:11:14.939,9.9200,0.5900,-0.7300,-4.7500,0.2500,3.4375,0.7215,-0.1459,0.6538,0.1752,
2025-03-09 23:11:14.947,9.9000,0.6000,-0.7100,-4.3125,0.5000,3.5625,0.7214,-0.1464,0.6538,0.1753,
2025-03-09 23:11:14.954,9.8800,0.6400,-0.6800,-4.1875,0.1875,3.5000,0.7213,-0.1468,0.6538,0.1754,
2025-03-09 23:11:14.965,9.8100,0.6100,-0.6300,-4.2500,0.3750,3.4375,0.7211,-0.1473,0.6538,0.1755,
2025-03-09 23:11:14.975,9.7800,0.6300,-0.6200,-4.9375,0.5625,3.5000,0.7210,-0.1477,0.6539,0.1756,
2025-03-09 23:11:14.986,9.7500,0.6200,-0.5900,-5.6875,0.4375,3.4375,0.7208,-0.1483,0.6539,0.1758,
2025-03-09 23:11:14.999,9.7400,0.5900,-0.6300,-6.2500,0.3750,3.3750,0.7207,-0.1487,0.6539,0.1760,
2025-03-09 23:11:15.008,9.7600,0.5700,-0.6500,-6.4375,0.1250,3.3750,0.7205,-0.1494,0.6539,0.1762,
2025-03-09 23:11:15.017,9.8100,0.5200,-0.6700,-6.3125,0.0625,3.3750,0.7203,-0.1499,0.6539,0.1764,
2025-03-09 23:11:15.028,9.8700,0.5400,-0.6900,-5.8750,0.5000,3.1875,0.7202,-0.1504,0.6539,0.1766,
2025-03-09 23:11:15.040,9.8400,0.4700,-0.6800,-5.5000,0.8750,3.0625,0.7200,-0.1509,0.6539,0.1768,
2025-03-09 23:11:15.049,9.8300,0.4500,-0.6900,-4.8125,1.0625,3.1875,0.7198,-0.1514,0.6540,0.1769,
2025-03-09 23:11:15.059,9.7800,0.4500,-0.6700,-4.7500,0.7500,3.0625,0.7196,-0.1518,0.6540,0.1771,
2025-03-09 23:11:15.069,9.7400,0.4300,-0.6200,-4.6250,0.5625,3.1875,0.7195,-0.1522,0.6541,0.1771,
2025-03-09 23:11:15.078,9.7500,0.4400,-0.6500,-4.2500,-0.1250,3.0625,0.7193,-0.1527,0.6541,0.1772,
2025-03-09 23:11:15.086,9.7700,0.4400,-0.6700,-3.8750,-0.6875,2.8750,0.7193,-0.1531,0.6541,0.1773,
2025-03-09 23:11:15.096,9.7800,0.4500,-0.6800,-3.6875,-0.8125,2.9375,0.7192,-0.1535,0.6541,0.1773,
2025-03-09 23:11:15.106,9.8200,0.3800,-0.6700,-3.5000,-0.5625,2.6250,0.7191,-0.1539,0.6541,0.1774,
2025-03-09 23:11:15.116,9.8400,0.3900,-0.6500,-3.0000,-0.3125,2.4375,0.7189,-0.1542,0.6541,0.1774,
2025-03-09 23:11:15.131,9.8300,0.3500,-0.6600,-2.6875,-0.1250,2.4375,0.7189,-0.1545,0.6541,0.1774,
2025-03-09 23:11:15.172,9.8400,0.3600,-0.6300,-2.6875,-0.1250,2.2500,0.7187,-0.1548,0.6542,0.1774,
2025-03-09 23:11:15.172,9.8500,0.3900,-0.6400,-2.3750,-0.5000,2.1875,0.7186,-0.1552,0.6542,0.1774,
2025-03-09 23:11:15.172,9.8700,0.4100,-0.6700,-1.6250,-1.0625,2.1875,0.7186,-0.1554,0.6542,0.1774,
2025-03-09 23:11:15.172,9.8900,0.4500,-0.6900,-0.8750,-1.5625,2.2500,0.7186,-0.1556,0.6542,0.1772,
2025-03-09 23:11:15.180,9.8900,0.5400,-0.7700,-0.4375,-1.2500,2.6875,0.7187,-0.1558,0.6541,0.1771,
2025-03-09 23:11:15.187,9.8800,0.5600,-0.8000,-0.6875,-1.3125,3.0625,0.7187,-0.1560,0.6541,0.1769,
2025-03-09 23:11:15.201,9.8100,0.6000,-0.7900,-1.3750,-1.0000,3.1250,0.7187,-0.1563,0.6540,0.1769,
2025-03-09 23:11:15.212,9.7500,0.5900,-0.7500,-2.3750,-1.0000,3.3750,0.7186,-0.1567,0.6540,0.1768,
2025-03-09 23:11:15.217,9.7300,0.5400,-0.7200,-3.5000,-0.8125,3.5000,0.7186,-0.1570,0.6540,0.1768,
2025-03-09 23:11:15.234,9.7200,0.5000,-0.7700,-4.5000,-0.5000,3.5000,0.7184,-0.1575,0.6540,0.1769,
2025-03-09 23:11:15.237,9.7000,0.4700,-0.7200,-5.2500,-0.1875,3.5625,0.7183,-0.1580,0.6540,0.1771,
2025-03-09 23:11:15.247,9.7600,0.3500,-0.7000,-5.8125,-0.0625,3.4375,0.7182,-0.1586,0.6539,0.1772,
2025-03-09 23:11:15.261,9.7900,0.3700,-0.7200,-5.5000,0.1250,3.1875,0.7181,-0.1591,0.6539,0.1774,
2025-03-09 23:11:15.261,9.8400,0.3100,-0.7000,-4.5000,-0.1250,3.2500,0.7181,-0.1591,0.6539,0.1774,
2025-03-09 23:11:15.272,9.8700,0.3300,-0.7200,-3.3750,-0.0625,2.8125,0.7179,-0.1595,0.6539,0.1774,
2025-03-09 23:11:15.281,9.8900,0.3300,-0.7400,-2.2500,-0.2500,2.7500,0.7178,-0.1599,0.6539,0.1775,
2025-03-09 23:11:15.291,9.8700,0.3200,-0.7100,-0.9375,-0.1875,2.8750,0.7177,-0.1602,0.6540,0.1775,
2025-03-09 23:11:15.301,9.8400,0.3100,-0.6900,-0.5625,0.1250,2.8125,0.7177,-0.1605,0.6540,0.1774,
2025-03-09 23:11:15.317,9.8600,0.3800,-0.6500,-0.8125,0.1875,2.6875,0.7176,-0.1606,0.6540,0.1772,
2025-03-09 23:11:15.329,9.8900,0.3700,-0.6900,-1.3125,0.3750,2.7500,0.7176,-0.1608,0.6541,0.1771,
2025-03-09 23:11:15.337,9.9100,0.4000,-0.6600,-1.1250,0.5625,2.9375,0.7175,-0.1611,0.6542,0.1770,
2025-03-09 23:11:15.348,9.8800,0.4000,-0.6600,-0.1875,0.5625,2.8750,0.7174,-0.1613,0.6542,0.1769,
2025-03-09 23:11:15.359,9.8500,0.4100,-0.6900,0.3125,0.6250,2.5625,0.7173,-0.1615,0.6543,0.1768,
2025-03-09 23:11:15.368,9.8600,0.4300,-0.7200,1.0625,0.8125,2.2500,0.7173,-0.1617,0.6544,0.1766,
2025-03-09 23:11:15.378,9.8400,0.3800,-0.7000,1.3750,0.8750,1.6875,0.7172,-0.1617,0.6545,0.1765,
2025-03-09 23:11:15.389,9.8200,0.3400,-0.6500,1.6250,1.4375,1.6875,0.7171,-0.1617,0.6546,0.1763,
2025-03-09 23:11:15.398,9.8300,0.3500,-0.6300,1.1250,1.7500,1.4375,0.7170,-0.1617,0.6547,0.1761,
2025-03-09 23:11:15.410,9.8400,0.3400,-0.6300,0.8750,1.8750,1.6250,0.7169,-0.1617,0.6549,0.1760,
2025-03-09 23:11:15.416,9.8500,0.3400,-0.6900,1.6250,1.6875,1.5625,0.7168,-0.1617,0.6551,0.1758,
2025-03-09 23:11:15.428,9.8600,0.3400,-0.7300,2.4375,1.4375,1.6875,0.7167,-0.1617,0.6553,0.1757,
2025-03-09 23:11:15.448,9.8200,0.3600,-0.7600,2.7500,1.3750,1.6250,0.7166,-0.1617,0.6554,0.1755,
2025-03-09 23:11:15.474,9.8100,0.3900,-0.7700,3.1875,1.3125,1.5000,0.7165,-0.1616,0.6556,0.1752,
2025-03-09 23:11:15.474,9.7900,0.4200,-0.7000,3.1250,1.0000,1.3125,0.7165,-0.1615,0.6557,0.1750,
2025-03-09 23:11:15.474,9.7800,0.4100,-0.6600,2.7500,1.0000,1.4375,0.7164,-0.1614,0.6558,0.1747,
2025-03-09 23:11:15.478,9.7900,0.4000,-0.6900,2.3750,1.5625,1.3750,0.7164,-0.1613,0.6559,0.1745,
2025-03-09 23:11:15.488,9.7800,0.3900,-0.6900,1.7500,1.7500,1.5000,0.7163,-0.1612,0.6561,0.1743,
2025-03-09 23:11:15.497,9.8000,0.3800,-0.6900,1.3125,1.8125,1.5000,0.7163,-0.1612,0.6563,0.1741,
2025-03-09 23:11:15.507,9.8300,0.3600,-0.6800,1.6875,2.0000,1.4375,0.7161,-0.1612,0.6564,0.1740,
2025-03-09 23:11:15.518,9.8300,0.3800,-0.6700,2.1875,2.0625,1.1875,0.7160,-0.1611,0.6566,0.1738,
2025-03-09 23:11:15.526,9.8200,0.3900,-0.6600,2.5625,1.7500,0.8750,0.7159,-0.1611,0.6568,0.1736,
2025-03-09 23:11:15.537,9.8300,0.3600,-0.7000,2.5000,1.5625,0.6250,0.7158,-0.1610,0.6569,0.1735,
2025-03-09 23:11:15.547,9.8500,0.3200,-0.6800,2.7500,1.3125,0.6250,0.7158,-0.1608,0.6571,0.1733,
2025-03-09 23:11:15.560,9.8700,0.3300,-0.6700,2.7500,1.3750,0.4375,0.7157,-0.1606,0.6572,0.1732,
2025-03-09 23:11:15.569,9.8500,0.2900,-0.7000,2.6875,1.5000,0.8125,0.7157,-0.1605,0.6573,0.1730,
2025-03-09 23:11:15.579,9.7800,0.3400,-0.7200,3.0000,1.6875,0.6875,0.7156,-0.1604,0.6575,0.1728,
2025-03-09 23:11:15.581,9.7900,0.3300,-0.7000,2.8125,1.4375,0.5000,0.7156,-0.1602,0.6576,0.1726,
2025-03-09 23:11:15.591,9.7900,0.3600,-0.6900,3.1250,1.0625,0.3125,0.7155,-0.1600,0.6578,0.1725,
2025-03-09 23:11:15.601,9.7900,0.3500,-0.6800,3.3125,1.0000,0.3125,0.7155,-0.1598,0.6579,0.1723,
2025-03-09 23:11:15.624,9.7800,0.3400,-0.6600,3.2500,1.2500,0.0625,0.7155,-0.1597,0.6580,0.1721,
2025-03-09 23:11:15.629,9.7700,0.3600,-0.6800,3.1875,1.3750,0.1250,0.7154,-0.1595,0.6581,0.1719,
2025-03-09 23:11:15.642,9.7500,0.3200,-0.6600,2.9375,1.6875,0.2500,0.7154,-0.1592,0.6583,0.1717,
2025-03-09 23:11:15.654,9.7400,0.3100,-0.6600,2.7500,1.5625,0.1875,0.7154,-0.1591,0.6584,0.1716,
2025-03-09 23:11:15.658,9.7600,0.2700,-0.6500,2.9375,1.0625,0.1875,0.7153,-0.1589,0.6585,0.1715,
2025-03-09 23:11:15.669,9.7800,0.2700,-0.6600,2.8125,0.6875,0.1875,0.7153,-0.1587,0.6586,0.1713,
2025-03-09 23:11:15.678,9.8000,0.3200,-0.7200,3.3125,0.8750,0.1875,0.7153,-0.1586,0.6587,0.1711,
2025-03-09 23:11:15.688,9.7900,0.3700,-0.7100,3.6875,0.6250,0.3125,0.7153,-0.1583,0.6588,0.1709,
2025-03-09 23:11:15.694,9.7800,0.3900,-0.6800,4.5000,0.3125,0.5000,0.7153,-0.1581,0.6589,0.1707,
2025-03-09 23:11:15.712,9.7600,0.4600,-0.6900,4.3750,0.1875,0.4375,0.7154,-0.1579,0.6590,0.1704,
2025-03-09 23:11:15.712,9.7700,0.4900,-0.6800,4.2500,0.5000,0.3750,0.7154,-0.1577,0.6590,0.1702,
2025-03-09 23:11:15.729,9.8000,0.4700,-0.7200,3.4375,0.5625,0.3125,0.7155,-0.1574,0.6591,0.1699,
2025-03-09 23:11:15.746,9.7700,0.4400,-0.7000,3.0000,1.2500,0.1875,0.7156,-0.1572,0.6591,0.1697,
2025-03-09 23:11:15.766,9.7500,0.3300,-0.7000,2.8750,1.4375,0.2500,0.7155,-0.1570,0.6593,0.1696,
2025-03-09 23:11:15.766,9.7700,0.3400,-0.6800,3.0000,1.3125,0.2500,0.7155,-0.1568,0.6594,0.1694,
2025-03-09 23:11:15.766,9.7800,0.3600,-0.6800,3.0000,1.1875,0.3125,0.7155,-0.1566,0.6595,0.1693,
2025-03-09 23:11:15.779,9.7800,0.4300,-0.6800,2.8750,0.9375,0.1875,0.7155,-0.1564,0.6596,0.1691,
2025-03-09 23:11:15.788,9.7900,0.4400,-0.6800,3.0000,0.3125,0.0625,0.7154,-0.1562,0.6597,0.1689,
2025-03-09 23:11:15.802,9.7900,0.4800,-0.6800,3.1875,-0.0625,0.0000,0.7155,-0.1561,0.6597,0.1688,
2025-03-09 23:11:15.833,9.7900,0.4800,-0.6800,3.1250,-0.1250,-0.3125,0.7155,-0.1559,0.6598,0.1686,
2025-03-09 23:11:15.833,9.7800,0.4600,-0.6600,2.6875,-0.1250,-0.1875,0.7156,-0.1557,0.6598,0.1684,
2025-03-09 23:11:15.843,9.7700,0.4300,-0.6600,2.3125,0.0000,-0.3125,0.7156,-0.1555,0.6599,0.1682,
2025-03-09 23:11:15.843,9.7600,0.4300,-0.6500,1.5625,0.5000,-0.1875,0.7156,-0.1554,0.6599,0.1681,
2025-03-09 23:11:15.843,9.7600,0.4300,-0.6300,0.9375,0.6875,-0.1250,0.7156,-0.1553,0.6599,0.1680,
2025-03-09 23:11:15.859,9.7900,0.4500,-0.6600,0.5000,0.5625,-0.1875,0.7156,-0.1552,0.6600,0.1680,
2025-03-09 23:11:15.868,9.8000,0.4200,-0.6800,0.6875,0.3125,-0.3750,0.7156,-0.1552,0.6600,0.1680,
2025-03-09 23:11:15.878,9.8100,0.4200,-0.7000,1.0625,-0.1250,-0.3125,0.7156,-0.1552,0.6600,0.1680,
2025-03-09 23:11:15.888,9.8400,0.4400,-0.7000,1.1875,-0.4375,-0.3125,0.7156,-0.1551,0.6600,0.1679,
2025-03-09 23:11:15.898,9.8400,0.4400,-0.7000,1.0625,-0.8125,-0.1875,0.7156,-0.1550,0.6600,0.1678,
2025-03-09 23:11:15.908,9.8300,0.4200,-0.6900,0.4375,-0.4375,0.0000,0.7157,-0.1550,0.6600,0.1678,
2025-03-09 23:11:15.919,9.8100,0.3900,-0.7100,-0.1250,-0.0625,0.1250,0.7157,-0.1550,0.6600,0.1678,
2025-03-09 23:11:15.929,9.7800,0.3900,-0.7200,-0.5000,0.4375,0.2500,0.7157,-0.1550,0.6600,0.1678,
2025-03-09 23:11:15.939,9.7800,0.3900,-0.7000,-0.7500,0.1875,0.1875,0.7157,-0.1549,0.6600,0.1678,
2025-03-09 23:11:15.951,9.7900,0.4000,-0.7400,-0.6250,-0.3750,0.1250,0.7157,-0.1550,0.6600,0.1678,
2025-03-09 23:11:15.961,9.8000,0.5100,-0.8100,-0.5625,-1.0625,-0.1875,0.7157,-0.1550,0.6600,0.1679,
2025-03-09 23:11:15.971,9.7700,0.5500,-0.8600,-0.6250,-1.5625,-0.1250,0.7158,-0.1550,0.6599,0.1679,
2025-03-09 23:11:15.977,9.7400,0.5600,-0.9400,-0.7500,-1.6875,-0.2500,0.7159,-0.1550,0.6598,0.1679,
2025-03-09 23:11:15.988,9.7100,0.5600,-0.8900,-1.1875,-2.0000,0.0000,0.7160,-0.1551,0.6596,0.1680,
2025-03-09 23:11:15.996,9.6900,0.4800,-0.8100,-2.3750,-1.3750,0.4375,0.7162,-0.1551,0.6594,0.1681,
2025-03-09 23:11:16.007,9.7000,0.4200,-0.7200,-3.6875,-0.6250,1.0000,0.7162,-0.1552,0.6592,0.1682,
2025-03-09 23:11:16.020,9.6900,0.3700,-0.6300,-5.0000,-0.4375,1.5625,0.7163,-0.1555,0.6591,0.1684,
2025-03-09 23:11:16.029,9.7900,0.2700,-0.5500,-5.8125,-0.4375,2.2500,0.7161,-0.1559,0.6591,0.1686,
2025-03-09 23:11:16.069,9.8300,0.2700,-0.5300,-5.8750,-0.6250,2.2500,0.7160,-0.1563,0.6591,0.1689,
2025-03-09 23:11:16.072,9.8700,0.2400,-0.5000,-5.4375,-0.9375,2.0000,0.7159,-0.1568,0.6590,0.1691,
2025-03-09 23:11:16.073,9.9000,0.2400,-0.5200,-4.1250,-1.0000,1.4375,0.7159,-0.1572,0.6589,0.1693,
2025-03-09 23:11:16.073,9.9900,0.1100,-0.5000,-2.3750,-0.6250,1.0000,0.7159,-0.1576,0.6588,0.1695,
2025-03-09 23:11:16.076,10.0100,0.1000,-0.4700,-0.3750,0.1250,0.8125,0.7158,-0.1578,0.6588,0.1695,
2025-03-09 23:11:16.087,10.0000,0.0800,-0.4300,1.3125,1.0000,0.9375,0.7157,-0.1579,0.6589,0.1694,
2025-03-09 23:11:16.097,9.9600,0.1200,-0.4600,2.5625,1.2500,1.0000,0.7155,-0.1579,0.6591,0.1693,
2025-03-09 23:11:16.108,9.9600,0.1200,-0.4600,4.0000,1.5000,1.1250,0.7154,-0.1579,0.6593,0.1690,
2025-03-09 23:11:16.121,9.9400,0.2100,-0.6300,5.3125,1.6250,1.0625,0.7153,-0.1577,0.6596,0.1687,
2025-03-09 23:11:16.131,9.9100,0.3000,-0.6800,6.5000,1.8125,1.1250,0.7152,-0.1575,0.6599,0.1683,
2025-03-09 23:11:16.140,9.8700,0.4700,-0.8200,7.1250,1.8750,0.9375,0.7151,-0.1572,0.6601,0.1678,
2025-03-09 23:11:16.152,9.8000,0.5900,-0.8300,6.2500,1.1875,0.5625,0.7152,-0.1564,0.6605,0.1669,
2025-03-09 23:11:16.172,9.7100,0.5800,-0.8000,4.5000,1.1250,0.6875,0.7152,-0.1561,0.6606,0.1666,
2025-03-09 23:11:16.172,9.6700,0.5200,-0.7500,1.8750,1.1250,0.8125,0.7152,-0.1559,0.6608,0.1663,
2025-03-09 23:11:16.190,9.6700,0.4400,-0.7700,-0.4375,1.2500,1.1250,0.7151,-0.1558,0.6609,0.1661,
2025-03-09 23:11:16.200,9.6800,0.3800,-0.7000,-2.1875,1.5000,1.0625,0.7150,-0.1558,0.6610,0.1661,
2025-03-09 23:11:16.219,9.7200,0.3500,-0.6400,-2.4375,0.8125,0.9375,0.7148,-0.1562,0.6611,0.1663,
2025-03-09 23:11:16.231,9.7700,0.3700,-0.6700,-1.7500,0.1875,0.8125,0.7147,-0.1564,0.6611,0.1664,
2025-03-09 23:11:16.239,9.8300,0.3800,-0.6900,-1.0000,-0.4375,0.8125,0.7146,-0.1565,0.6611,0.1665,
2025-03-09 23:11:16.259,9.8600,0.3700,-0.6600,-1.1875,0.3750,0.5625,0.7146,-0.1567,0.6611,0.1666,
2025-03-09 23:11:16.270,9.7900,0.2900,-0.5900,-2.0625,0.5625,0.7500,0.7146,-0.1567,0.6611,0.1666,
2025-03-09 23:11:16.284,9.8600,0.1800,-0.5600,-3.4375,0.8750,0.5625,0.7144,-0.1571,0.6611,0.1669,
2025-03-09 23:11:16.304,9.8800,0.1900,-0.6100,-2.5000,0.6875,0.5000,0.7142,-0.1574,0.6611,0.1673,
2025-03-09 23:11:16.320,9.8900,0.2400,-0.6700,-1.3750,0.6250,0.4375,0.7142,-0.1575,0.6611,0.1675,
2025-03-09 23:11:16.356,9.8000,0.2100,-0.6500,0.3750,1.0000,0.5625,0.7140,-0.1576,0.6612,0.1675,
2025-03-09 23:11:16.373,9.7600,0.1400,-0.6100,0.4375,1.9375,0.6250,0.7139,-0.1576,0.6614,0.1675,
2025-03-09 23:11:16.373,9.7600,0.1400,-0.6100,0.5625,1.7500,0.5625,0.7138,-0.1576,0.6616,0.1675,
2025-03-09 23:11:16.384,9.8500,0.2900,-0.6700,2.1875,0.7500,0.6250,0.7136,-0.1576,0.6618,0.1674,
2025-03-09 23:11:16.411,9.8500,0.3600,-0.6500,3.0000,0.2500,0.3750,0.7136,-0.1574,0.6619,0.1671,
2025-03-09 23:11:16.422,9.7700,0.4400,-0.6400,2.3750,0.3750,0.4375,0.7136,-0.1572,0.6620,0.1669,
2025-03-09 23:11:16.439,9.7800,0.3100,-0.6200,0.4375,1.1250,0.2500,0.7136,-0.1569,0.6621,0.1666,
2025-03-09 23:11:16.458,9.7500,0.3100,-0.6000,-0.6250,1.1875,0.1250,0.7135,-0.1569,0.6622,0.1667,
2025-03-09 23:11:16.480,9.8200,0.2900,-0.6100,-0.8125,0.5000,-0.0625,0.7134,-0.1569,0.6623,0.1668,
2025-03-09 23:11:16.492,9.8100,0.2800,-0.6100,-0.0625,-0.0625,-0.0625,0.7134,-0.1570,0.6622,0.1669,
2025-03-09 23:11:16.510,9.7800,0.2700,-0.5900,0.0625,0.1875,-0.1250,0.7134,-0.1570,0.6622,0.1669,
2025-03-09 23:11:16.522,9.7600,0.1600,-0.5400,0.1250,0.8125,0.0000,0.7134,-0.1570,0.6623,0.1669,
2025-03-09 23:11:16.549,9.8200,0.2400,-0.6000,0.8750,0.5625,-0.0625,0.7133,-0.1570,0.6624,0.1669,
2025-03-09 23:11:16.559,9.8100,0.2700,-0.5800,1.6250,0.1250,0.2500,0.7133,-0.1569,0.6624,0.1667,
2025-03-09 23:11:16.570,9.8200,0.3200,-0.6300,2.1250,-0.1250,0.1875,0.7133,-0.1567,0.6625,0.1666,
2025-03-09 23:11:16.598,9.7900,0.2900,-0.6400,1.3750,0.3750,-0.1250,0.7134,-0.1565,0.6625,0.1663,
2025-03-09 23:11:16.604,9.8000,0.2300,-0.6100,1.0625,0.1875,-0.0625,0.7134,-0.1564,0.6625,0.1661,
2025-03-09 23:11:16.614,9.7900,0.2500,-0.6000,0.9375,-0.1250,0.1250,0.7134,-0.1563,0.6626,0.1661,
2025-03-09 23:11:16.669,9.8300,0.3800,-0.6200,1.3750,-0.3125,0.0625,0.7134,-0.1562,0.6626,0.1660,
2025-03-09 23:11:16.679,9.8500,0.4000,-0.6500,1.4375,-0.4375,0.0625,0.7135,-0.1560,0.6626,0.1658,
2025-03-09 23:11:16.679,9.8200,0.3600,-0.6800,1.0000,-0.1875,-0.1250,0.7135,-0.1559,0.6627,0.1657,
2025-03-09 23:11:16.692,9.7800,0.2800,-0.6100,-0.3750,0.6250,-0.4375,0.7135,-0.1559,0.6627,0.1657,
2025-03-09 23:11:16.703,9.8200,0.2000,-0.5600,-0.6250,0.3750,-0.1250,0.7135,-0.1559,0.6627,0.1657,
2025-03-09 23:11:16.712,9.8400,0.2000,-0.5200,0.0000,0.1875,-0.1250,0.7135,-0.1559,0.6627,0.1657,
2025-03-09 23:11:16.744,9.8300,0.2700,-0.5700,1.9375,-0.1875,-0.2500,0.7134,-0.1559,0.6628,0.1656,
2025-03-09 23:11:16.758,9.8200,0.3600,-0.6500,2.5000,-0.3125,-0.2500,0.7135,-0.1556,0.6628,0.1654,
2025-03-09 23:11:16.769,9.8300,0.3600,-0.6400,1.8750,0.0000,-0.5000,0.7136,-0.1555,0.6628,0.1653,
2025-03-09 23:11:16.790,9.8300,0.2800,-0.6900,0.6250,0.7500,-0.6250,0.7136,-0.1553,0.6629,0.1651,
2025-03-09 23:11:16.810,9.8000,0.2600,-0.6300,0.6875,0.5625,-0.2500,0.7136,-0.1552,0.6630,0.1650,
2025-03-09 23:11:16.823,9.7800,0.2800,-0.6100,1.1250,-0.4375,-0.1250,0.7135,-0.1551,0.6630,0.1650,
2025-03-09 23:11:16.835,9.8100,0.3400,-0.6200,1.1250,-0.3125,0.0625,0.7136,-0.1550,0.6630,0.1649,
2025-03-09 23:11:16.856,9.7900,0.3500,-0.5800,1.1875,0.0000,0.0000,0.7136,-0.1548,0.6631,0.1647,
2025-03-09 23:11:16.866,9.7800,0.3200,-0.6000,0.3750,0.4375,0.3125,0.7136,-0.1548,0.6631,0.1647,
2025-03-09 23:11:16.894,9.7800,0.2600,-0.6000,-0.6250,0.5625,0.5625,0.7136,-0.1548,0.6631,0.1647,
2025-03-09 23:11:16.902,9.7800,0.2500,-0.5800,-0.3125,0.5000,0.4375,0.7136,-0.1548,0.6631,0.1647,
2025-03-09 23:11:16.921,9.7800,0.2800,-0.5800,0.4375,0.2500,0.2500,0.7136,-0.1548,0.6631,0.1647,
2025-03-09 23:11:16.967,9.8500,0.2900,-0.6700,0.9375,0.0625,0.1250,0.7136,-0.1548,0.6631,0.1647,
2025-03-09 23:11:16.977,9.8300,0.3000,-0.6500,0.8750,0.1875,0.1875,0.7136,-0.1547,0.6631,0.1645,
2025-03-09 23:11:16.977,9.7900,0.2600,-0.6100,0.1875,0.3125,0.2500,0.7136,-0.1547,0.6631,0.1645,
2025-03-09 23:11:16.990,9.8300,0.2600,-0.6100,-0.1250,0.1250,0.4375,0.7136,-0.1547,0.6631,0.1645,
2025-03-09 23:11:16.999,9.8300,0.3100,-0.6100,-0.1875,-0.0625,0.3750,0.7136,-0.1547,0.6631,0.1645,
2025-03-09 23:11:17.022,9.8200,0.3400,-0.6100,0.0625,-0.0625,0.0625,0.7136,-0.1547,0.6631,0.1645,
2025-03-09 23:11:17.042,9.7800,0.2800,-0.6000,0.1875,0.0000,0.0000,0.7136,-0.1547,0.6631,0.1645,
2025-03-09 23:11:17.058,9.7900,0.2300,-0.5900,-0.1250,0.0625,0.0625,0.7136,-0.1547,0.6631,0.1645,
2025-03-09 23:11:17.078,9.8000,0.2600,-0.5900,-0.1250,0.1875,0.1875,0.7136,-0.1547,0.6631,0.1645,
2025-03-09 23:11:17.090,9.8200,0.3200,-0.6400,0.7500,-0.2500,0.1250,0.7136,-0.1546,0.6632,0.1645,
2025-03-09 23:11:17.110,9.8000,0.3400,-0.6600,0.5625,-0.4375,0.0000,0.7136,-0.1545,0.6632,0.1644,
2025-03-09 23:11:17.120,9.8000,0.3200,-0.6300,0.0000,-0.5000,-0.1875,0.7136,-0.1545,0.6632,0.1644,
2025-03-09 23:11:17.145,9.8000,0.2400,-0.6100,-0.8125,0.0625,-0.1250,0.7136,-0.1546,0.6632,0.1645,
2025-03-09 23:11:17.165,9.8200,0.2400,-0.5800,-0.7500,-0.0625,0.0000,0.7136,-0.1547,0.6632,0.1646,
2025-03-09 23:11:17.165,9.8400,0.2800,-0.6100,-0.1875,-0.3125,0.1250,0.7136,-0.1547,0.6632,0.1646,
2025-03-09 23:11:17.185,9.8400,0.3500,-0.6400,0.5000,-0.5625,-0.2500,0.7136,-0.1547,0.6632,0.1646,
2025-03-09 23:11:17.207,9.8000,0.3400,-0.6300,0.3125,-0.3750,-0.3750,0.7136,-0.1547,0.6632,0.1646,
2025-03-09 23:11:17.221,9.7900,0.2600,-0.6100,0.1250,-0.0625,-0.3125,0.7136,-0.1547,0.6632,0.1646,
2025-03-09 23:11:17.252,9.7700,0.2600,-0.6300,-0.3750,-0.1250,0.0000,0.7136,-0.1547,0.6632,0.1646,
2025-03-09 23:11:17.262,9.8400,0.3300,-0.6500,0.1875,-0.3750,0.1875,0.7136,-0.1547,0.6632,0.1646,
2025-03-09 23:11:17.272,9.8500,0.3900,-0.6300,0.4375,-0.4375,0.0000,0.7136,-0.1547,0.6632,0.1646,
2025-03-09 23:11:17.291,9.8300,0.3600,-0.6900,0.2500,-0.3750,-0.0625,0.7136,-0.1547,0.6632,0.1646,
2025-03-09 23:11:17.299,9.7900,0.2600,-0.6400,-1.0000,0.2500,-0.0625,0.7136,-0.1547,0.6632,0.1646,
2025-03-09 23:11:17.320,9.7900,0.2200,-0.5500,-1.5625,0.3750,-0.1875,0.7135,-0.1548,0.6631,0.1647,
2025-03-09 23:11:17.339,9.7800,0.2600,-0.6000,-0.7500,0.1250,0.0000,0.7135,-0.1550,0.6631,0.1649,
2025-03-09 23:11:17.350,9.8100,0.3600,-0.6400,0.3750,-0.4375,-0.2500,0.7135,-0.1550,0.6631,0.1649,
2025-03-09 23:11:17.371,9.8100,0.3700,-0.6800,0.4375,-0.6250,-0.1250,0.7135,-0.1550,0.6631,0.1649,
2025-03-09 23:11:17.391,9.7800,0.3600,-0.6600,0.0000,0.0000,0.1250,0.7136,-0.1550,0.6630,0.1649,
2025-03-09 23:11:17.409,9.8300,0.3200,-0.6500,-1.0625,0.5625,0.0000,0.7136,-0.1550,0.6630,0.1649,
2025-03-09 23:11:17.421,9.8700,0.2900,-0.6200,-1.5000,0.2500,0.3125,0.7136,-0.1551,0.6630,0.1650,
2025-03-09 23:11:17.439,9.8200,0.3100,-0.6200,-2.0000,-0.1875,0.2500,0.7135,-0.1553,0.6630,0.1652,
2025-03-09 23:11:17.451,9.7800,0.3000,-0.6100,-1.7500,-0.5000,0.1875,0.7135,-0.1555,0.6629,0.1653,
2025-03-09 23:11:17.470,9.7700,0.3100,-0.6200,-0.5625,-0.4375,0.0625,0.7134,-0.1555,0.6629,0.1654,
2025-03-09 23:11:17.489,9.8300,0.2700,-0.6300,-0.7500,0.1875,0.0625,0.7134,-0.1555,0.6629,0.1655,
2025-03-09 23:11:17.505,9.8700,0.3200,-0.7000,-1.2500,0.5625,0.2500,0.7134,-0.1556,0.6628,0.1656,
2025-03-09 23:11:17.518,9.8400,0.3200,-0.6600,-1.3125,0.3125,0.1875,0.7134,-0.1558,0.6629,0.1657,
2025-03-09 23:11:17.574,9.8400,0.2800,-0.6500,-1.1875,-0.1250,0.0000,0.7134,-0.1558,0.6628,0.1658,
2025-03-09 23:11:17.574,9.7600,0.3300,-0.6100,-1.4375,-0.5000,0.1875,0.7133,-0.1559,0.6628,0.1660,
2025-03-09 23:11:17.574,9.7900,0.4000,-0.6400,-1.0000,-0.3750,0.1875,0.7133,-0.1561,0.6628,0.1661,
2025-03-09 23:11:17.590,9.8300,0.3900,-0.7300,-1.1875,-0.3125,0.4375,0.7133,-0.1563,0.6627,0.1662,
2025-03-09 23:11:17.594,9.8300,0.4000,-0.7300,-1.5000,-0.2500,0.5000,0.7133,-0.1563,0.6627,0.1663,
2025-03-09 23:11:17.631,9.8000,0.3500,-0.6700,-2.2500,0.2500,0.4375,0.7132,-0.1566,0.6627,0.1666,
2025-03-09 23:11:17.631,9.8000,0.3100,-0.6700,-2.6250,0.3750,0.3125,0.7132,-0.1567,0.6626,0.1667,
2025-03-09 23:11:17.639,9.7900,0.2900,-0.6600,-2.5625,0.0000,0.1875,0.7131,-0.1569,0.6626,0.1669,
2025-03-09 23:11:17.649,9.8300,0.2900,-0.6900,-2.0625,-0.0625,0.2500,0.7131,-0.1570,0.6626,0.1670,
2025-03-09 23:11:17.658,9.8500,0.3500,-0.7100,-1.8125,-0.3750,0.2500,0.7131,-0.1570,0.6625,0.1671,
2025-03-09 23:11:17.671,9.8300,0.3800,-0.6900,-1.5000,-0.3750,0.2500,0.7130,-0.1572,0.6625,0.1672,
2025-03-09 23:11:17.682,9.8300,0.4200,-0.7200,-1.1875,-0.3125,0.3125,0.7130,-0.1572,0.6625,0.1672,
2025-03-09 23:11:17.691,9.7800,0.4400,-0.7400,-1.3750,-0.3125,0.2500,0.7130,-0.1573,0.6625,0.1674,
2025-03-09 23:11:17.693,9.8000,0.4100,-0.7200,-2.1875,-0.1250,0.2500,0.7130,-0.1574,0.6625,0.1675,
2025-03-09 23:11:17.703,9.8200,0.3800,-0.7000,-3.0625,0.2500,0.0625,0.7129,-0.1576,0.6624,0.1677,
2025-03-09 23:11:17.714,9.8400,0.3600,-0.6700,-3.6875,0.3125,0.1250,0.7129,-0.1578,0.6623,0.1679,
2025-03-09 23:11:17.737,9.8500,0.3300,-0.6700,-3.9375,0.3125,0.3750,0.7128,-0.1580,0.6623,0.1682,
2025-03-09 23:11:17.740,9.8400,0.3400,-0.6900,-3.8125,0.3125,0.5000,0.7128,-0.1582,0.6622,0.1683,
2025-03-09 23:11:17.749,9.8600,0.3700,-0.6800,-3.5000,0.1250,0.4375,0.7127,-0.1584,0.6622,0.1686,
2025-03-09 23:11:17.758,9.8500,0.3900,-0.7100,-3.5625,-0.1250,0.5625,0.7127,-0.1586,0.6622,0.1688,
2025-03-09 23:11:17.769,9.8300,0.3900,-0.7100,-3.6250,-0.0625,0.6875,0.7126,-0.1589,0.6621,0.1689,
2025-03-09 23:11:17.780,9.8300,0.3400,-0.6900,-3.6875,0.3750,0.6250,0.7126,-0.1591,0.6621,0.1691,
2025-03-09 23:11:17.791,9.8100,0.3400,-0.7200,-3.7500,0.6250,0.5625,0.7125,-0.1593,0.6621,0.1694,
2025-03-09 23:11:17.796,9.7900,0.3400,-0.6800,-4.0000,0.8750,0.5625,0.7123,-0.1595,0.6621,0.1697,
2025-03-09 23:11:17.802,9.7900,0.3700,-0.7400,-4.1875,0.9375,0.6875,0.7122,-0.1598,0.6621,0.1699,
2025-03-09 23:11:17.822,9.8100,0.3500,-0.7100,-4.9375,1.9375,0.6250,0.7120,-0.1601,0.6621,0.1702,
2025-03-09 23:11:17.822,9.8200,0.3600,-0.6500,-4.9375,1.9375,0.6250,0.7119,-0.1604,0.6622,0.1705,
2025-03-09 23:11:17.870,9.8700,0.3700,-0.7100,-4.7500,1.3125,-0.0625,0.7117,-0.1606,0.6622,0.1708,
2025-03-09 23:11:17.873,10.0300,0.4500,-0.8300,-4.7500,0.1875,-0.6250,0.7117,-0.1608,0.6621,0.1711,
2025-03-09 23:11:17.873,10.5400,0.2100,-1.0900,-5.6250,1.3125,-1.6250,0.7115,-0.1611,0.6621,0.1715,
2025-03-09 23:11:17.873,10.5700,0.1100,-1.2400,-2.8750,20.0625,-4.1875,0.7104,-0.1606,0.6632,0.1722,
2025-03-09 23:11:17.878,10.2700,-0.2000,-1.4600,-2.8750,20.0625,-4.1875,0.7093,-0.1603,0.6643,0.1729,
2025-03-09 23:11:17.890,8.8800,-0.2400,-0.8400,-3.0000,29.1250,-2.9375,0.7077,-0.1599,0.6660,0.1736,
2025-03-09 23:11:17.892,8.6400,0.0400,-0.5600,-10.0625,26.6250,-4.5000,0.7061,-0.1597,0.6674,0.1749,
2025-03-09 23:11:17.902,9.2000,0.0300,-0.6500,-13.1875,14.1250,-1.4375,0.7051,-0.1602,0.6680,0.1759,
2025-03-09 23:11:17.918,9.8900,-0.3700,-0.9800,-8.8750,10.7500,7.9375,0.7042,-0.1610,0.6687,0.1762,
2025-03-09 23:11:17.923,10.5200,-0.4000,-0.6300,-7.0625,19.8750,15.2500,0.7028,-0.1620,0.6700,0.1760,
2025-03-09 23:11:17.937,10.8100,0.0800,0.1100,-6.4375,30.8750,17.4375,0.7007,-0.1630,0.6720,0.1758,
2025-03-09 23:11:17.943,11.1400,0.8900,0.9200,-3.3750,41.8125,13.1875,0.6981,-0.1633,0.6746,0.1758,
2025-03-09 23:11:17.953,11.8300,3.2000,2.1400,-7.1875,52.0000,6.4375,0.6949,-0.1633,0.6777,0.1766,
2025-03-09 23:11:17.968,12.0000,4.0300,2.4800,-23.3125,60.0000,3.1250,0.6911,-0.1640,0.6809,0.1786,
2025-03-09 23:11:17.980,12.2200,4.0500,2.6200,-44.6875,67.5625,4.2500,0.6865,-0.1658,0.6843,0.1819,
2025-03-09 23:11:17.987,12.6200,3.8000,2.5000,-68.1250,76.5625,4.8125,0.6809,-0.1688,0.6878,0.1866,
2025-03-09 23:11:17.997,13.4800,2.8600,2.7900,-88.0625,88.2500,1.9375,0.6743,-0.1727,0.6916,0.1929,
2025-03-09 23:11:18.000,13.9800,2.4200,3.0900,-99.1875,102.2500,-1.4375,0.6667,-0.1767,0.6959,0.2001,
2025-03-09 23:11:18.020,14.3900,2.2300,3.3400,-104.5000,117.9375,-5.1250,0.6580,-0.1807,0.7008,0.2082,
2025-03-09 23:11:18.021,13.5900,1.9600,3.8700,-100.8125,136.4375,-7.6250,0.6481,-0.1838,0.7067,0.2162,
2025-03-09 23:11:18.038,13.0900,1.9400,4.0000,-93.5625,155.9375,-9.3750,0.6372,-0.1860,0.7135,0.2244,
2025-03-09 23:11:18.047,12.8900,1.7100,4.0600,-89.0000,175.0000,-9.6875,0.6251,-0.1875,0.7212,0.2324,
2025-03-09 23:11:18.056,12.8300,1.3100,4.0400,-89.7500,192.1250,-8.4375,0.6116,-0.1887,0.7296,0.2407,
2025-03-09 23:11:18.066,12.8200,0.2800,4.3000,-92.2500,206.7500,-6.2500,0.5970,-0.1898,0.7386,0.2491,
2025-03-09 23:11:18.076,12.8800,-0.0900,4.7100,-93.3125,218.3125,-3.8125,0.5814,-0.1909,0.7479,0.2575,
2025-03-09 23:11:18.087,13.0600,-0.3900,5.0800,-90.6875,228.0625,0.5625,0.5648,-0.1916,0.7575,0.2656,
2025-03-09 23:11:18.107,12.8400,-0.7800,5.2100,-86.6875,238.0000,5.1875,0.5474,-0.1920,0.7673,0.2732,
2025-03-09 23:11:18.107,12.2600,-0.7700,5.1300,-86.7500,247.5625,8.0000,0.5291,-0.1922,0.7774,0.2806,
2025-03-09 23:11:18.119,11.8500,-0.7300,5.1400,-91.5000,254.3125,11.3750,0.5100,-0.1927,0.7873,0.2880,
2025-03-09 23:11:18.123,11.6300,-0.5200,5.0000,-99.9375,256.8125,14.9375,0.4900,-0.1937,0.7969,0.2954,
2025-03-09 23:11:18.169,11.1500,0.0600,4.7100,-111.1875,260.5625,17.3750,0.4693,-0.1953,0.8061,0.3030,
2025-03-09 23:11:18.169,10.7700,0.0900,4.6600,-122.9375,266.3750,20.8750,0.4476,-0.1976,0.8149,0.3108,
2025-03-09 23:11:18.170,10.4200,-0.2900,4.6000,-134.6250,271.8125,26.5000,0.4247,-0.2007,0.8233,0.3185,
2025-03-09 23:11:18.170,9.9800,-0.9700,4.6600,-144.0000,274.4375,34.4375,0.4011,-0.2045,0.8314,0.3258,
2025-03-09 23:11:18.178,9.8600,-1.7800,5.0600,-149.5000,272.6250,43.2500,0.3769,-0.2089,0.8389,0.3324,
2025-03-09 23:11:18.189,9.9400,-1.9800,5.2400,-152.0625,268.4375,49.8125,0.3526,-0.2136,0.8459,0.3383,
2025-03-09 23:11:18.205,9.9100,-1.8900,5.5200,-153.5625,266.3125,52.0625,0.3281,-0.2185,0.8523,0.3439,
2025-03-09 23:11:18.209,9.1000,-1.5200,5.9000,-153.9375,266.1250,55.1250,0.3034,-0.2233,0.8581,0.3489,
2025-03-09 23:11:18.218,8.3700,-1.6400,5.7800,-158.0625,265.9375,59.1875,0.2783,-0.2283,0.8634,0.3536,
2025-03-09 23:11:18.223,8.1600,-1.7500,5.7900,-160.7500,265.0625,66.1250,0.2783,-0.2283,0.8634,0.3536,
2025-03-09 23:11:18.235,7.9700,-2.2000,5.5900,-159.3125,259.5000,74.4375,0.2527,-0.2336,0.8682,0.3575,
2025-03-09 23:11:18.252,7.8600,-2.5800,5.5900,-158.1250,253.7500,78.5625,0.2274,-0.2390,0.8725,0.3605,
2025-03-09 23:11:18.252,7.6600,-3.3400,5.7900,-151.2500,246.2500,83.0625,0.2021,-0.2443,0.8763,0.3627,
2025-03-09 23:11:18.279,7.2600,-4.1300,5.8400,-137.7500,238.1250,85.0625,0.1775,-0.2493,0.8796,0.3641,
2025-03-09 23:11:18.280,6.4100,-4.3500,5.9300,-121.0625,228.5000,85.4375,0.1538,-0.2534,0.8827,0.3648,
2025-03-09 23:11:18.287,5.9900,-4.4700,5.7100,-99.8750,218.6875,88.8125,0.1312,-0.2565,0.8854,0.3647,
2025-03-09 23:11:18.299,5.5600,-3.6700,5.8700,-81.0625,210.6875,88.7500,0.1097,-0.2581,0.8882,0.3639,
2025-03-09 23:11:18.307,5.3000,-3.4200,5.9400,-64.7500,201.8750,89.0000,0.0895,-0.2585,0.8909,0.3625,
2025-03-09 23:11:18.318,5.2600,-2.9500,5.3500,-51.0625,194.8125,90.6875,0.0704,-0.2578,0.8936,0.3606,
2025-03-09 23:11:18.328,4.6700,-2.7800,5.6000,-41.3125,189.7500,91.4375,0.0521,-0.2562,0.8963,0.3583,
2025-03-09 23:11:18.338,4.2000,-2.7800,5.3700,-37.1250,181.1875,89.6250,0.0345,-0.2540,0.8988,0.3556,
2025-03-09 23:11:18.349,2.6700,-2.8500,5.5700,-37.8125,173.8125,87.0000,0.0177,-0.2516,0.9011,0.3527,
2025-03-09 23:11:18.358,2.1600,-3.0000,5.8200,-36.8750,164.5000,84.5000,0.0015,-0.2494,0.9030,0.3498,
2025-03-09 23:11:18.370,2.0600,-3.0300,5.6600,-31.4375,153.6875,83.4375,-0.0139,-0.2473,0.9047,0.3467,
2025-03-09 23:11:18.386,1.7400,-3.5000,5.4400,-23.8750,146.3750,78.6250,-0.0284,-0.2451,0.9060,0.3441,
2025-03-09 23:11:18.386,1.0100,-3.6000,5.7200,-16.1875,139.6250,75.9375,-0.0420,-0.2424,0.9073,0.3410,
2025-03-09 23:11:18.406,0.9200,-3.2300,5.6700,-9.6250,128.8125,75.6875,-0.0547,-0.2393,0.9086,0.3380,
2025-03-09 23:11:18.411,0.5900,-2.7600,5.7000,-10.9375,118.4375,75.5625,-0.0664,-0.2360,0.9099,0.3347,
2025-03-09 23:11:18.431,-0.1400,-3.0000,5.7300,-17.3125,109.1250,74.0625,-0.0773,-0.2331,0.9111,0.3311,
2025-03-09 23:11:18.431,-0.4700,-3.1500,5.7900,-20.8750,104.3125,71.8750,-0.0881,-0.2307,0.9115,0.3290,
2025-03-09 23:11:18.447,-0.6700,-3.6700,5.6500,-23.3125,99.7500,70.5625,-0.0981,-0.2289,0.9122,0.3254,
2025-03-09 23:11:18.472,-0.7800,-4.0800,5.2000,-20.8125,95.7500,65.6250,-0.1078,-0.2274,0.9128,0.3216,
2025-03-09 23:11:18.472,-0.8600,-3.5700,5.9800,-15.3750,87.5625,58.3125,-0.1169,-0.2258,0.9133,0.3182,
2025-03-09 23:11:18.472,-1.0600,-3.2000,6.0500,-8.1250,71.5625,57.8125,-0.1252,-0.2240,0.9136,0.3153,
2025-03-09 23:11:18.472,-1.4100,-2.6900,5.9800,-9.1250,58.3750,56.0625,-0.1324,-0.2219,0.9138,0.3133,
2025-03-09 23:11:18.484,-2.1600,-2.9600,5.9600,-19.1875,51.9375,53.0625,-0.1382,-0.2205,0.9144,0.3100,
2025-03-09 23:11:18.493,-2.5100,-3.3700,6.0300,-32.5000,48.8125,49.4375,-0.1437,-0.2199,0.9149,0.3066,
2025-03-09 23:11:18.503,-2.4400,-3.9600,5.7700,-43.5625,47.3125,46.6875,-0.1492,-0.2206,0.9149,0.3033,
2025-03-09 23:11:18.519,-2.2300,-4.6200,5.6400,-43.9375,48.1875,46.0000,-0.1549,-0.2221,0.9147,0.3001,
2025-03-09 23:11:18.532,-2.0600,-5.0100,6.3000,-37.9375,44.1250,41.3125,-0.1606,-0.2237,0.9144,0.2969,
2025-03-09 23:11:18.540,-1.9400,-4.7100,6.5700,-27.1875,33.4375,35.3750,-0.1657,-0.2250,0.9141,0.2939,
2025-03-09 23:11:18.550,-2.0100,-4.2000,6.4700,-15.0000,22.3750,31.3125,-0.1697,-0.2257,0.9139,0.2915,
2025-03-09 23:11:18.551,-2.3600,-3.7200,6.2200,-6.0000,16.3750,28.7500,-0.1724,-0.2259,0.9141,0.2893,
2025-03-09 23:11:18.562,-2.7900,-3.3400,6.0200,-5.3750,15.5625,25.6250,-0.1743,-0.2255,0.9144,0.2873,
2025-03-09 23:11:18.572,-2.8000,-3.6000,6.0600,-10.3750,15.8750,20.4375,-0.1763,-0.2251,0.9146,0.2860,
2025-03-09 23:11:18.582,-2.7600,-4.0700,6.1900,-11.2500,15.6875,14.8125,-0.1781,-0.2252,0.9147,0.2845,
2025-03-09 23:11:18.599,-2.3800,-4.7200,6.5900,-5.5000,11.6250,8.8125,-0.1799,-0.2255,0.9145,0.2836,
2025-03-09 23:11:18.611,-2.2000,-4.6400,6.6900,3.2500,4.1875,2.8125,-0.1811,-0.2255,0.9145,0.2830,
2025-03-09 23:11:18.617,-2.1400,-4.2700,6.7000,11.9375,-2.6875,-2.4375,-0.1814,-0.2251,0.9145,0.2829,
2025-03-09 23:11:18.628,-2.2600,-3.7000,6.5300,19.2500,-7.5625,-4.5000,-0.1813,-0.2239,0.9142,0.2849,
2025-03-09 23:11:18.637,-2.6500,-2.8600,5.9700,19.6875,-9.9375,-5.5625,-0.1801,-0.2227,0.9146,0.2853,
2025-03-09 23:11:18.647,-2.7700,-2.8700,5.9500,12.3125,-11.4375,-7.7500,-0.1788,-0.2215,0.9150,0.2859,
2025-03-09 23:11:18.660,-2.6600,-3.1200,5.9000,1.8125,-14.1250,-10.7500,-0.1774,-0.2209,0.9152,0.2865,
2025-03-09 23:11:18.668,-2.4500,-3.8800,6.0600,-6.7500,-18.1875,-14.4375,-0.1761,-0.2213,0.9152,0.2870,
2025-03-09 23:11:18.681,-2.1900,-4.2000,6.1900,-10.2500,-23.2500,-18.2500,-0.1746,-0.2225,0.9150,0.2879,
2025-03-09 23:11:18.683,-1.7000,-4.4100,6.4200,-9.3750,-25.3750,-23.5000,-0.1727,-0.2241,0.9147,0.2887,
2025-03-09 23:11:18.694,-1.4100,-4.6700,6.8700,-3.5000,-27.6875,-28.6875,-0.1705,-0.2258,0.9143,0.2899,
2025-03-09 23:11:18.703,-1.3500,-5.1200,6.4800,9.4375,-32.5625,-28.3125,-0.1679,-0.2272,0.9139,0.2916,
2025-03-09 23:11:18.713,-1.7400,-5.0300,6.4400,21.4375,-36.9375,-23.7500,-0.1647,-0.2277,0.9138,0.2932,
2025-03-09 23:11:18.730,-1.9900,-4.6400,6.3900,26.0625,-42.9375,-22.7500,-0.1609,-0.2272,0.9140,0.2950,
2025-03-09 23:11:18.769,-2.1500,-4.1100,6.4800,23.3125,-48.6250,-25.0625,-0.1565,-0.2265,0.9145,0.2963,
2025-03-09 23:11:18.779,-2.0200,-4.1700,6.5400,16.8750,-53.1875,-27.8125,-0.1517,-0.2263,0.9150,0.2977,
2025-03-09 23:11:18.779,-1.8600,-4.3200,6.7300,10.7500,-57.3750,-29.5000,-0.1466,-0.2266,0.9153,0.2990,
2025-03-09 23:11:18.779,-1.5900,-4.3900,7.3900,5.0625,-65.1875,-31.0625,-0.1413,-0.2276,0.9155,0.3003,
2025-03-09 23:11:18.779,0.1500,-4.8000,5.9800,0.4375,-71.3125,-35.5000,-0.1357,-0.2292,0.9154,0.3019,
2025-03-09 23:11:18.792,-0.1500,-4.5900,6.2400,3.6875,-72.0625,-39.3750,-0.1295,-0.2314,0.9153,0.3033,
2025-03-09 23:11:18.803,-0.6500,-4.0400,6.3700,9.0000,-77.4375,-41.6250,-0.1230,-0.2334,0.9151,0.3050,
2025-03-09 23:11:18.814,-1.1600,-3.2500,6.4700,10.6875,-82.2500,-45.3125,-0.1160,-0.2351,0.9150,0.3068,
2025-03-09 23:11:18.819,-0.9200,-3.2900,6.6000,7.1250,-86.2500,-51.0000,-0.1085,-0.2369,0.9148,0.3087,
2025-03-09 23:11:18.830,-0.5700,-3.4900,6.8300,6.0625,-89.6250,-56.3125,-0.1006,-0.2390,0.9143,0.3113,
2025-03-09 23:11:18.841,-0.3300,-3.6600,7.2800,8.8125,-96.1875,-60.5625,-0.0924,-0.2413,0.9136,0.3138,
2025-03-09 23:11:18.848,0.4600,-3.8800,7.1300,9.3125,-109.6250,-65.3750,-0.0835,-0.2437,0.9129,0.3167,
2025-03-09 23:11:18.859,1.4400,-3.8600,5.9200,6.5000,-120.3125,-69.5000,-0.0734,-0.2463,0.9121,0.3195,
2025-03-09 23:11:18.870,1.9600,-3.7900,5.7100,8.8750,-119.5625,-70.5000,-0.0626,-0.2495,0.9110,0.3223,
2025-03-09 23:11:18.878,1.7500,-3.6300,6.0600,16.5000,-114.1875,-67.4375,-0.0517,-0.2524,0.9097,0.3256,
2025-03-09 23:11:18.889,1.1400,-3.3800,6.9000,19.0000,-114.1250,-71.2500,-0.0411,-0.2545,0.9087,0.3284,
2025-03-09 23:11:18.906,1.0700,-3.5800,7.1000,12.8750,-119.7500,-77.8750,-0.0302,-0.2565,0.9074,0.3315,
2025-03-09 23:11:18.910,1.1700,-3.9100,7.4800,8.8125,-128.6250,-79.8125,-0.0190,-0.2590,0.9058,0.3349,
2025-03-09 23:11:18.914,2.6700,-4.8300,6.4000,9.0625,-140.0625,-78.0625,-0.0071,-0.2621,0.9038,0.3382,
2025-03-09 23:11:18.925,3.6000,-5.3100,5.5300,9.8125,-138.6250,-75.5000,0.0055,-0.2654,0.9018,0.3410,
2025-03-09 23:11:18.936,3.8600,-5.2300,5.8700,16.9375,-127.7500,-77.0625,0.0181,-0.2686,0.8997,0.3436,
2025-03-09 23:11:18.945,3.5500,-4.7000,6.6900,34.3750,-121.4375,-81.8125,0.0300,-0.2709,0.8976,0.3465,
2025-03-09 23:11:18.960,2.7500,-3.4800,7.0700,58.3750,-123.7500,-88.7500,0.0421,-0.2716,0.8956,0.3499,
2025-03-09 23:11:18.968,3.0000,-3.0600,7.0700,73.5000,-129.9375,-93.6875,0.0552,-0.2705,0.8938,0.3534,
2025-03-09 23:11:18.979,3.2100,-2.8400,7.2600,76.3125,-134.1250,-95.6875,0.0693,-0.2684,0.8920,0.3572,
2025-03-09 23:11:18.989,3.4000,-2.4800,7.3600,75.6875,-139.1875,-95.7500,0.0839,-0.2661,0.8899,0.3609,
2025-03-09 23:11:18.991,3.7700,-2.4700,7.5700,73.8750,-147.0000,-94.6250,0.0988,-0.2639,0.8876,0.3644,
2025-03-09 23:11:19.010,4.5800,-2.7000,6.8700,65.9375,-155.0000,-93.2500,0.1142,-0.2621,0.8850,0.3675,
2025-03-09 23:11:19.029,7.8500,-3.7800,6.1200,43.3750,-152.4375,-83.6250,0.1451,-0.2609,0.8785,0.3729,
2025-03-09 23:11:19.066,8.1000,-3.9900,6.5800,42.1875,-155.5000,-78.7500,0.1597,-0.2614,0.8749,0.3752,
2025-03-09 23:11:19.066,7.8300,-4.0200,7.0500,45.5625,-164.5625,-79.3750,0.1742,-0.2621,0.8711,0.3770,
2025-03-09 23:11:19.066,6.8300,-3.2400,7.0100,51.5625,-175.1250,-82.4375,0.1895,-0.2628,0.8671,0.3785,
2025-03-09 23:11:19.066,6.6000,-2.9200,6.8200,54.4375,-183.8750,-82.9375,0.2057,-0.2632,0.8627,0.3797,
2025-03-09 23:11:19.077,6.6800,-2.6700,6.5100,52.9375,-192.3750,-80.0000,0.2227,-0.2637,0.8579,0.3807,
2025-03-09 23:11:19.088,7.4100,-2.5200,5.2400,44.7500,-196.3750,-73.0000,0.2401,-0.2645,0.8527,0.3811,
2025-03-09 23:11:19.097,7.9300,-3.2200,5.0100,36.8750,-187.3125,-65.9375,0.2573,-0.2661,0.8472,0.3811,
2025-03-09 23:11:19.110,8.0800,-3.3200,5.4500,38.6875,-180.6250,-65.8125,0.2733,-0.2680,0.8418,0.3807,
2025-03-09 23:11:19.122,9.1200,-2.6100,5.9100,62.2500,-184.7500,-59.9375,0.3048,-0.2701,0.8307,0.3796,
2025-03-09 23:11:19.136,9.2600,-2.0700,5.8500,72.8125,-190.5625,-52.6875,0.3210,-0.2701,0.8253,0.3779,
2025-03-09 23:11:19.144,9.5200,-1.4700,5.8000,79.4375,-198.3125,-46.6875,0.3378,-0.2697,0.8200,0.3752,
2025-03-09 23:11:19.160,10.4100,-1.0000,5.2900,77.3750,-206.4375,-40.2500,0.3551,-0.2691,0.8145,0.3716,
2025-03-09 23:11:19.179,9.4200,-1.4400,5.1000,59.0625,-185.1250,-41.1875,0.3891,-0.2694,0.8027,0.3630,
2025-03-09 23:11:19.200,8.8200,0.0300,5.8200,60.5625,-178.3750,-56.9375,0.4194,-0.2694,0.7900,0.3571,
2025-03-09 23:11:19.211,10.6400,-0.7200,5.7700,54.6875,-170.5000,-44.5000,0.4488,-0.2682,0.7764,0.3520,
2025-03-09 23:11:19.221,11.6700,-1.2800,5.5600,54.8750,-167.1250,-34.8750,0.4626,-0.2680,0.7697,0.3489,
2025-03-09 23:11:19.253,13.0100,-1.3000,4.1500,81.3125,-170.5625,-13.5000,0.4891,-0.2677,0.7572,0.3402,
2025-03-09 23:11:19.270,12.5000,-1.4900,3.9300,104.1250,-155.3125,-23.5625,0.5160,-0.2648,0.7462,0.3269,
2025-03-09 23:11:19.277,10.2100,0.4400,5.0700,111.1250,-151.8750,-33.0000,0.5291,-0.2614,0.7410,0.3203,
2025-03-09 23:11:19.304,11.3700,1.0900,4.7500,113.0625,-141.5000,-24.6250,0.5552,-0.2524,0.7304,0.3074,
2025-03-09 23:11:19.310,11.7200,1.0300,4.3800,93.1875,-119.5000,-13.3125,0.5783,-0.2440,0.7209,0.2938,
2025-03-09 23:11:19.330,11.7000,0.9600,3.5600,83.1875,-112.2500,-13.0000,0.5881,-0.2406,0.7166,0.2876,
2025-03-09 23:11:19.370,11.5400,0.7600,1.9400,56.0625,-104.8125,-12.2500,0.6055,-0.2353,0.7080,0.2770,
2025-03-09 23:11:19.370,11.3100,0.4100,1.8600,46.0000,-100.8750,-14.3750,0.6206,-0.2326,0.6987,0.2693,
2025-03-09 23:11:19.375,10.4700,0.6300,0.9500,28.1875,-97.8125,-18.3750,0.6278,-0.2312,0.6940,0.2660,
2025-03-09 23:11:19.396,10.5500,0.9100,0.2900,-2.1875,-85.0625,-9.6875,0.6406,-0.2313,0.6838,0.2619,
2025-03-09 23:11:19.419,10.7300,0.7100,0.3000,-16.6250,-72.5000,-5.5625,0.6495,-0.2350,0.6745,0.2607,
2025-03-09 23:11:19.430,10.6700,-0.3400,0.9700,-22.3125,-51.6250,-2.0625,0.6525,-0.2372,0.6708,0.2607,
2025-03-09 23:11:19.451,10.7800,0.0100,1.3500,-20.1250,-43.5000,-0.7500,0.6572,-0.2416,0.6644,0.2612,
2025-03-09 23:11:19.469,10.7700,0.4000,1.4400,-19.0000,-36.3125,0.5000,0.6609,-0.2455,0.6591,0.2618,
2025-03-09 23:11:19.477,10.7900,1.0300,1.7100,-22.0625,-7.5000,1.3750,0.6617,-0.2473,0.6574,0.2625,
2025-03-09 23:11:19.506,10.4700,0.4000,1.4000,-25.4375,21.3750,-2.0000,0.6605,-0.2500,0.6565,0.2651,
2025-03-09 23:11:19.518,10.2700,0.0000,1.0700,-19.5625,27.8750,-4.4375,0.6569,-0.2510,0.6581,0.2690,
2025-03-09 23:11:19.531,9.8200,-0.6600,0.4300,0.0000,27.3750,-8.3125,0.6547,-0.2518,0.6589,0.2717,
2025-03-09 23:11:19.541,9.6800,-0.6200,0.0000,20.1250,22.5625,-13.1875,0.6525,-0.2490,0.6615,0.2733,
2025-03-09 23:11:19.561,9.6100,0.2300,-0.2200,27.6875,21.3750,-15.1875,0.6517,-0.2437,0.6643,0.2732,
2025-03-09 23:11:19.583,9.5900,0.5200,-0.3100,31.3750,17.8750,-16.8750,0.6516,-0.2407,0.6656,0.2729,
2025-03-09 23:11:19.606,9.6700,0.7200,-0.5300,25.5000,13.1875,-14.4375,0.6518,-0.2347,0.6679,0.2721,
2025-03-09 23:11:19.617,9.6100,0.6600,-0.6000,19.3125,11.7500,-11.8750,0.6519,-0.2301,0.6695,0.2716,
2025-03-09 23:11:19.693,9.4900,0.7600,-0.6100,3.8125,8.8750,-5.3750,0.6518,-0.2287,0.6702,0.2716,
2025-03-09 23:11:19.693,9.4900,0.8300,-0.3800,-14.8125,7.6250,-1.3750,0.6509,-0.2280,0.6708,0.2725,
2025-03-09 23:11:19.703,9.4700,0.6900,0.0700,-21.4375,8.8125,0.2500,0.6502,-0.2295,0.6700,0.2750,
2025-03-09 23:11:19.703,9.6500,0.4200,0.3600,-29.3750,8.3125,2.9375,0.6490,-0.2310,0.6701,0.2764,
2025-03-09 23:11:19.703,9.9500,0.0300,0.2200,-24.1875,11.5625,0.8750,0.6466,-0.2342,0.6700,0.2797,
2025-03-09 23:11:19.718,9.3800,-0.0100,0.6500,-16.0625,17.0000,-0.8125,0.6440,-0.2358,0.6707,0.2825,
2025-03-09 23:11:19.731,9.2000,0.3300,0.9900,-7.5625,15.1250,-1.3750,0.6424,-0.2366,0.6711,0.2844,
2025-03-09 23:11:19.751,10.1500,1.2400,0.9800,-16.9375,10.6250,3.2500,0.6405,-0.2370,0.6722,0.2859,
2025-03-09 23:11:19.770,10.2400,0.6500,1.0500,-25.5000,12.3750,4.1250,0.6381,-0.2393,0.6727,0.2882,
2025-03-09 23:11:19.782,10.2600,-0.1100,0.9800,-34.1250,18.8750,3.3125,0.6359,-0.2422,0.6724,0.2914,
2025-03-09 23:11:19.808,10.0700,-0.5200,1.1500,-20.0625,25.1250,6.7500,0.6317,-0.2451,0.6736,0.2951,
2025-03-09 23:11:19.817,10.0300,-0.1700,1.4100,-14.2500,22.6875,7.0625,0.6279,-0.2466,0.6758,0.2972,
2025-03-09 23:11:19.831,10.2300,0.0000,1.3200,-11.0625,19.8750,7.3125,0.6262,-0.2474,0.6766,0.2980,
2025-03-09 23:11:19.847,10.5700,0.3600,1.1800,-10.3750,31.6875,9.6875,0.6228,-0.2483,0.6789,0.2992,
2025-03-09 23:11:19.861,10.2000,0.9100,1.4800,-12.5625,39.0000,10.7500,0.6177,-0.2489,0.6827,0.3007,
2025-03-09 23:11:19.881,10.2600,1.0300,1.5400,-22.6875,49.1250,11.3750,0.6145,-0.2494,0.6849,0.3019,
2025-03-09 23:11:19.902,10.6300,0.8700,1.7400,-36.1250,63.1875,16.3125,0.6066,-0.2510,0.6898,0.3054,
2025-03-09 23:11:19.918,11.0300,0.4200,2.2600,-43.7500,73.5625,20.2500,0.5957,-0.2540,0.6960,0.3102,
2025-03-09 23:11:19.931,11.4800,0.4200,2.7800,-63.0000,93.5000,28.1250,0.5889,-0.2561,0.6996,0.3133,
2025-03-09 23:11:19.952,11.7300,0.3500,3.4700,-75.0625,103.6250,30.3750,0.5721,-0.2619,0.7079,0.3209,
2025-03-09 23:11:19.971,12.0000,0.3400,4.5300,-106.6250,122.5625,33.1875,0.5512,-0.2703,0.7164,0.3316,
2025-03-09 23:11:19.986,11.8600,0.3100,4.9700,-131.9375,147.1875,37.5625,0.5387,-0.2756,0.7208,0.3382,
2025-03-09 23:11:20.001,12.6500,-0.0200,6.2400,-145.0000,160.6875,43.6875,0.5098,-0.2872,0.7302,0.3528,
2025-03-09 23:11:20.014,11.9000,-1.1100,6.5600,-183.6250,183.0000,60.8750,0.4743,-0.3026,0.7398,0.3690,
2025-03-09 23:11:20.033,11.2600,-1.6100,6.4400,-191.4375,189.1250,63.1875,0.4548,-0.3111,0.7443,0.3774,
2025-03-09 23:11:20.052,11.0200,-2.0800,6.3400,-170.2500,196.9375,65.9375,0.4151,-0.3256,0.7533,0.3927,
2025-03-09 23:11:20.068,10.2500,-3.7700,6.9300,-162.1875,211.5000,84.7500,0.3732,-0.3376,0.7634,0.4050,
2025-03-09 23:11:20.079,10.0800,-4.0900,6.8200,-159.6250,216.7500,98.1875,0.3508,-0.3435,0.7687,0.4099,
2025-03-09 23:11:20.099,10.1100,-4.6000,6.4600,-132.6875,222.8125,122.0000,0.3051,-0.3529,0.7809,0.4154,
2025-03-09 23:11:20.118,9.3700,-4.5500,6.6500,-107.8750,229.7500,136.3125,0.2589,-0.3582,0.7944,0.4167,
2025-03-09 23:11:20.136,9.0600,-4.5200,6.5600,-102.3750,230.6875,139.3750,0.2355,-0.3599,0.8010,0.4165,
2025-03-09 23:11:20.151,8.1600,-5.5000,6.5100,-102.8750,229.3125,153.3750,0.1880,-0.3630,0.8135,0.4138,
2025-03-09 23:11:20.168,8.1100,-5.8200,6.1100,-84.0000,228.6875,168.8750,0.1398,-0.3643,0.8256,0.4075,
2025-03-09 23:11:20.177,7.8100,-5.2700,6.0100,-64.1250,226.7500,172.9375,0.1164,-0.3629,0.8320,0.4031,
2025-03-09 23:11:20.198,7.3800,-4.2200,5.8200,-43.5625,218.5000,168.4375,0.0716,-0.3574,0.8441,0.3932,
2025-03-09 23:11:20.225,6.3100,-4.4500,5.8500,-32.5625,205.4375,164.6250,0.0294,-0.3504,0.8545,0.3823,
2025-03-09 23:11:20.267,5.8800,-4.8100,5.8200,-30.0000,200.4375,164.0625,0.0091,-0.3464,0.8592,0.3764,
2025-03-09 23:11:20.267,5.1100,-4.6300,4.8300,-23.5625,185.6875,152.0000,-0.0294,-0.3382,0.8671,0.3646,
2025-03-09 23:11:20.267,4.6000,-4.3300,4.9100,-11.9375,180.7500,143.6875,-0.0471,-0.3331,0.8706,0.3591,
2025-03-09 23:11:20.281,3.2500,-4.3900,5.3000,-5.8125,166.4375,140.7500,-0.0805,-0.3220,0.8770,0.3475,
2025-03-09 23:11:20.300,2.0800,-4.8100,5.3800,-8.4375,153.3750,138.3750,-0.1116,-0.3122,0.8819,0.3351,
2025-03-09 23:11:20.320,0.7100,-4.4200,5.4600,3.0625,138.5000,129.6875,-0.1398,-0.3015,0.8862,0.3229,
2025-03-09 23:11:20.329,0.5000,-4.3000,5.3800,10.0000,128.8125,128.3750,-0.1526,-0.2956,0.8881,0.3173,
2025-03-09 23:11:20.351,-0.5900,-4.2500,5.5200,11.6250,115.2500,122.6875,-0.1757,-0.2840,0.8920,0.3047,
2025-03-09 23:11:20.362,-0.7100,-4.2200,5.3000,7.3750,109.7500,119.0000,-0.1866,-0.2788,0.8935,0.2985,
2025-03-09 23:11:20.376,-1.5100,-4.1300,5.3700,1.1875,105.1250,110.1250,-0.2080,-0.2695,0.8953,0.2872,
2025-03-09 23:11:20.397,-2.3200,-4.3200,5.4500,-2.6875,103.8125,104.1250,-0.2285,-0.2609,0.8964,0.2759,
2025-03-09 23:11:20.423,-2.8700,-4.8100,4.9900,-8.0000,101.3125,101.8750,-0.2487,-0.2531,0.8967,0.2647,
2025-03-09 23:11:20.430,-3.5300,-5.0500,5.4500,-11.5625,100.1250,101.9375,-0.2587,-0.2496,0.8965,0.2590,
2025-03-09 23:11:20.440,-3.4500,-4.7700,5.2300,-13.3125,96.0000,99.8750,-0.2684,-0.2463,0.8962,0.2531,
2025-03-09 23:11:20.460,-2.1400,-4.7000,5.0500,-15.0625,87.8125,95.5000,-0.2865,-0.2402,0.8955,0.2414,
2025-03-09 23:11:20.475,-4.9600,-5.0000,5.4100,-13.8750,81.7500,90.1875,-0.3032,-0.2344,0.8945,0.2302,
2025-03-09 23:11:20.485,-4.5900,-5.3700,5.6100,-15.0625,79.0000,86.0625,-0.3111,-0.2317,0.8938,0.2248,
2025-03-09 23:11:20.495,-4.2500,-5.3900,5.5600,-8.1875,79.4375,87.0625,-0.3190,-0.2285,0.8932,0.2196,
2025-03-09 23:11:20.509,-4.1000,-5.4900,5.5300,-5.8125,78.2500,89.0000,-0.3267,-0.2251,0.8926,0.2142,
2025-03-09 23:11:20.521,-4.2300,-4.9800,5.3900,-3.0000,75.3125,89.3125,-0.3341,-0.2215,0.8920,0.2088,
2025-03-09 23:11:20.532,-4.6500,-3.6800,5.0600,0.1875,70.3750,90.6875,-0.3411,-0.2177,0.8916,0.2032,
2025-03-09 23:11:20.574,-4.9200,-3.1100,4.7600,-4.1875,64.0000,89.9375,-0.3477,-0.2143,0.8912,0.1976,
2025-03-09 23:11:20.574,-4.8200,-3.2100,4.8000,-7.9375,58.4375,87.5625,-0.3538,-0.2114,0.8907,0.1918,
2025-03-09 23:11:20.574,-5.6600,-2.8700,4.9300,-10.2500,56.1250,82.3125,-0.3596,-0.2087,0.8902,0.1863,
2025-03-09 23:11:20.574,-6.6500,-3.1900,5.2200,-14.6250,53.6250,75.3125,-0.3652,-0.2067,0.8895,0.1811,
2025-03-09 23:11:20.584,-6.7300,-3.3000,5.4600,-23.6875,52.6250,67.9375,-0.3707,-0.2056,0.8884,0.1762,
2025-03-09 23:11:20.584,-5.9900,-3.7000,5.4400,-23.3750,53.0625,61.3750,-0.3761,-0.2046,0.8872,0.1717,
2025-03-09 23:11:20.594,-5.7900,-4.2800,5.3300,-19.1250,56.5000,58.1250,-0.3816,-0.2034,0.8859,0.1678,
2025-03-09 23:11:20.609,-5.6200,-4.2800,5.0600,-10.3125,58.0625,55.5625,-0.3870,-0.2015,0.8847,0.1642,
2025-03-09 23:11:20.617,-5.7400,-3.6000,4.7100,1.5625,55.3750,51.8750,-0.3920,-0.1990,0.8836,0.1614,
2025-03-09 23:11:20.630,-5.9300,-3.2700,4.6000,7.7500,51.0625,48.0000,-0.3965,-0.1960,0.8826,0.1589,
2025-03-09 23:11:20.639,-6.5100,-2.5100,4.5900,7.6875,45.5000,44.1250,-0.4006,-0.1934,0.8818,0.1567,
2025-03-09 23:11:20.640,-6.5300,-2.8500,4.5800,2.3750,40.6875,40.9375,-0.4042,-0.1913,0.8810,0.1544,
2025-03-09 23:11:20.651,-6.6100,-3.4900,4.5800,-6.0000,40.0000,37.6875,-0.4079,-0.1899,0.8800,0.1520,
2025-03-09 23:11:20.670,-6.4400,-4.2800,4.8100,-12.5000,41.7500,32.0000,-0.4117,-0.1892,0.8788,0.1498,
2025-03-09 23:11:20.682,-6.5400,-4.1900,4.7600,-12.2500,40.3125,27.5000,-0.4153,-0.1885,0.8775,0.1483,
2025-03-09 23:11:20.690,-6.7200,-3.7900,4.5600,-8.6875,37.3750,27.1875,-0.4186,-0.1877,0.8764,0.1465,
2025-03-09 23:11:20.696,-6.6600,-3.2500,4.4300,-6.3750,33.5625,27.1875,-0.4216,-0.1868,0.8754,0.1448,
2025-03-09 23:11:20.706,-7.4700,-3.2100,4.3300,-9.0000,29.9375,27.7500,-0.4244,-0.1862,0.8745,0.1429,
2025-03-09 23:11:20.716,-7.7700,-3.4400,4.4300,-13.6250,27.4375,24.7500,-0.4269,-0.1860,0.8736,0.1410,
2025-03-09 23:11:20.727,-7.2200,-3.7900,4.6400,-19.2500,25.5625,19.7500,-0.4294,-0.1863,0.8726,0.1393,
2025-03-09 23:11:20.739,-7.0600,-4.3600,4.7800,-23.0625,24.9375,16.6875,-0.4318,-0.1871,0.8716,0.1376,
2025-03-09 23:11:20.748,-7.1700,-4.3500,4.7700,-24.6250,24.8125,15.3125,-0.4341,-0.1881,0.8704,0.1360,
2025-03-09 23:11:20.760,-7.0500,-4.0900,4.5100,-23.9375,25.5000,14.8750,-0.4365,-0.1890,0.8693,0.1344,
2025-03-09 23:11:20.762,-6.8600,-3.9200,4.3500,-23.3750,25.7500,13.7500,-0.4389,-0.1899,0.8681,0.1329,
2025-03-09 23:11:20.775,-6.6900,-3.5000,4.2000,-23.1250,25.0625,13.8750,-0.4412,-0.1909,0.8670,0.1313,
2025-03-09 23:11:20.782,-6.9500,-3.7900,4.2700,-26.4375,22.5625,14.3125,-0.4433,-0.1921,0.8659,0.1296,
2025-03-09 23:11:20.792,-7.0700,-3.9000,4.1400,-30.9375,20.4375,14.1250,-0.4454,-0.1936,0.8648,0.1278,
2025-03-09 23:11:20.810,-7.3900,-4.7900,4.3800,-35.3750,18.7500,15.0625,-0.4474,-0.1954,0.8636,0.1257,
2025-03-09 23:11:20.831,-6.8400,-4.6100,4.5600,-36.5000,17.3125,14.4375,-0.4493,-0.1973,0.8625,0.1235,
2025-03-09 23:11:20.876,-6.4800,-5.0400,4.5500,-33.0625,13.9375,10.0000,-0.4508,-0.1993,0.8616,0.1216,
2025-03-09 23:11:20.876,-6.3200,-4.7100,4.8000,-26.3750,9.2500,7.3125,-0.4518,-0.2008,0.8608,0.1202,
2025-03-09 23:11:20.877,-6.5800,-3.8100,4.7300,-16.5625,3.5000,4.5000,-0.4523,-0.2018,0.8605,0.1193,
2025-03-09 23:11:20.877,-6.7900,-3.5800,4.6900,-10.9375,1.6250,5.0625,-0.4527,-0.2024,0.8603,0.1186,
2025-03-09 23:11:20.878,-6.5800,-3.5600,4.3600,-9.2500,2.6250,6.1250,-0.4531,-0.2028,0.8601,0.1179,
2025-03-09 23:11:20.878,-6.6300,-4.0300,4.2600,-10.5000,5.5625,5.8750,-0.4537,-0.2034,0.8597,0.1170,
2025-03-09 23:11:20.889,-7.0300,-3.9300,4.4600,-11.2500,6.1250,3.1875,-0.4543,-0.2040,0.8593,0.1164,
2025-03-09 23:11:20.894,-7.0100,-4.3600,4.7300,-12.2500,4.4375,-3.0000,-0.4546,-0.2050,0.8589,0.1163,
2025-03-09 23:11:20.904,-6.8700,-4.1600,4.6900,-8.3125,-1.0625,-4.0625,-0.4546,-0.2058,0.8588,0.1162,
2025-03-09 23:11:20.914,-7.0200,-3.8700,4.8700,-2.5000,-5.7500,-7.2500,-0.4541,-0.2062,0.8589,0.1165,
2025-03-09 23:11:20.923,-7.3800,-3.7000,4.6600,3.3125,-8.0000,-9.0000,-0.4533,-0.2064,0.8592,0.1173,
2025-03-09 23:11:20.942,-7.2000,-3.9000,4.4700,4.6875,-7.0000,-8.6875,-0.4526,-0.2065,0.8594,0.1179,
2025-03-09 23:11:20.955,-6.7500,-4.2900,4.2100,1.7500,-2.1875,-8.0625,-0.4523,-0.2067,0.8595,0.1185,
2025-03-09 23:11:20.960,-6.6200,-5.0900,4.2800,-0.7500,1.8750,-8.5625,-0.4523,-0.2070,0.8593,0.1191,
2025-03-09 23:11:20.981,-6.6200,-5.0300,4.4400,0.8750,2.3125,-9.4375,-0.4523,-0.2073,0.8591,0.1199,
2025-03-09 23:11:20.981,-6.7400,-4.6000,4.5300,5.1250,-2.0000,-10.0000,-0.4519,-0.2073,0.8592,0.1208,
2025-03-09 23:11:20.981,-6.8900,-3.9200,4.5000,9.7500,-9.5000,-10.1875,-0.4519,-0.2073,0.8592,0.1208,
2025-03-09 23:11:21.008,-7.3900,-4.0100,4.5500,11.8125,-14.1250,-10.8125,-0.4509,-0.2072,0.8596,0.1217,
2025-03-09 23:11:21.009,-7.6100,-4.2500,4.4900,11.2500,-14.2500,-11.7500,-0.4496,-0.2069,0.8602,0.1227,
2025-03-09 23:11:21.019,-7.2800,-4.4900,4.4900,8.9375,-10.6250,-13.2500,-0.4482,-0.2066,0.8609,0.1238,
2025-03-09 23:11:21.028,-6.5200,-4.9700,4.6300,6.6875,-5.3125,-16.0625,-0.4471,-0.2065,0.8613,0.1249,
2025-03-09 23:11:21.040,-6.2900,-5.0200,4.5200,7.6875,-2.4375,-17.7500,-0.4464,-0.2069,0.8615,0.1260,
2025-03-09 23:11:21.050,-6.0300,-4.7100,4.2400,11.8125,-2.9375,-16.8125,-0.4457,-0.2070,0.8615,0.1276,
2025-03-09 23:11:21.059,-6.2800,-4.0700,4.3200,18.0625,-5.5000,-15.3125,-0.4451,-0.2068,0.8616,0.1292,
2025-03-09 23:11:21.069,-6.9700,-3.7100,4.6200,22.8125,-11.3750,-16.1250,-0.4443,-0.2061,0.8620,0.1309,
2025-03-09 23:11:21.080,-7.6300,-3.4900,4.7700,22.1250,-19.7500,-18.8750,-0.4429,-0.2052,0.8626,0.1327,
2025-03-09 23:11:21.080,-7.6300,-3.5600,4.7700,16.1250,-24.8125,-24.8125,-0.4409,-0.2045,0.8636,0.1345,
2025-03-09 23:11:21.091,-6.5000,-4.1700,4.8800,11.8750,-21.5000,-33.0625,-0.4384,-0.2045,0.8645,0.1365,
2025-03-09 23:11:21.100,-6.0000,-4.3400,4.8100,15.6875,-15.1250,-41.8125,-0.4362,-0.2051,0.8651,0.1390,
2025-03-09 23:11:21.119,-5.8100,-5.0300,4.8500,25.3125,-9.3125,-48.8750,-0.4341,-0.2057,0.8654,0.1424,
2025-03-09 23:11:21.125,-5.8300,-4.0000,4.9600,36.5625,-7.8750,-56.6875,-0.4323,-0.2057,0.8656,0.1467,
2025-03-09 23:11:21.167,-5.7200,-3.0700,4.4100,47.2500,-14.6875,-61.5000,-0.4301,-0.2056,0.8659,0.1514,
2025-03-09 23:11:21.174,-5.9800,-2.4700,4.3500,55.3750,-26.7500,-61.7500,-0.4274,-0.2046,0.8665,0.1573,
2025-03-09 23:11:21.174,-6.6800,-2.0800,4.6600,56.8125,-36.3125,-59.5625,-0.4236,-0.2031,0.8676,0.1634,
2025-03-09 23:11:21.174,-6.4200,-2.5400,4.4800,47.8750,-47.0625,-59.7500,-0.4191,-0.2015,0.8690,0.1691,
2025-03-09 23:11:21.179,-6.2600,-3.6600,4.7400,31.0625,-51.4375,-64.8750,-0.4139,-0.2008,0.8706,0.1744,
2025-03-09 23:11:21.188,-5.7700,-4.8800,4.8800,17.1250,-48.0000,-74.7500,-0.4084,-0.2018,0.8720,0.1789,
2025-03-09 23:11:21.198,-4.9800,-5.9300,5.1700,13.5000,-42.6250,-86.0625,-0.4034,-0.2038,0.8728,0.1841,
2025-03-09 23:11:21.208,-4.7200,-5.5700,5.4500,22.1875,-40.5000,-93.3750,-0.3985,-0.2064,0.8732,0.1902,
2025-03-09 23:11:21.221,-4.3600,-4.7800,4.9000,36.1875,-45.1875,-97.5000,-0.3935,-0.2086,0.8734,0.1971,
2025-03-09 23:11:21.224,-4.8500,-4.3100,5.2300,52.3125,-53.6250,-97.6875,-0.3878,-0.2099,0.8738,0.2048,
2025-03-09 23:11:21.240,-5.3300,-3.0100,5.4000,65.3125,-63.3125,-97.7500,-0.3812,-0.2103,0.8749,0.2125,
2025-03-09 23:11:21.245,-7.2900,-2.8700,4.9700,70.0625,-79.5625,-98.4375,-0.3735,-0.2097,0.8762,0.2207,
2025-03-09 23:11:21.255,-5.5700,-3.5400,4.8500,62.6250,-86.3125,-97.8125,-0.3646,-0.2090,0.8781,0.2288,
2025-03-09 23:11:21.274,-4.6900,-4.8100,4.9100,44.7500,-81.3125,-99.8750,-0.3552,-0.2091,0.8799,0.2364,
2025-03-09 23:11:21.278,-3.8300,-6.0900,5.5200,34.6250,-75.3750,-107.0625,-0.3465,-0.2104,0.8811,0.2437,
2025-03-09 23:11:21.288,-2.9500,-6.2400,5.4900,33.9375,-75.9375,-113.3125,-0.3381,-0.2126,0.8818,0.2509,
2025-03-09 23:11:21.299,-3.0000,-5.9700,5.9400,38.1875,-78.3125,-118.4375,-0.3297,-0.2149,0.8821,0.2589,
2025-03-09 23:11:21.309,-3.7700,-3.8600,5.5000,47.3750,-80.2500,-122.5000,-0.3209,-0.2171,0.8823,0.2673,
2025-03-09 23:11:21.309,-3.7700,-2.6600,4.8100,59.5000,-93.1250,-123.1250,-0.3115,-0.2187,0.8825,0.2763,
2025-03-09 23:11:21.323,-3.7300,-2.4400,4.8300,65.4375,-98.1875,-117.0625,-0.3009,-0.2196,0.8831,0.2853,
2025-03-09 23:11:21.338,-3.5200,-3.1500,5.2700,60.5000,-94.9375,-112.5625,-0.2897,-0.2201,0.8839,0.2937,
2025-03-09 23:11:21.350,-2.4400,-5.0500,6.0600,49.0625,-95.0000,-116.1250,-0.2790,-0.2206,0.8845,0.3018,
2025-03-09 23:11:21.360,-1.9200,-5.6200,6.3400,36.5000,-99.1250,-123.6250,-0.2685,-0.2221,0.8846,0.3099,
2025-03-09 23:11:21.369,-1.2500,-6.1200,6.4900,28.3125,-102.5000,-128.6250,-0.2578,-0.2248,0.8842,0.3181,
2025-03-09 23:11:21.380,-0.8100,-5.9400,6.7400,27.4375,-105.0000,-133.3750,-0.2469,-0.2282,0.8835,0.3263,
2025-03-09 23:11:21.388,-1.2200,-4.9200,6.0400,37.1250,-109.0625,-139.5625,-0.2358,-0.2317,0.8824,0.3348,
2025-03-09 23:11:21.398,-1.6200,-3.9800,5.5300,61.4375,-115.6250,-138.8125,-0.2238,-0.2349,0.8812,0.3438,
2025-03-09 23:11:21.408,-1.7100,-3.3300,5.2700,85.1250,-120.3750,-132.2500,-0.2106,-0.2362,0.8805,0.3530,
2025-03-09 23:11:21.418,-1.0500,-3.7600,6.0500,93.8125,-122.1875,-128.4375,-0.1965,-0.2358,0.8803,0.3619,
2025-03-09 23:11:21.423,-0.4100,-4.3600,6.2300,80.0625,-128.0000,-134.1250,-0.1819,-0.2347,0.8801,0.3705,
2025-03-09 23:11:21.469,0.1400,-4.8000,6.4400,80.0625,-128.0000,-134.1250,-0.1672,-0.2347,0.8793,0.3791,
2025-03-09 23:11:21.469,1.4100,-5.1300,7.1300,71.3125,-131.8750,-134.4375,-0.1525,-0.2347,0.8783,0.3876,
2025-03-09 23:11:21.469,1.8900,-4.8500,6.9300,68.7500,-139.7500,-135.0000,-0.1377,-0.2355,0.8769,0.3958,
2025-03-09 23:11:21.469,1.6900,-3.9700,6.5500,71.3125,-150.8750,-137.1875,-0.1223,-0.2366,0.8752,0.4037,
2025-03-09 23:11:21.479,1.2300,-2.9800,6.1600,78.5625,-162.6875,-134.9375,-0.1060,-0.2379,0.8734,0.4116,
2025-03-09 23:11:21.488,0.5700,-2.8800,6.6700,87.0625,-167.8750,-126.6250,-0.0885,-0.2389,0.8716,0.4189,
2025-03-09 23:11:21.499,1.1500,-3.5300,7.1200,72.2500,-168.8750,-128.8750,-0.0705,-0.2393,0.8699,0.4254,
2025-03-09 23:11:21.509,1.7900,-4.1400,7.4400,58.8750,-171.2500,-133.8750,-0.0529,-0.2408,0.8676,0.4318,
2025-03-09 23:11:21.519,3.7300,-5.2200,7.4300,52.0000,-175.9375,-133.1250,-0.0355,-0.2433,0.8646,0.4383,
2025-03-09 23:11:21.529,4.4300,-5.5800,7.6300,57.3125,-182.8125,-133.0625,-0.0179,-0.2463,0.8611,0.4445,
2025-03-09 23:11:21.538,3.9600,-4.9600,6.1300,57.3125,-182.8125,-133.0625,0.0003,-0.2491,0.8574,0.4504,
2025-03-09 23:11:21.549,2.8800,-4.6900,6.4000,94.8750,-190.2500,-126.6875,0.0185,-0.2520,0.8533,0.4561,
2025-03-09 23:11:21.554,2.2900,-2.8600,7.2700,124.4375,-191.0000,-127.3125,0.0386,-0.2521,0.8500,0.4609,
2025-03-09 23:11:21.565,6.1400,-2.8800,7.9300,130.3750,-196.5000,-124.8125,0.0598,-0.2502,0.8469,0.4655,
2025-03-09 23:11:21.575,3.9700,-3.1600,7.0700,127.7500,-193.2500,-120.2500,0.0816,-0.2479,0.8435,0.4695,
2025-03-09 23:11:21.584,3.6400,-3.2800,7.3600,119.0625,-184.9375,-109.0625,0.1030,-0.2455,0.8399,0.4730,
2025-03-09 23:11:21.599,5.9800,-3.3500,6.3100,121.9375,-187.1250,-101.4375,0.1230,-0.2435,0.8362,0.4758,
2025-03-09 23:11:21.609,6.9500,-3.0300,5.6900,130.6250,-189.0625,-94.4375,0.1432,-0.2413,0.8325,0.4777,
2025-03-09 23:11:21.620,7.8200,-2.6500,5.4000,141.5625,-189.2500,-87.0625,0.1637,-0.2385,0.8289,0.4788,
2025-03-09 23:11:21.620,8.7600,-1.0200,5.1900,148.7500,-192.0000,-79.3750,0.1844,-0.2350,0.8254,0.4790,
2025-03-09 23:11:21.641,8.4700,-0.0700,5.6300,152.6250,-197.5000,-74.4375,0.2053,-0.2311,0.8220,0.4783,
2025-03-09 23:11:21.641,8.2000,0.6800,5.9200,147.8125,-206.3125,-71.5625,0.2266,-0.2272,0.8183,0.4769,
2025-03-09 23:11:21.661,8.1900,0.9500,5.8400,129.9375,-213.4375,-68.6250,0.2481,-0.2238,0.8141,0.4749,
2025-03-09 23:11:21.669,8.7900,0.3300,5.1600,108.2500,-216.1250,-65.1250,0.2692,-0.2220,0.8091,0.4728,
2025-03-09 23:11:21.683,9.3500,-0.1100,4.8700,91.5625,-214.5000,-61.3125,0.2895,-0.2217,0.8035,0.4706,
2025-03-09 23:11:21.686,10.0700,-0.3600,4.8400,80.2500,-212.5625,-57.7500,0.3088,-0.2224,0.7974,0.4684,
2025-03-09 23:11:21.696,11.5500,-0.1100,5.0400,75.6875,-211.5625,-53.1875,0.3273,-0.2239,0.7909,0.4661,
2025-03-09 23:11:21.706,11.8600,0.3400,5.5600,82.5000,-210.8125,-48.5625,0.3453,-0.2256,0.7842,0.4635,
2025-03-09 23:11:21.716,11.8800,1.2300,5.7300,92.7500,-211.5625,-40.9375,0.3634,-0.2270,0.7776,0.4602,
2025-03-09 23:11:21.728,11.8800,1.2300,5.7300,99.1250,-205.7500,-30.7500,0.3816,-0.2278,0.7711,0.4559,
2025-03-09 23:11:21.766,10.3500,1.2000,5.7500,98.6875,-198.2500,-28.1875,0.3994,-0.2282,0.7651,0.4506,
2025-03-09 23:11:21.774,10.3100,1.0700,5.5700,96.9375,-189.6250,-28.7500,0.4164,-0.2284,0.7591,0.4452,
2025-03-09 23:11:21.774,10.5800,0.8600,5.4000,97.1875,-183.6250,-25.5625,0.4327,-0.2283,0.7531,0.4400,
2025-03-09 23:11:21.774,11.6600,0.9800,4.5300,101.9375,-179.6250,-19.1250,0.4484,-0.2280,0.7472,0.4344,
2025-03-09 23:11:21.782,11.8200,1.0200,4.4500,110.3750,-174.9375,-14.3750,0.4638,-0.2274,0.7415,0.4282,
2025-03-09 23:11:21.784,11.7700,0.9900,4.3900,122.6875,-168.6875,-10.2500,0.4789,-0.2261,0.7361,0.4214,
2025-03-09 23:11:21.796,11.4400,1.0100,4.4200,134.8125,-161.7500,-4.2500,0.4939,-0.2241,0.7312,0.4138,
2025-03-09 23:11:21.806,10.5800,1.5100,4.6900,138.1875,-157.1250,1.1875,0.5086,-0.2212,0.7267,0.4053,
2025-03-09 23:11:21.817,10.7200,1.6300,4.5300,133.3750,-156.0625,5.1250,0.5229,-0.2181,0.7225,0.3963,
2025-03-09 23:11:21.829,10.7200,1.6300,4.5300,123.0625,-156.0000,9.8125,0.5367,-0.2154,0.7181,0.3871,
2025-03-09 23:11:21.840,12.2900,1.6000,3.6900,112.5625,-153.0000,14.1250,0.5499,-0.2134,0.7135,0.3781,
2025-03-09 23:11:21.850,12.6600,1.4300,3.3600,105.6875,-146.5000,17.2500,0.5624,-0.2122,0.7088,0.3692,
2025-03-09 23:11:21.851,12.8400,1.3400,3.1100,103.5000,-138.1875,21.2500,0.5741,-0.2112,0.7042,0.3605,
2025-03-09 23:11:21.872,12.9100,1.1000,2.8200,104.7500,-128.3125,26.3125,0.5850,-0.2103,0.6999,0.3517,
2025-03-09 23:11:21.884,12.2200,1.7500,2.4300,102.5000,-107.0000,39.8125,0.6046,-0.2078,0.6931,0.3331,
2025-03-09 23:11:21.903,11.1000,1.5900,2.0200,87.8750,-92.8750,42.7500,0.6207,-0.2060,0.6880,0.3145,
2025-03-09 23:11:21.917,10.9400,1.3200,1.9000,80.0625,-83.2500,45.0000,0.6277,-0.2056,0.6857,0.3058,
2025-03-09 23:11:21.938,10.7700,0.7100,1.8200,73.5625,-57.9375,45.1250,0.6389,-0.2053,0.6825,0.2895,
2025-03-09 23:11:21.949,10.6100,0.0700,1.5300,74.8125,-46.0625,44.1250,0.6433,-0.2050,0.6817,0.2819,
2025-03-09 23:11:21.970,10.6200,-0.2500,1.3200,88.0000,-26.7500,44.3125,0.6500,-0.2027,0.6820,0.2670,
2025-03-09 23:11:21.990,10.7300,-0.6700,1.0600,104.3125,-11.8125,45.6875,0.6553,-0.1976,0.6846,0.2505,
2025-03-09 23:11:22.011,10.6800,-0.1200,0.9500,114.4375,1.5000,44.5625,0.6591,-0.1906,0.6891,0.2331,
2025-03-09 23:11:22.031,10.7300,0.4900,0.7800,118.6875,6.1250,44.3750,0.6617,-0.1818,0.6949,0.2150,
2025-03-09 23:11:22.070,10.6100,1.0800,0.6900,117.5625,15.4375,41.6250,0.6627,-0.1763,0.6983,0.2053,
2025-03-09 23:11:22.076,10.5400,1.9100,0.6200,98.5000,23.3750,36.0625,0.6633,-0.1668,0.7048,0.1883,
2025-03-09 23:11:22.078,10.5400,1.9300,0.5500,83.5625,28.3750,33.8125,0.6620,-0.1591,0.7113,0.1746,
2025-03-09 23:11:22.082,10.4600,1.1400,0.2200,52.2500,38.8125,31.1875,0.6606,-0.1555,0.7148,0.1685,
2025-03-09 23:11:22.102,10.3200,0.3100,0.2200,32.3125,45.1875,28.6250,0.6562,-0.1521,0.7214,0.1606,
2025-03-09 23:11:22.128,10.2900,0.0600,0.2600,27.1875,45.1875,27.6875,0.6507,-0.1504,0.7280,0.1550,
2025-03-09 23:11:22.143,10.3100,-0.5800,0.3100,25.5000,42.4375,28.0625,0.6481,-0.1492,0.7311,0.1519,
2025-03-09 23:11:22.169,9.9500,-0.4700,0.4800,29.4375,36.5625,25.5000,0.6429,-0.1478,0.7371,0.1465,
2025-03-09 23:11:22.178,9.9000,-0.4800,0.5100,27.1875,29.9375,21.1250,0.6389,-0.1460,0.7420,0.1413,
2025-03-09 23:11:22.192,9.7600,-0.0100,0.6200,29.7500,20.2500,17.8125,0.6376,-0.1446,0.7439,0.1385,
2025-03-09 23:11:22.210,9.5300,1.0200,0.5900,25.6250,14.6250,18.2500,0.6355,-0.1423,0.7471,0.1334,
2025-03-09 23:11:22.229,9.5500,1.0900,0.5600,17.3125,13.3750,15.8750,0.6337,-0.1411,0.7495,0.1293,
2025-03-09 23:11:22.247,9.8800,0.9900,0.4900,-0.8750,13.6250,6.8125,0.6330,-0.1407,0.7505,0.1279,
2025-03-09 23:11:22.257,9.7900,1.0800,0.7100,-13.5000,14.7500,4.2500,0.6309,-0.1415,0.7520,0.1279,
2025-03-09 23:11:22.277,9.7400,1.0200,0.8900,-19.5000,13.8750,4.3125,0.6287,-0.1438,0.7532,0.1295,
2025-03-09 23:11:22.287,9.9600,0.7900,1.0200,-31.0000,15.7500,-3.3125,0.6274,-0.1451,0.7538,0.1306,
2025-03-09 23:11:22.311,10.2300,0.8300,1.1300,-36.7500,13.4375,-21.6875,0.6249,-0.1483,0.7545,0.1355,
2025-03-09 23:11:22.328,10.5700,1.3200,1.5600,-33.9375,12.3125,-28.6875,0.6230,-0.1498,0.7543,0.1428,
2025-03-09 23:11:22.366,10.3500,1.4900,1.6300,-30.3125,6.7500,-34.7500,0.6227,-0.1487,0.7543,0.1452,
2025-03-09 23:11:22.366,9.6000,1.1900,1.2100,-37.3125,2.1875,-36.9375,0.6221,-0.1489,0.7532,0.1531,
2025-03-09 23:11:22.376,9.7300,0.6900,0.7500,-41.0000,2.6250,-38.9375,0.6218,-0.1498,0.7514,0.1622,
2025-03-09 23:11:22.391,10.0900,0.8000,0.4900,-42.8750,3.0000,-44.5625,0.6216,-0.1497,0.7507,0.1663,
2025-03-09 23:11:22.412,10.0400,1.5200,0.5600,-47.8750,0.8125,-48.8750,0.6212,-0.1503,0.7485,0.1768,
2025-03-09 23:11:22.423,9.7400,2.5200,0.5100,-56.1875,0.6250,-49.8750,0.6208,-0.1517,0.7457,0.1885,
2025-03-09 23:11:22.433,9.7900,2.7100,0.5000,-86.1875,3.8750,-53.5625,0.6202,-0.1533,0.7441,0.1954,
2025-03-09 23:11:22.462,10.5900,2.1500,1.0100,-112.0000,14.3750,-60.5000,0.6177,-0.1591,0.7403,0.2123,
2025-03-09 23:11:22.478,10.5100,1.7500,1.4200,-117.3125,17.4375,-64.5000,0.6131,-0.1663,0.7365,0.2324,
2025-03-09 23:11:22.488,10.3900,1.8000,1.2700,-121.3125,17.0625,-69.1875,0.6105,-0.1697,0.7344,0.2429,
2025-03-09 23:11:22.510,10.6500,2.0600,0.9000,-126.4375,19.7500,-75.3125,0.6053,-0.1769,0.7296,0.2646,
2025-03-09 23:11:22.527,11.5700,2.5000,1.0800,-129.9375,25.6250,-80.1875,0.5989,-0.1837,0.7244,0.2880,
2025-03-09 23:11:22.540,11.5000,2.5600,1.2400,-144.0625,39.9375,-86.3125,0.5948,-0.1871,0.7217,0.3007,
2025-03-09 23:11:22.560,10.8300,2.6000,1.5200,-169.5000,51.8750,-85.6250,0.5843,-0.1944,0.7166,0.3275,
2025-03-09 23:11:22.577,10.7000,2.3500,1.1600,-183.5000,55.3125,-84.1875,0.5705,-0.2043,0.7110,0.3568,
2025-03-09 23:11:22.588,10.8000,2.3800,1.1100,-216.1875,64.2500,-87.0625,0.5623,-0.2104,0.7077,0.3725,
2025-03-09 23:11:22.608,11.4000,2.5000,1.5800,-228.8750,83.0625,-84.6875,0.5429,-0.2241,0.7002,0.4059,
2025-03-09 23:11:22.628,11.1700,2.3100,2.2100,-232.6250,98.2500,-82.5000,0.5190,-0.2372,0.6933,0.4401,
2025-03-09 23:11:22.685,10.2600,1.6500,3.1000,-246.3750,113.8125,-78.7500,0.5051,-0.2436,0.6902,0.4573,
2025-03-09 23:11:22.685,9.7300,0.1100,3.4600,-245.0000,115.8750,-77.3125,0.4754,-0.2566,0.6828,0.4918,
2025-03-09 23:11:22.685,9.3500,-1.5600,3.8700,-232.5000,115.1875,-69.1250,0.4449,-0.2684,0.6749,0.5239,
2025-03-09 23:11:22.705,9.4100,-1.8600,3.9000,-192.7500,116.5000,-63.6250,0.4302,-0.2729,0.6714,0.5381,
2025-03-09 23:11:22.706,9.2200,-1.8000,4.1300,-145.3750,111.4375,-57.0625,0.4031,-0.2781,0.6653,0.5635,
2025-03-09 23:11:22.729,9.7200,-0.9300,3.9400,-121.7500,109.0625,-53.5000,0.3805,-0.2787,0.6609,0.5837,
2025-03-09 23:11:22.741,9.3000,-0.5800,4.2800,-85.6250,104.6875,-45.0625,0.3699,-0.2784,0.6582,0.5936,
2025-03-09 23:11:22.760,8.5700,0.2300,4.1400,-74.6250,100.5625,-42.8750,0.3525,-0.2742,0.6563,0.6082,
2025-03-09 23:11:22.775,7.2300,0.1700,3.8000,-68.7500,89.1875,-42.1250,0.3370,-0.2699,0.6540,0.6212,
2025-03-09 23:11:22.795,7.0300,0.1500,3.7100,-68.4375,82.0625,-40.3750,0.3298,-0.2682,0.6527,0.6272,
2025-03-09 23:11:22.805,7.0000,0.2000,3.4300,-61.4375,69.8125,-35.5000,0.3167,-0.2654,0.6498,0.6379,
2025-03-09 23:11:22.827,6.7700,0.3000,3.9900,-57.6875,59.2500,-32.3125,0.3050,-0.2634,0.6469,0.6474,
2025-03-09 23:11:22.841,6.7100,0.1300,4.1300,-57.8125,52.7500,-32.2500,0.2996,-0.2628,0.6453,0.6518,
2025-03-09 23:11:22.851,6.5700,-0.3100,4.4700,-57.0000,39.3125,-32.5000,0.2901,-0.2627,0.6412,0.6600,
2025-03-09 23:11:22.871,6.3300,-0.3200,4.9300,-46.6250,28.0000,-32.0000,0.2826,-0.2631,0.6369,0.6673,
2025-03-09 23:11:22.881,6.3900,-0.1700,5.0400,-36.9375,21.1250,-30.9375,0.2790,-0.2643,0.6320,0.6730,
2025-03-09 23:11:22.911,6.5700,-0.0700,5.3400,-17.5000,9.2500,-30.0000,0.2766,-0.2638,0.6282,0.6777,
2025-03-09 23:11:22.927,6.3100,-0.6800,5.4100,-4.2500,-0.5000,-27.3750,0.2767,-0.2630,0.6247,0.6812,
2025-03-09 23:11:22.970,6.1600,-0.5700,5.3300,1.6875,-6.5000,-24.8125,0.2770,-0.2635,0.6212,0.6840,
2025-03-09 23:11:22.970,6.3300,-0.3800,4.9000,13.3125,-18.7500,-17.6250,0.2808,-0.2633,0.6187,0.6849,
2025-03-09 23:11:22.980,6.6700,-0.1800,4.8700,18.1875,-26.9375,-11.6875,0.2860,-0.2637,0.6168,0.6843,
2025-03-09 23:11:22.991,6.8700,0.0900,5.1100,17.2500,-31.0625,-9.3125,0.2883,-0.2650,0.6145,0.6849,
2025-03-09 23:11:23.013,7.0000,0.0700,5.2100,15.6250,-38.2500,-6.3125,0.2943,-0.2672,0.6126,0.6832,
2025-03-09 23:11:23.027,6.7100,-0.1900,5.3700,18.3750,-44.6250,-3.8125,0.3008,-0.2701,0.6107,0.6808,
2025-03-09 23:11:23.047,6.5000,-0.2800,5.3800,23.5000,-50.2500,-1.5625,0.3045,-0.2722,0.6091,0.6799,
2025-03-09 23:11:23.062,7.4300,-0.3100,4.5100,37.4375,-64.1250,7.3125,0.3144,-0.2759,0.6080,0.6748,
2025-03-09 23:11:23.071,7.4300,-0.1300,4.7600,46.3750,-64.6250,17.3750,0.3254,-0.2795,0.6083,0.6678,
2025-03-09 23:11:23.083,7.4400,-0.0500,4.7900,51.3125,-67.5625,19.2500,0.3312,-0.2814,0.6084,0.6641,
2025-03-09 23:11:23.102,7.5200,-0.1400,4.5800,56.2500,-73.6875,21.5000,0.3376,-0.2832,0.6088,0.6597,
2025-03-09 23:11:23.121,7.3000,-0.3300,4.3800,63.7500,-84.7500,28.6250,0.3516,-0.2875,0.6100,0.6493,
2025-03-09 23:11:23.140,8.5000,0.0400,3.5000,73.0000,-93.0000,42.1250,0.3668,-0.2926,0.6117,0.6369,
2025-03-09 23:11:23.161,8.9300,0.0000,3.6000,87.0625,-85.2500,58.1250,0.3820,-0.2966,0.6163,0.6215,
2025-03-09 23:11:23.170,8.9100,-0.0800,3.8800,91.6875,-88.7500,58.9375,0.3899,-0.2984,0.6188,0.6132,
2025-03-09 23:11:23.183,9.5200,-0.3300,3.6100,106.6875,-100.4375,65.5000,0.4074,-0.3019,0.6238,0.5948,
2025-03-09 23:11:23.201,9.6300,-0.6800,3.3900,121.1250,-102.3125,79.7500,0.4260,-0.3049,0.6301,0.5732,
2025-03-09 23:11:23.270,9.4700,-0.6500,3.0300,144.0000,-100.9375,97.5000,0.4451,-0.3066,0.6385,0.5479,
2025-03-09 23:11:23.270,10.1600,-0.6600,2.8200,158.6250,-97.3750,107.0625,0.4548,-0.3066,0.6438,0.5336,
2025-03-09 23:11:23.270,10.5800,-0.5500,2.8300,170.2500,-94.0625,113.5625,0.4645,-0.3059,0.6496,0.5183,
2025-03-09 23:11:23.270,11.0100,-0.8200,2.7500,176.8125,-93.0625,119.8750,0.4742,-0.3049,0.6556,0.5023,
2025-03-09 23:11:23.270,11.8000,-1.5700,2.3300,183.6250,-93.4375,126.5000,0.4838,-0.3037,0.6619,0.4854,
2025-03-09 23:11:23.270,11.8800,-1.6300,2.2000,192.4375,-91.6250,133.0625,0.4933,-0.3021,0.6683,0.4677,
2025-03-09 23:11:23.290,11.7800,-1.7300,2.2100,200.3750,-84.5000,139.5000,0.5023,-0.2998,0.6753,0.4492,
2025-03-09 23:11:23.310,11.4000,-0.9700,2.4300,208.1250,-60.0000,150.6875,0.5176,-0.2936,0.6907,0.4109,
2025-03-09 23:11:23.329,12.0000,-0.3800,2.3200,205.0625,-43.2500,160.1250,0.5291,-0.2862,0.7071,0.3718,
2025-03-09 23:11:23.336,12.3100,-0.6200,2.2900,198.8125,-37.1250,166.1250,0.5334,-0.2828,0.7153,0.3520,
2025-03-09 23:11:23.350,12.6700,-1.2000,2.2200,191.9375,-31.0000,170.1875,0.5367,-0.2798,0.7233,0.3323,
2025-03-09 23:11:23.351,12.9000,-1.3400,2.3100,184.5000,-22.8125,170.8750,0.5392,-0.2768,0.7313,0.3128,
2025-03-09 23:11:23.361,12.7300,-1.0300,2.1900,176.3125,-11.5000,171.1875,0.5404,-0.2740,0.7393,0.2939,
2025-03-09 23:11:23.378,12.2000,-0.4500,2.5800,165.0625,3.5000,170.7500,0.5402,-0.2713,0.7473,0.2757,
2025-03-09 23:11:23.390,11.9900,0.0000,2.6600,153.9375,17.6250,170.3750,0.5387,-0.2689,0.7555,0.2583,
2025-03-09 23:11:23.399,11.9300,-0.0900,2.8100,141.2500,28.6250,171.0000,0.5359,-0.2670,0.7636,0.2416,
2025-03-09 23:11:23.409,12.0300,-0.6000,2.8200,128.5625,36.8125,174.2500,0.5322,-0.2658,0.7716,0.2253,
2025-03-09 23:11:23.426,11.5500,-2.3900,3.5300,106.4375,53.7500,180.3125,0.5217,-0.2654,0.7873,0.1938,
2025-03-09 23:11:23.435,11.4200,-2.4500,3.7300,97.5000,63.1875,178.7500,0.5150,-0.2657,0.7951,0.1790,
2025-03-09 23:11:23.444,11.5300,-2.3800,3.6600,93.0625,68.8750,175.3750,0.5077,-0.2660,0.8027,0.1647,
2025-03-09 23:11:23.454,11.4400,-2.5900,3.6000,88.3125,74.7500,174.7500,0.4999,-0.2664,0.8102,0.1508,
2025-03-09 23:11:23.466,11.1100,-3.1100,3.8700,80.9375,85.9375,177.8125,0.4910,-0.2672,0.8178,0.1371,
2025-03-09 23:11:23.479,10.8100,-3.3700,4.1800,72.0000,95.6250,179.5625,0.4810,-0.2686,0.8253,0.1238,
2025-03-09 23:11:23.524,10.3000,-3.5200,4.8000,59.2500,100.0625,180.4375,0.4705,-0.2706,0.8325,0.1111,
2025-03-09 23:11:23.524,10.2500,-3.6600,4.9600,46.5625,100.3750,180.8750,0.4597,-0.2736,0.8391,0.0988,
2025-03-09 23:11:23.525,10.2200,-3.7600,5.1400,38.1875,100.5000,179.1250,0.4487,-0.2769,0.8453,0.0869,
2025-03-09 23:11:23.525,10.1700,-3.8700,5.1600,35.3125,105.0000,179.0000,0.4372,-0.2804,0.8512,0.0753,
2025-03-09 23:11:23.527,10.3400,-4.5500,5.0700,26.5000,113.5625,181.1875,0.4248,-0.2844,0.8571,0.0639,
2025-03-09 23:11:23.565,9.7900,-5.6300,5.0900,11.0625,118.0625,186.6875,0.4117,-0.2896,0.8624,0.0528,
2025-03-09 23:11:23.565,9.4200,-5.8300,5.1400,0.4375,118.6250,191.0625,0.3984,-0.2957,0.8673,0.0418,
2025-03-09 23:11:23.565,8.9500,-6.5000,5.4300,-5.6875,115.6875,191.9375,0.3850,-0.3021,0.8715,0.0308,
2025-03-09 23:11:23.565,8.9000,-6.0900,5.6200,-1.5625,112.0625,185.8125,0.3719,-0.3079,0.8755,0.0200,
2025-03-09 23:11:23.578,8.6700,-5.6600,6.0200,15.1875,113.9375,185.4375,0.3587,-0.3124,0.8796,0.0088,
2025-03-09 23:11:23.588,8.5200,-5.2000,5.6100,27.6250,115.4375,180.7500,0.3453,-0.3157,0.8838,-0.0024,
2025-03-09 23:11:23.600,8.4300,-5.4300,5.2700,27.8750,116.1250,179.2500,0.3318,-0.3188,0.8878,-0.0135,
2025-03-09 23:11:23.608,7.9600,-6.1900,5.1400,21.9375,120.2500,180.8750,0.3178,-0.3223,0.8914,-0.0245,
2025-03-09 23:11:23.618,7.3900,-6.5500,5.0800,29.0000,122.6250,185.5000,0.3034,-0.3253,0.8949,-0.0358,
2025-03-09 23:11:23.628,7.0500,-6.0100,5.3200,41.7500,120.6250,186.3750,0.2890,-0.3272,0.8984,-0.0477,
2025-03-09 23:11:23.633,7.0600,-5.3000,5.2800,50.5000,115.5000,180.8125,0.2750,-0.3282,0.9017,-0.0594,
2025-03-09 23:11:23.645,6.8200,-4.6600,5.3800,59.4375,113.0000,171.1875,0.2613,-0.3281,0.9050,-0.0707,
2025-03-09 23:11:23.654,6.4100,-4.1900,5.3200,63.3125,112.4375,161.0625,0.2478,-0.3275,0.9082,-0.0813,
2025-03-09 23:11:23.668,5.8000,-4.1100,5.0500,60.1250,111.9375,155.0625,0.2345,-0.3268,0.9110,-0.0914,
2025-03-09 23:11:23.683,5.4900,-4.3700,5.1000,54.1250,113.0000,153.8125,0.2211,-0.3265,0.9134,-0.1011,
2025-03-09 23:11:23.688,5.1100,-4.9300,5.4500,47.0625,113.3750,152.5000,0.2077,-0.3267,0.9154,-0.1107,
2025-03-09 23:11:23.699,4.1000,-4.6200,5.6200,44.0625,109.4375,147.4375,0.1948,-0.3268,0.9170,-0.1198,
2025-03-09 23:11:23.699,3.9800,-4.8100,5.8400,42.8125,105.9375,143.6875,0.1821,-0.3269,0.9184,-0.1287,
2025-03-09 23:11:23.710,3.5800,-4.6000,5.8000,41.3125,102.8125,135.0000,0.1699,-0.3268,0.9195,-0.1369,
2025-03-09 23:11:23.730,3.3300,-4.2300,5.6100,42.9375,102.9375,126.8750,0.1579,-0.3265,0.9206,-0.1445,
2025-03-09 23:11:23.730,2.9500,-4.7000,5.9200,44.3125,104.5625,122.1875,0.1459,-0.3259,0.9217,-0.1517,
2025-03-09 23:11:23.749,2.8600,-4.8100,6.0300,49.8750,103.8125,119.8125,0.1339,-0.3248,0.9227,-0.1588,
2025-03-09 23:11:23.757,2.5400,-4.5500,6.2900,55.3125,103.0625,116.6250,0.1218,-0.3232,0.9237,-0.1657,
2025-03-09 23:11:23.768,2.3200,-3.6500,6.2100,53.9375,100.6875,108.1875,0.1102,-0.3215,0.9246,-0.1719,
2025-03-09 23:11:23.790,2.1900,-3.5200,6.2200,45.5625,98.0000,97.1875,0.0993,-0.3202,0.9253,-0.1772,
2025-03-09 23:11:23.791,2.1700,-3.9200,6.1900,39.3125,95.4375,89.9375,0.0888,-0.3193,0.9258,-0.1820,
2025-03-09 23:11:23.801,1.5700,-4.1300,6.2000,35.1250,96.0625,85.5625,0.0888,-0.3193,0.9258,-0.1820,
2025-03-09 23:11:23.810,0.8000,-4.9700,6.5900,35.8125,98.4375,80.9375,0.0784,-0.3187,0.9260,-0.1864,
2025-03-09 23:11:23.818,0.3600,-4.8800,6.5600,44.1875,95.8750,74.3750,0.0680,-0.3179,0.9263,-0.1903,
2025-03-09 23:11:23.874,0.0500,-4.7800,6.6200,54.8125,92.6875,70.6250,0.0577,-0.3164,0.9268,-0.1938,
2025-03-09 23:11:23.874,0.0500,-4.5500,6.6200,63.9375,89.8125,67.1875,0.0477,-0.3140,0.9275,-0.1971,
2025-03-09 23:11:23.874,0.1500,-4.3900,6.5200,69.6875,87.0000,64.6875,0.0378,-0.3107,0.9284,-0.2002,
2025-03-09 23:11:23.875,0.1600,-4.3600,6.5100,68.7500,85.5000,63.4375,0.0281,-0.3069,0.9294,-0.2032,
2025-03-09 23:11:23.875,0.0600,-4.4800,6.6600,66.4375,83.1250,61.8750,0.0186,-0.3031,0.9302,-0.2061,
2025-03-09 23:11:23.878,-0.6700,-4.6900,6.5600,64.6250,78.8125,58.0000,0.0093,-0.2994,0.9309,-0.2089,
2025-03-09 23:11:23.888,-1.1800,-4.5600,6.4200,62.1250,73.8750,53.6875,0.0005,-0.2957,0.9316,-0.2115,
2025-03-09 23:11:23.898,-1.5500,-4.3600,6.2900,60.7500,69.1875,49.9375,-0.0078,-0.2921,0.9321,-0.2139,
2025-03-09 23:11:23.917,-1.8200,-3.9500,6.3000,57.8125,65.5000,46.3750,-0.0156,-0.2886,0.9326,-0.2161,
2025-03-09 23:11:23.920,-1.6400,-3.6800,6.3100,52.5000,62.0625,42.0000,-0.0229,-0.2852,0.9331,-0.2181,
2025-03-09 23:11:23.929,-1.5300,-3.6000,6.5000,45.8750,60.0000,37.6250,-0.0298,-0.2820,0.9334,-0.2198,
2025-03-09 23:11:23.938,-1.6800,-3.6500,6.8300,37.4375,58.2500,35.3750,-0.0363,-0.2794,0.9336,-0.2212,
2025-03-09 23:11:23.949,-2.2500,-3.7700,6.8400,27.3750,52.1250,34.3125,-0.0408,-0.2777,0.9324,-0.2278,
2025-03-09 23:11:23.958,-2.5400,-3.9200,6.9400,17.3750,44.3750,33.6250,-0.0463,-0.2764,0.9322,-0.2292,
2025-03-09 23:11:23.962,-2.6400,-4.1300,6.7900,9.8750,37.9375,32.5000,-0.0508,-0.2758,0.9317,-0.2307,
2025-03-09 23:11:23.973,-2.7100,-4.3200,6.6900,7.4375,33.8125,28.8125,-0.0548,-0.2756,0.9312,-0.2324,
2025-03-09 23:11:23.984,-2.8400,-4.0700,6.8300,8.9375,32.1250,24.3125,-0.0583,-0.2755,0.9306,-0.2338,
2025-03-09 23:11:23.994,-2.9300,-3.9900,6.9800,11.6875,28.5625,20.3750,-0.0598,-0.2758,0.9286,-0.2411,
2025-03-09 23:11:24.008,-2.9400,-3.7900,7.2400,14.3125,25.8125,17.9375,-0.0627,-0.2753,0.9283,-0.2419,
2025-03-09 23:11:24.018,-2.7200,-3.6000,7.3100,15.8125,22.2500,16.3750,-0.0654,-0.2746,0.9281,-0.2427,
2025-03-09 23:11:24.029,-2.7600,-3.7200,7.0800,16.4375,18.7500,16.8125,-0.0679,-0.2737,0.9280,-0.2433,
2025-03-09 23:11:24.029,-2.8800,-3.7800,6.9700,16.3750,15.5625,17.6875,-0.0701,-0.2727,0.9280,-0.2441,
2025-03-09 23:11:24.049,-3.0000,-3.7900,6.9000,14.6250,13.2500,15.8750,-0.0703,-0.2721,0.9263,-0.2510,
2025-03-09 23:11:24.059,-3.0500,-4.0400,6.7500,11.0000,11.7500,11.6250,-0.0720,-0.2712,0.9262,-0.2518,
2025-03-09 23:11:24.061,-3.0500,-4.0500,6.9600,7.5625,10.6875,6.1250,-0.0734,-0.2704,0.9261,-0.2524,
2025-03-09 23:11:24.078,-3.1600,-3.9200,7.1900,7.4375,7.8125,2.3750,-0.0746,-0.2701,0.9261,-0.2526,
2025-03-09 23:11:24.088,-3.2200,-3.4200,7.2500,9.6250,1.8750,0.4375,-0.0754,-0.2696,0.9262,-0.2526,
2025-03-09 23:11:24.095,-3.2200,-3.2800,7.2600,11.1875,-3.8750,-0.1875,-0.0748,-0.2692,0.9254,-0.2560,
2025-03-09 23:11:24.105,-3.2100,-3.3400,7.1700,11.0625,-7.2500,-0.1250,-0.0747,-0.2682,0.9257,-0.2560,
2025-03-09 23:11:24.116,-3.2900,-3.4800,7.1800,7.4375,-8.0625,-0.8125,-0.0743,-0.2672,0.9260,-0.2561,
2025-03-09 23:11:24.125,-3.2900,-3.8900,7.3200,1.8750,-9.1250,-2.3750,-0.0739,-0.2665,0.9262,-0.2562,
2025-03-09 23:11:24.173,-3.1900,-3.9000,7.4000,-1.8750,-10.7500,-6.5625,-0.0731,-0.2661,0.9264,-0.2562,
2025-03-09 23:11:24.177,-3.0700,-3.9100,7.4500,-2.0625,-12.8125,-11.4375,-0.0711,-0.2664,0.9256,-0.2593,
2025-03-09 23:11:24.177,-2.8800,-3.5600,7.4700,-0.6875,-15.3125,-14.9375,-0.0698,-0.2663,0.9259,-0.2587,
2025-03-09 23:11:24.177,-2.7700,-3.3700,7.4000,0.5625,-18.8125,-16.6875,-0.0683,-0.2661,0.9263,-0.2579,
2025-03-09 23:11:24.184,-2.7300,-3.3500,7.3100,0.6875,-21.3750,-16.6250,-0.0664,-0.2658,0.9268,-0.2570,
2025-03-09 23:11:24.189,-2.7900,-3.5100,7.2000,-1.1875,-22.9375,-15.8125,-0.0644,-0.2654,0.9273,-0.2562,
2025-03-09 23:11:24.194,-2.6300,-3.6300,6.9100,-4.6875,-25.3125,-16.8125,-0.0612,-0.2653,0.9268,-0.2589,
2025-03-09 23:11:24.204,-2.4400,-3.5600,6.9000,-9.0000,-28.3125,-19.8125,-0.0588,-0.2652,0.9271,-0.2581,
2025-03-09 23:11:24.214,-2.1900,-3.4800,6.9400,-14.0000,-32.5000,-23.8125,-0.0559,-0.2654,0.9275,-0.2573,
2025-03-09 23:11:24.224,-1.7400,-3.2200,7.3000,-19.6250,-37.5625,-29.0000,-0.0525,-0.2659,0.9279,-0.2562,
2025-03-09 23:11:24.240,-1.7100,-3.2100,7.6800,-25.3125,-42.8750,-34.1250,-0.0485,-0.2667,0.9282,-0.2548,
2025-03-09 23:11:24.248,-1.8500,-3.3700,7.7800,-31.3125,-48.3125,-37.9375,-0.0427,-0.2681,0.9275,-0.2570,
2025-03-09 23:11:24.259,-2.2400,-3.7400,7.7000,-36.3750,-51.6250,-38.3750,-0.0374,-0.2696,0.9278,-0.2552,
2025-03-09 23:11:24.271,-2.7400,-4.6900,7.6000,-38.9375,-50.2500,-35.8125,-0.0317,-0.2715,0.9279,-0.2535,
2025-03-09 23:11:24.271,-2.6100,-4.8200,7.5200,-37.0000,-47.2500,-34.3750,-0.0261,-0.2736,0.9279,-0.2519,
2025-03-09 23:11:24.290,-2.2900,-4.8100,7.4200,-32.3125,-47.3125,-36.3750,-0.0208,-0.2755,0.9279,-0.2504,
2025-03-09 23:11:24.290,-1.9000,-4.6700,7.3600,-28.0000,-50.8750,-41.6250,-0.0142,-0.2772,0.9268,-0.2531,
2025-03-09 23:11:24.312,-1.0900,-4.3200,7.4600,-26.4375,-55.2500,-49.1250,-0.0087,-0.2783,0.9271,-0.2510,
2025-03-09 23:11:24.319,-0.7000,-4.0600,7.6700,-27.1250,-59.4375,-57.5625,-0.0026,-0.2793,0.9275,-0.2485,
2025-03-09 23:11:24.330,-0.1000,-3.8500,7.0500,-29.0000,-66.3750,-66.2500,0.0040,-0.2802,0.9280,-0.2454,
2025-03-09 23:11:24.342,0.0000,-4.2800,6.5200,-30.1250,-66.6250,-69.0000,0.0113,-0.2810,0.9287,-0.2418,
2025-03-09 23:11:24.349,-0.2000,-4.4900,6.3700,-25.0625,-63.3125,-66.8750,0.0197,-0.2819,0.9285,-0.2409,
2025-03-09 23:11:24.358,-0.3700,-4.4600,6.1700,-15.6875,-64.7500,-66.4375,0.0268,-0.2825,0.9291,-0.2371,
2025-03-09 23:11:24.369,-0.3500,-4.3000,6.1200,-9.0625,-68.3125,-69.4375,0.0338,-0.2822,0.9299,-0.2334,
2025-03-09 23:11:24.379,0.0700,-3.8200,6.4100,-9.6250,-73.3750,-77.1875,0.0410,-0.2814,0.9308,-0.2296,
2025-03-09 23:11:24.379,0.4500,-3.5800,6.7900,-14.5625,-77.8125,-89.6250,0.0488,-0.2805,0.9318,-0.2252,
2025-03-09 23:11:24.389,0.9700,-3.2900,7.2400,-22.4375,-84.0000,-104.4375,0.0585,-0.2795,0.9318,-0.2241,
2025-03-09 23:11:24.412,2.0000,-2.7700,7.2300,-35.1250,-92.5625,-116.8125,0.0681,-0.2791,0.9328,-0.2177,
2025-03-09 23:11:24.418,2.4500,-3.0600,6.8100,-47.8125,-100.8125,-121.3750,0.0787,-0.2795,0.9335,-0.2105,
2025-03-09 23:11:24.425,2.3900,-3.3400,6.6500,-56.1250,-103.3750,-117.8750,0.0904,-0.2806,0.9338,-0.2029,
2025-03-09 23:11:24.447,1.9800,-3.8900,6.4000,-58.1250,-101.2500,-114.3750,0.1023,-0.2823,0.9336,-0.1956,
2025-03-09 23:11:24.476,1.1300,-4.7700,6.0000,-52.6250,-99.2500,-115.9375,0.1144,-0.2841,0.9328,-0.1899,
2025-03-09 23:11:24.476,1.0500,-4.8000,6.2800,-41.6250,-99.0000,-125.0000,0.1258,-0.2855,0.9324,-0.1827,
2025-03-09 23:11:24.476,1.1300,-4.7000,6.6200,-33.0625,-103.1875,-141.3750,0.1373,-0.2859,0.9321,-0.1747,
2025-03-09 23:11:24.480,2.0800,-3.8600,6.5000,-29.9375,-105.6875,-159.6875,0.1493,-0.2853,0.9321,-0.1657,
2025-03-09 23:11:24.489,2.8200,-4.2100,6.3300,-30.8125,-106.1875,-172.1250,0.1619,-0.2841,0.9322,-0.1553,
2025-03-09 23:11:24.492,3.2700,-4.5600,6.4500,-30.1875,-107.6250,-170.5625,0.1747,-0.2828,0.9321,-0.1439,
2025-03-09 23:11:24.502,4.3500,-5.2700,6.4700,-26.7500,-112.5625,-158.8125,0.1876,-0.2812,0.9317,-0.1325,
2025-03-09 23:11:24.520,4.8500,-6.1700,5.8400,-24.8125,-120.5000,-144.0000,0.2005,-0.2795,0.9310,-0.1223,
2025-03-09 23:11:24.529,4.8000,-6.2900,5.6900,-20.8125,-125.5625,-133.3125,0.2136,-0.2778,0.9297,-0.1133,
2025-03-09 23:11:24.538,4.7700,-5.9400,5.6600,-11.2500,-129.5000,-135.0000,0.2268,-0.2758,0.9281,-0.1054,
2025-03-09 23:11:24.551,4.6900,-4.4700,6.5000,3.1875,-134.7500,-149.0000,0.2403,-0.2728,0.9264,-0.0981,
2025-03-09 23:11:24.557,4.9200,-3.6900,6.6100,9.3125,-140.5625,-170.0000,0.2542,-0.2683,0.9249,-0.0897,
2025-03-09 23:11:24.568,5.4800,-3.2400,6.3900,-0.3125,-146.1250,-187.6875,0.2689,-0.2628,0.9232,-0.0798,
2025-03-09 23:11:24.577,5.8900,-2.9100,5.9500,-18.3125,-146.3750,-190.6250,0.2844,-0.2575,0.9209,-0.0684,
2025-03-09 23:11:24.587,7.0000,-4.6400,5.1300,-37.6875,-142.8125,-179.4375,0.3000,-0.2535,0.9179,-0.0563,
2025-03-09 23:11:24.599,7.3800,-5.5900,4.5800,-48.4375,-142.8750,-162.2500,0.3151,-0.2512,0.9142,-0.0444,
2025-03-09 23:11:24.612,8.0800,-6.3100,4.2600,-52.3750,-149.5000,-147.3125,0.3296,-0.2500,0.9098,-0.0336,
2025-03-09 23:11:24.620,9.0500,-6.9800,4.1100,-48.7500,-155.3750,-135.0625,0.3444,-0.2494,0.9048,-0.0240,
2025-03-09 23:11:24.623,9.6500,-6.3500,5.5500,-35.1875,-156.9375,-130.6875,0.3591,-0.2489,0.8994,-0.0156,
2025-03-09 23:11:24.634,9.2200,-6.0100,6.5900,-19.5625,-152.4375,-135.5625,0.3738,-0.2474,0.8939,-0.0078,
2025-03-09 23:11:24.648,8.5700,-4.8400,6.7200,-11.5625,-150.3750,-146.0000,0.3881,-0.2444,0.8886,-0.0002,
2025-03-09 23:11:24.664,7.2700,-2.9900,6.2200,-22.8750,-144.8125,-154.6875,0.4023,-0.2405,0.8833,0.0081,
2025-03-09 23:11:24.670,6.9100,-2.5000,5.5200,-38.6875,-139.6875,-157.5625,0.4162,-0.2369,0.8777,0.0175,
2025-03-09 23:11:24.680,7.0300,-2.4600,4.9600,-43.0625,-138.8125,-158.8750,0.4296,-0.2344,0.8716,0.0277,
2025-03-09 23:11:24.689,7.4900,-2.5700,4.5900,-36.4375,-140.0000,-161.6875,0.4427,-0.2322,0.8652,0.0382,
2025-03-09 23:11:24.700,9.5700,-2.3800,4.0100,-20.1875,-141.9375,-161.4375,0.4560,-0.2292,0.8586,0.0486,
2025-03-09 23:11:24.710,10.5700,-2.7400,4.3000,-6.8750,-141.1875,-159.8125,0.4692,-0.2250,0.8519,0.0584,
2025-03-09 23:11:24.722,10.6300,-2.6800,4.4400,-0.6250,-139.8125,-158.9375,0.4823,-0.2198,0.8453,0.0674,
2025-03-09 23:11:24.722,11.6600,-2.9200,4.4300,-1.5000,-142.0625,-156.5625,0.4952,-0.2141,0.8385,0.0762,
2025-03-09 23:11:24.773,11.8800,-2.2700,3.8400,-26.5000,-141.7500,-140.8750,0.5206,-0.2040,0.8238,0.0932,
2025-03-09 23:11:24.777,11.7300,-1.9100,3.6400,-34.5625,-135.0000,-133.8750,0.5326,-0.2007,0.8159,0.1017,
2025-03-09 23:11:24.777,11.7100,-0.7900,3.0800,-32.0625,-129.0625,-137.5000,0.5438,-0.1982,0.8080,0.1102,
2025-03-09 23:11:24.781,12.1200,-0.8200,2.7000,-24.1250,-124.8750,-142.8750,0.5545,-0.1953,0.8002,0.1189,
2025-03-09 23:11:24.825,12.6700,-1.5100,2.1200,-27.8125,-117.2500,-136.1250,0.5751,-0.1874,0.7846,0.1362,
2025-03-09 23:11:24.828,12.1100,-1.5700,1.9700,-43.0000,-107.1875,-118.5000,0.5935,-0.1814,0.7691,0.1530,
2025-03-09 23:11:24.847,11.7400,-1.3700,1.9800,-44.8125,-100.3125,-113.1875,0.6092,-0.1781,0.7540,0.1692,
2025-03-09 23:11:24.865,11.1600,-0.9100,1.5800,-44.5625,-80.5625,-100.1875,0.6158,-0.1771,0.7470,0.1773,
2025-03-09 23:11:24.865,11.0300,-0.3100,1.0800,-38.4375,-66.7500,-87.0625,0.6269,-0.1747,0.7346,0.1918,
2025-03-09 23:11:24.885,10.8800,-0.2600,0.7400,-36.0625,-63.0000,-75.5000,0.6361,-0.1726,0.7238,0.2042,
2025-03-09 23:11:24.895,10.7800,0.1900,0.4800,-36.1250,-62.3750,-70.0000,0.6403,-0.1724,0.7183,0.2104,
2025-03-09 23:11:24.920,10.3000,0.6900,0.4600,-60.1875,-56.4375,-59.6875,0.6482,-0.1721,0.7080,0.2212,
2025-03-09 23:11:24.939,10.3100,0.4600,0.5100,-90.7500,-37.4375,-40.1250,0.6534,-0.1760,0.6981,0.2338,
2025-03-09 23:11:24.951,10.2700,-1.1300,0.7100,-101.5625,-24.8125,-28.1875,0.6544,-0.1799,0.6939,0.2406,
2025-03-09 23:11:24.972,10.3300,-2.1100,0.9600,-99.3125,-2.1250,-5.0000,0.6530,-0.1903,0.6877,0.2540,
2025-03-09 23:11:24.982,10.1100,-2.5100,1.2100,-68.4375,10.7500,6.6250,0.6487,-0.2009,0.6847,0.2644,
2025-03-09 23:11:25.000,9.7600,-1.9000,1.3000,-50.3750,12.3750,7.6250,0.6464,-0.2050,0.6843,0.2679,
2025-03-09 23:11:25.019,9.5900,-0.6200,1.3100,-15.6875,7.8125,4.1875,0.6429,-0.2100,0.6845,0.2720,
2025-03-09 23:11:25.074,9.6200,-0.2800,1.1000,15.3125,-5.7500,0.2500,0.6420,-0.2109,0.6849,0.2726,
2025-03-09 23:11:25.077,9.5300,-0.0200,0.1600,27.2500,-9.4375,-1.1250,0.6426,-0.2102,0.6848,0.2717,
2025-03-09 23:11:25.077,9.4900,0.0900,-0.0900,33.3125,-8.2500,0.0000,0.6451,-0.2070,0.6848,0.2682,
2025-03-09 23:11:25.086,9.4800,0.2300,-0.1200,29.1250,-3.4375,4.9375,0.6474,-0.2037,0.6852,0.2643,
2025-03-09 23:11:25.098,9.4000,0.5800,-0.2000,27.6250,-1.3125,8.5625,0.6482,-0.2024,0.6856,0.2624,
2025-03-09 23:11:25.120,9.5600,0.7500,-0.1800,17.8750,-1.7500,13.6875,0.6490,-0.2005,0.6869,0.2584,
2025-03-09 23:11:25.141,9.6400,0.6900,-0.0700,11.5000,-3.4375,14.3125,0.6495,-0.2005,0.6877,0.2551,
2025-03-09 23:11:25.151,9.7300,0.4700,0.1700,3.8125,-5.1875,14.4375,0.6497,-0.2010,0.6879,0.2538,
2025-03-09 23:11:25.169,9.8700,0.3500,0.2800,4.7500,-8.7500,13.4375,0.6500,-0.2024,0.6879,0.2515,
2025-03-09 23:11:25.182,9.9800,0.4700,0.3100,6.6250,-10.5625,12.5625,0.6509,-0.2036,0.6876,0.2490,
2025-03-09 23:11:25.200,10.1100,0.6100,0.3200,9.0625,-12.0000,10.4375,0.6512,-0.2053,0.6869,0.2491,
2025-03-09 23:11:25.220,10.1500,0.7800,0.3700,9.2500,-10.8125,8.1250,0.6526,-0.2058,0.6863,0.2465,
2025-03-09 23:11:25.237,10.1400,0.7300,0.4300,7.8125,-10.1250,6.8750,0.6539,-0.2061,0.6858,0.2443,
2025-03-09 23:11:25.252,10.1200,0.7200,0.4100,3.0000,-8.2500,4.1875,0.6538,-0.2080,0.6848,0.2456,
2025-03-09 23:11:25.270,10.0900,0.6100,0.3400,0.6250,-6.1250,2.0625,0.6549,-0.2082,0.6839,0.2449,
2025-03-09 23:11:25.283,9.9800,0.4200,0.2200,0.8750,-4.8125,0.1875,0.6557,-0.2085,0.6832,0.2445,
2025-03-09 23:11:25.294,9.9000,0.4000,0.1900,0.9375,-3.5625,-0.1250,0.6560,-0.2086,0.6829,0.2444,
2025-03-09 23:11:25.325,9.6600,0.3300,0.1000,1.0625,-2.3750,0.2500,0.6564,-0.2086,0.6826,0.2443,
2025-03-09 23:11:25.370,9.5800,0.3000,0.1400,1.6875,-1.7500,0.5625,0.6567,-0.2086,0.6824,0.2440,
2025-03-09 23:11:25.372,9.6100,0.2700,0.1500,4.5625,0.1875,1.3125,0.6562,-0.2103,0.6818,0.2457,
2025-03-09 23:11:25.372,9.6800,0.3100,0.1300,7.7500,1.2500,2.3125,0.6565,-0.2098,0.6819,0.2448,
2025-03-09 23:11:25.381,9.7400,0.4100,0.1000,8.6875,1.3750,2.7500,0.6569,-0.2092,0.6822,0.2436,
2025-03-09 23:11:25.400,9.7800,0.4800,0.0600,9.0625,1.1875,2.6875,0.6568,-0.2100,0.6818,0.2442,
2025-03-09 23:11:25.415,9.8600,0.5500,0.0000,8.5625,1.1875,2.4375,0.6575,-0.2092,0.6819,0.2429,
2025-03-09 23:11:25.435,9.8700,0.5500,0.0000,8.3125,2.1250,2.1250,0.6581,-0.2084,0.6819,0.2418,
2025-03-09 23:11:25.449,9.8300,0.5800,0.1400,6.5625,2.5000,1.3750,0.6581,-0.2083,0.6819,0.2418,
2025-03-09 23:11:25.470,9.8400,0.4800,0.1200,5.3125,1.8125,1.0625,0.6584,-0.2076,0.6821,0.2411,
2025-03-09 23:11:25.481,9.8700,0.4700,0.2100,3.5625,1.0000,0.2500,0.6587,-0.2071,0.6822,0.2407,
2025-03-09 23:11:25.501,9.8300,0.4900,0.2200,3.0625,0.5625,-0.6875,0.6585,-0.2078,0.6818,0.2416,
2025-03-09 23:11:25.522,9.7500,0.3500,0.1500,2.5000,0.5000,-1.5000,0.6587,-0.2073,0.6818,0.2414,
2025-03-09 23:11:25.539,9.8200,0.2400,0.1500,2.6250,0.0625,-1.4375,0.6591,-0.2070,0.6816,0.2412,
2025-03-09 23:11:25.549,9.8400,0.2000,0.1200,4.0000,-0.2500,-1.3125,0.6592,-0.2073,0.6813,0.2415,
2025-03-09 23:11:25.572,9.8100,0.1800,0.1500,4.5625,-0.5000,-1.2500,0.6596,-0.2068,0.6813,0.2410,
2025-03-09 23:11:25.580,9.8400,0.2700,0.2000,4.6250,-1.5000,-1.2500,0.6601,-0.2063,0.6811,0.2404,
2025-03-09 23:11:25.600,9.8400,0.3800,0.2600,3.6250,-1.7500,-1.3125,0.6603,-0.2062,0.6809,0.2404,
2025-03-09 23:11:25.625,9.7500,0.3800,0.2400,2.5000,-2.6250,-1.5625,0.6608,-0.2059,0.6806,0.2402,
2025-03-09 23:11:25.674,9.7400,0.3400,0.1800,2.2500,-3.0000,-1.8125,0.6615,-0.2056,0.6802,0.2399,
2025-03-09 23:11:25.677,9.8000,0.2700,0.1600,2.4375,-2.8750,-2.1875,0.6615,-0.2061,0.6797,0.2406,
2025-03-09 23:11:25.677,9.9600,0.2300,0.1600,3.0625,-2.5625,-2.6250,0.6621,-0.2057,0.6794,0.2404,
2025-03-09 23:11:25.690,9.9900,0.3100,0.1600,4.2500,-3.0625,-2.8125,0.6628,-0.2051,0.6790,0.2401,
2025-03-09 23:11:25.700,9.9200,0.3900,0.1800,5.1250,-3.6875,-2.8750,0.6626,-0.2068,0.6780,0.2419,
2025-03-09 23:11:25.722,9.8100,0.4700,0.1400,5.5625,-4.2500,-2.7500,0.6635,-0.2061,0.6776,0.2415,
2025-03-09 23:11:25.738,9.8200,0.5600,0.1000,5.8750,-3.8750,-2.1875,0.6644,-0.2053,0.6771,0.2409,
2025-03-09 23:11:25.749,9.8400,0.5800,0.1200,5.6250,-3.2500,-2.1250,0.6645,-0.2057,0.6766,0.2415,
2025-03-09 23:11:25.766,9.8300,0.7100,0.0600,4.8125,-1.9375,-1.4375,0.6652,-0.2050,0.6763,0.2411,
2025-03-09 23:11:25.792,9.8100,0.7000,0.0600,3.3125,-1.4375,-1.4375,0.6657,-0.2043,0.6760,0.2409,
2025-03-09 23:11:25.800,9.7900,0.6800,0.0800,2.9375,-1.4375,-1.5000,0.6660,-0.2042,0.6758,0.2411,
2025-03-09 23:11:25.811,9.8900,0.6900,0.0700,1.7500,-1.8125,-1.6875,0.6665,-0.2037,0.6754,0.2411,
2025-03-09 23:11:25.854,9.9000,0.6800,0.0900,0.8750,-1.3125,-1.5000,0.6669,-0.2034,0.6751,0.2412,
2025-03-09 23:11:25.854,9.8900,0.6700,0.0700,0.6875,-1.0625,-1.4375,0.6663,-0.2056,0.6741,0.2436,
2025-03-09 23:11:25.870,9.9100,0.6100,0.0000,-0.8125,-0.8750,-1.3750,0.6666,-0.2055,0.6737,0.2438,
2025-03-09 23:11:25.890,9.9000,0.5000,0.0300,-2.2500,0.6250,-1.2500,0.6667,-0.2056,0.6735,0.2442,
2025-03-09 23:11:25.898,9.9200,0.5100,0.0400,-2.9375,0.6875,-1.3750,0.6666,-0.2061,0.6732,0.2449,
2025-03-09 23:11:25.920,9.9500,0.5400,0.0600,-3.3750,0.5625,-1.1875,0.6665,-0.2063,0.6730,0.2454,
2025-03-09 23:11:25.968,9.8900,0.5500,0.1100,-3.4375,0.3750,-1.2500,0.6665,-0.2066,0.6728,0.2459,
2025-03-09 23:11:25.968,9.8400,0.5600,0.1200,-3.6250,0.4375,-1.3750,0.6665,-0.2067,0.6726,0.2463,
2025-03-09 23:11:25.972,9.7800,0.5900,0.1100,-3.5000,0.5000,-1.1875,0.6665,-0.2069,0.6725,0.2465,
2025-03-09 23:11:25.972,9.7600,0.5700,0.0900,-3.8125,0.6875,-1.1875,0.6664,-0.2070,0.6724,0.2468,
2025-03-09 23:11:25.976,9.7600,0.5600,0.0800,-4.0000,0.7500,-0.8750,0.6663,-0.2071,0.6724,0.2471,
2025-03-09 23:11:26.001,9.8400,0.5000,0.0700,-4.1250,2.0625,-0.5625,0.6658,-0.2082,0.6720,0.2484,
2025-03-09 23:11:26.006,9.8700,0.5200,0.1000,-3.8750,3.0625,-0.4375,0.6656,-0.2084,0.6721,0.2487,
2025-03-09 23:11:26.027,9.9200,0.5500,0.1300,-3.9375,3.6250,-0.2500,0.6653,-0.2085,0.6722,0.2490,
2025-03-09 23:11:26.029,9.9000,0.5400,0.1500,-3.8125,3.9375,-0.1875,0.6650,-0.2086,0.6724,0.2493,
2025-03-09 23:11:26.037,9.8900,0.5100,0.1700,-4.0625,3.9375,-0.1875,0.6647,-0.2088,0.6725,0.2496,
2025-03-09 23:11:26.062,9.8900,0.5000,0.2200,-4.1250,3.5625,0.2500,0.6643,-0.2095,0.6724,0.2504,
2025-03-09 23:11:26.062,9.9100,0.4100,0.2200,-4.4375,3.2500,0.5625,0.6640,-0.2097,0.6725,0.2507,
2025-03-09 23:11:26.062,9.9100,0.3800,0.1900,-4.6250,3.2500,0.6875,0.6637,-0.2100,0.6726,0.2510,
2025-03-09 23:11:26.082,9.9000,0.3500,0.2400,-4.3125,3.1875,0.8750,0.6635,-0.2102,0.6727,0.2512,
2025-03-09 23:11:26.082,9.8800,0.2900,0.3200,-4.1250,3.0000,1.3125,0.6632,-0.2104,0.6728,0.2514,
2025-03-09 23:11:26.102,9.8700,0.2700,0.3400,-3.8125,3.1875,1.5000,0.6627,-0.2114,0.6727,0.2521,
2025-03-09 23:11:26.102,9.8400,0.2700,0.3800,-3.3125,3.4375,1.3750,0.6624,-0.2116,0.6729,0.2523,
2025-03-09 23:11:26.120,9.8100,0.2900,0.3900,-2.6875,3.6250,1.4375,0.6620,-0.2118,0.6732,0.2524,
2025-03-09 23:11:26.130,9.7800,0.3600,0.4100,-1.7500,3.6250,1.4375,0.6618,-0.2119,0.6733,0.2524,
2025-03-09 23:11:26.138,9.7500,0.3800,0.4400,-1.1250,3.6250,1.2500,0.6615,-0.2120,0.6736,0.2525,
2025-03-09 23:11:26.149,9.7400,0.4100,0.4200,-0.5000,3.6250,1.0625,0.6611,-0.2126,0.6736,0.2531,
2025-03-09 23:11:26.159,9.7600,0.4000,0.4100,-0.1875,3.8750,1.1250,0.6608,-0.2126,0.6738,0.2531,
2025-03-09 23:11:26.168,9.8500,0.4600,0.3400,0.0000,4.1250,1.0000,0.6605,-0.2126,0.6741,0.2532,
2025-03-09 23:11:26.179,9.8500,0.4500,0.3300,0.1875,4.1250,0.8750,0.6603,-0.2126,0.6743,0.2532,
2025-03-09 23:11:26.188,9.8700,0.5000,0.3400,0.0625,4.3750,0.6250,0.6600,-0.2125,0.6746,0.2532,
2025-03-09 23:11:26.202,9.8400,0.4900,0.3800,-0.2500,4.3750,0.6250,0.6596,-0.2129,0.6747,0.2538,
2025-03-09 23:11:26.207,9.8300,0.4800,0.3500,-0.7500,4.4375,1.0000,0.6593,-0.2130,0.6749,0.2538,
2025-03-09 23:11:26.217,9.8000,0.4600,0.3400,-1.3750,4.7500,1.1250,0.6590,-0.2130,0.6752,0.2540,
2025-03-09 23:11:26.227,9.7800,0.4400,0.3500,-1.6250,5.0625,1.5625,0.6586,-0.2131,0.6755,0.2540,
2025-03-09 23:11:26.270,9.7500,0.3900,0.3500,-1.5000,5.0000,1.7500,0.6583,-0.2131,0.6757,0.2542,
2025-03-09 23:11:26.274,9.7600,0.4100,0.3500,-1.2500,5.0000,2.0625,0.6580,-0.2133,0.6760,0.2542,
2025-03-09 23:11:26.274,9.7700,0.4200,0.3300,-0.9375,4.8125,2.0625,0.6576,-0.2133,0.6763,0.2542,
2025-03-09 23:11:26.274,9.9000,0.4800,0.3500,-1.2500,4.5625,2.1875,0.6573,-0.2134,0.6766,0.2542,
2025-03-09 23:11:26.274,9.9300,0.4700,0.4100,-1.6875,4.5625,2.3750,0.6570,-0.2136,0.6769,0.2543,
2025-03-09 23:11:26.283,9.9000,0.4600,0.4100,-2.3125,5.0000,2.2500,0.6566,-0.2137,0.6772,0.2543,
2025-03-09 23:11:26.294,9.8700,0.3900,0.4800,-2.9375,5.3750,2.5000,0.6560,-0.2145,0.6772,0.2551,
2025-03-09 23:11:26.304,9.7300,0.3900,0.5700,-3.6875,5.3750,2.4375,0.6555,-0.2148,0.6775,0.2553,
2025-03-09 23:11:26.317,9.6800,0.3900,0.5600,-4.5000,5.0625,2.5625,0.6551,-0.2151,0.6777,0.2555,
2025-03-09 23:11:26.327,9.6900,0.3800,0.5800,-4.9375,4.8125,2.3125,0.6547,-0.2154,0.6780,0.2557,
2025-03-09 23:11:26.338,9.7700,0.2700,0.6100,-4.8750,4.2500,2.2500,0.6542,-0.2157,0.6782,0.2559,
2025-03-09 23:11:26.339,9.7800,0.2200,0.6100,-4.9375,4.3750,2.0000,0.6537,-0.2164,0.6783,0.2565,
2025-03-09 23:11:26.360,9.7600,0.1700,0.6400,-5.2500,4.6875,1.7500,0.6533,-0.2167,0.6785,0.2568,
2025-03-09 23:11:26.360,9.7000,0.1100,0.7100,-5.3750,5.0000,1.4375,0.6528,-0.2170,0.6788,0.2571,
2025-03-09 23:11:26.370,9.6400,0.1000,0.7000,-4.5000,4.6875,1.5625,0.6523,-0.2173,0.6791,0.2573,
2025-03-09 23:11:26.399,9.6200,0.1200,0.7500,-3.1875,4.3750,1.6875,0.6518,-0.2176,0.6794,0.2574,
2025-03-09 23:11:26.401,9.6000,0.1500,0.7300,-1.7500,3.6250,1.8125,0.6514,-0.2180,0.6796,0.2575,
2025-03-09 23:11:26.408,9.5700,0.1700,0.6400,-0.1875,3.0000,2.0000,0.6511,-0.2181,0.6799,0.2574,
2025-03-09 23:11:26.419,9.5800,0.2400,0.5900,1.0000,2.5625,1.9375,0.6509,-0.2181,0.6801,0.2573,
2025-03-09 23:11:26.427,9.5900,0.2600,0.6100,1.6875,2.8125,1.6875,0.6507,-0.2180,0.6804,0.2571,
2025-03-09 23:11:26.437,9.6300,0.3500,0.5400,1.8125,2.9375,1.6875,0.6506,-0.2180,0.6806,0.2570,
2025-03-09 23:11:26.438,9.6700,0.4100,0.4800,1.3750,2.8750,1.9375,0.6504,-0.2180,0.6808,0.2568,
2025-03-09 23:11:26.458,9.7300,0.4200,0.4200,0.6250,2.6250,2.2500,0.6502,-0.2180,0.6810,0.2567,
2025-03-09 23:11:26.467,9.7600,0.4000,0.3400,0.0625,2.4375,2.8750,0.6501,-0.2181,0.6812,0.2566,
2025-03-09 23:11:26.478,9.8100,0.4000,0.2900,-0.8125,2.5000,3.5625,0.6499,-0.2183,0.6813,0.2565,
2025-03-09 23:11:26.489,9.8300,0.3200,0.2200,-1.8125,2.6250,3.8750,0.6497,-0.2186,0.6814,0.2564,
2025-03-09 23:11:26.498,9.8100,0.2900,0.2300,-2.5000,2.7500,4.1250,0.6496,-0.2189,0.6815,0.2563,
2025-03-09 23:11:26.507,9.7600,0.3000,0.2400,-2.6250,2.6250,4.1875,0.6494,-0.2193,0.6816,0.2562,
2025-03-09 23:11:26.519,9.7000,0.2600,0.2600,-2.3125,2.6250,4.1875,0.6493,-0.2197,0.6816,0.2560,
2025-03-09 23:11:26.528,9.6900,0.2700,0.2600,-1.8125,2.4375,4.3750,0.6492,-0.2200,0.6817,0.2559,
2025-03-09 23:11:26.568,9.6700,0.3000,0.2500,-0.8125,2.1875,4.3750,0.6491,-0.2203,0.6818,0.2557,
2025-03-09 23:11:26.568,9.6900,0.3500,0.1900,-0.3125,1.9375,4.3125,0.6491,-0.2206,0.6818,0.2554,
2025-03-09 23:11:26.568,9.7700,0.4100,0.1200,0.0625,2.3750,4.3125,0.6490,-0.2208,0.6818,0.2552,
2025-03-09 23:11:26.568,9.8100,0.4500,0.0800,0.3750,3.0625,4.6250,0.6491,-0.2210,0.6818,0.2549,
2025-03-09 23:11:26.578,9.8700,0.4300,0.0800,0.2500,3.6875,4.6250,0.6490,-0.2213,0.6818,0.2548,
2025-03-09 23:11:26.587,9.9100,0.4000,0.1100,-0.3125,4.0625,4.6250,0.6490,-0.2214,0.6819,0.2545,
2025-03-09 23:11:26.599,9.9300,0.4000,0.1500,-1.6875,4.1250,4.8125,0.6488,-0.2222,0.6817,0.2549,
2025-03-09 23:11:26.608,9.9500,0.4100,0.1700,-3.1250,4.2500,4.9375,0.6486,-0.2226,0.6818,0.2549,
2025-03-09 23:11:26.620,9.9600,0.4100,0.1900,-4.3750,4.0000,5.0625,0.6484,-0.2230,0.6818,0.2549,
2025-03-09 23:11:26.630,10.0000,0.3700,0.2300,-4.3750,4.0625,5.0000,0.6482,-0.2234,0.6818,0.2549,
2025-03-09 23:11:26.646,9.9600,0.2900,0.2700,-3.3750,4.1875,4.9375,0.6480,-0.2239,0.6819,0.2549,
2025-03-09 23:11:26.646,9.9500,0.2400,0.2900,-1.3750,4.0625,4.6875,0.6478,-0.2242,0.6821,0.2548,
2025-03-09 23:11:26.656,9.8200,0.1600,0.3300,0.4375,3.5625,4.5000,0.6476,-0.2244,0.6822,0.2546,
2025-03-09 23:11:26.667,9.7800,0.1600,0.3000,1.5625,3.0625,4.3125,0.6475,-0.2245,0.6824,0.2543,
2025-03-09 23:11:26.679,9.7600,0.1700,0.2900,2.1250,2.3125,4.1875,0.6474,-0.2247,0.6826,0.2539,
2025-03-09 23:11:26.688,9.7400,0.2400,0.2600,3.0000,1.6250,3.8125,0.6475,-0.2247,0.6827,0.2535,
2025-03-09 23:11:26.698,9.7800,0.3000,0.2300,4.3125,1.0625,3.3750,0.6473,-0.2254,0.6824,0.2539,
2025-03-09 23:11:26.711,9.7800,0.3100,0.2400,5.6250,1.1250,2.8750,0.6475,-0.2252,0.6825,0.2534,
2025-03-09 23:11:26.718,9.7500,0.2900,0.2100,7.1875,1.1250,2.3750,0.6477,-0.2249,0.6826,0.2529,
2025-03-09 23:11:26.728,9.7300,0.3200,0.2400,8.8125,1.0625,1.7500,0.6479,-0.2245,0.6828,0.2523,
2025-03-09 23:11:26.735,9.7300,0.3800,0.2500,10.0000,0.8750,1.5000,0.6482,-0.2240,0.6829,0.2517,
2025-03-09 23:11:26.745,9.7600,0.4600,0.1900,10.6250,0.9375,1.1250,0.6485,-0.2234,0.6830,0.2511,
2025-03-09 23:11:26.755,9.7700,0.5200,0.1900,10.3125,1.0000,1.3125,0.6488,-0.2228,0.6831,0.2505,
2025-03-09 23:11:26.766,9.8300,0.5900,0.1700,9.0000,1.1875,1.0000,0.6492,-0.2222,0.6831,0.2501,
2025-03-09 23:11:26.777,9.8400,0.6200,0.1900,7.9375,0.7500,0.5000,0.6495,-0.2216,0.6831,0.2498,
2025-03-09 23:11:26.788,9.8800,0.5900,0.1700,6.5625,0.3750,0.0625,0.6499,-0.2211,0.6830,0.2495,
2025-03-09 23:11:26.802,9.8900,0.6000,0.2000,4.8125,0.1250,-0.1875,0.6501,-0.2213,0.6826,0.2500,
2025-03-09 23:11:26.808,9.9300,0.5100,0.2000,3.2500,0.0000,-0.6875,0.6501,-0.2213,0.6826,0.2500,
2025-03-09 23:11:26.818,9.9600,0.5000,0.2400,2.1875,-0.1250,-1.2500,0.6504,-0.2210,0.6824,0.2499,
2025-03-09 23:11:26.828,9.9900,0.5000,0.2600,1.8125,0.0000,-2.0000,0.6506,-0.2208,0.6823,0.2499,
2025-03-09 23:11:26.867,9.9700,0.4200,0.3300,1.6875,-0.0625,-2.5625,0.6509,-0.2205,0.6821,0.2500,
2025-03-09 23:11:26.867,9.9600,0.4600,0.3300,1.5000,-0.1875,-2.6875,0.6511,-0.2202,0.6820,0.2501,
2025-03-09 23:11:26.867,9.9300,0.4800,0.3200,1.0625,-0.5000,-3.1875,0.6512,-0.2199,0.6819,0.2502,
2025-03-09 23:11:26.867,9.9100,0.4800,0.3000,0.1250,-0.9375,-3.2500,0.6514,-0.2197,0.6817,0.2504,
2025-03-09 23:11:26.880,9.8800,0.4500,0.2900,-0.8750,-1.0625,-3.2500,0.6516,-0.2194,0.6815,0.2506,
2025-03-09 23:11:26.890,9.8500,0.4200,0.2400,-1.7500,-0.6875,-3.0625,0.6518,-0.2193,0.6813,0.2509,
2025-03-09 23:11:26.901,9.9000,0.3900,0.2400,-2.1875,-0.5000,-2.5000,0.6519,-0.2192,0.6811,0.2511,
2025-03-09 23:11:26.901,9.9400,0.3900,0.2300,-2.7500,0.1250,-2.1250,0.6520,-0.2192,0.6809,0.2514,
2025-03-09 23:11:26.918,9.9400,0.3900,0.2300,-2.5625,0.2500,-1.4375,0.6521,-0.2192,0.6807,0.2517,
2025-03-09 23:11:26.928,9.9000,0.4300,0.2600,-2.4375,0.4375,-1.1250,0.6522,-0.2193,0.6805,0.2519,
2025-03-09 23:11:26.933,9.8400,0.4000,0.2900,-2.5625,0.6250,-0.8750,0.6523,-0.2194,0.6804,0.2521,
2025-03-09 23:11:26.942,9.7100,0.3300,0.3400,-2.7500,0.8750,-0.4375,0.6523,-0.2195,0.6802,0.2523,
2025-03-09 23:11:26.953,9.6700,0.3000,0.3900,-3.5000,0.8125,-0.1875,0.6522,-0.2196,0.6802,0.2525,
2025-03-09 23:11:26.965,9.6700,0.2500,0.3800,-3.8125,1.1875,0.0000,0.6522,-0.2198,0.6801,0.2527,
2025-03-09 23:11:26.979,9.7300,0.2000,0.3700,-3.7500,1.0000,0.2500,0.6520,-0.2200,0.6801,0.2529,
2025-03-09 23:11:26.988,9.7900,0.1900,0.3900,-3.1875,0.8125,0.5000,0.6519,-0.2202,0.6800,0.2531,
2025-03-09 23:11:26.998,9.8200,0.1600,0.3600,-2.4375,0.7500,0.8750,0.6518,-0.2204,0.6800,0.2533,
2025-03-09 23:11:27.007,9.8600,0.1600,0.3300,-1.4375,0.5000,1.4375,0.6517,-0.2206,0.6800,0.2534,
2025-03-09 23:11:27.031,9.7900,0.2100,0.3100,-0.1875,0.6250,1.3750,0.6517,-0.2208,0.6800,0.2533,
2025-03-09 23:11:27.031,9.7800,0.2700,0.3200,1.0625,0.9375,1.3125,0.6517,-0.2209,0.6800,0.2532,
2025-03-09 23:11:27.032,9.7800,0.3300,0.2900,2.1250,1.4375,0.7500,0.6517,-0.2209,0.6801,0.2531,
2025-03-09 23:11:27.042,9.9100,0.4000,0.3000,3.0000,1.7500,0.4375,0.6517,-0.2208,0.6801,0.2529,
2025-03-09 23:11:27.052,10.0200,0.4000,0.3000,3.2500,2.0625,0.1875,0.6517,-0.2206,0.6802,0.2528,
2025-03-09 23:11:27.062,10.0600,0.4200,0.2700,3.3125,2.0000,0.0000,0.6517,-0.2204,0.6803,0.2526,
2025-03-09 23:11:27.082,10.1200,0.4500,0.2200,3.3125,2.1875,-0.1250,0.6517,-0.2202,0.6804,0.2525,
2025-03-09 23:11:27.089,10.1500,0.4800,0.1900,2.6875,2.0625,-0.3125,0.6517,-0.2199,0.6806,0.2523,
2025-03-09 23:11:27.098,10.1100,0.5000,0.2400,1.5000,2.4375,-0.5000,0.6516,-0.2197,0.6808,0.2523,
2025-03-09 23:11:27.108,10.0300,0.4700,0.2900,-0.6875,2.6250,-0.6250,0.6515,-0.2195,0.6810,0.2522,
2025-03-09 23:11:27.118,9.9500,0.5000,0.3300,-3.4375,3.0000,-0.7500,0.6515,-0.2195,0.6810,0.2523,
2025-03-09 23:11:27.128,9.9000,0.4700,0.4400,-5.5000,3.0625,-0.9375,0.6514,-0.2195,0.6810,0.2526,
2025-03-09 23:11:27.172,9.9200,0.4700,0.4500,-6.3750,2.8125,-1.1250,0.6511,-0.2197,0.6810,0.2531,
2025-03-09 23:11:27.174,9.9800,0.4200,0.4400,-6.5625,2.2500,-1.3750,0.6509,-0.2200,0.6809,0.2536,
2025-03-09 23:11:27.174,9.8600,0.2900,0.4400,-6.5000,1.8125,-1.4375,0.6507,-0.2202,0.6809,0.2541,
2025-03-09 23:11:27.175,9.7800,0.2700,0.4600,-6.5625,1.5625,-1.8750,0.6505,-0.2205,0.6808,0.2546,
2025-03-09 23:11:27.178,9.7300,0.2000,0.5100,-7.1250,1.6250,-2.2500,0.6503,-0.2207,0.6807,0.2551,
2025-03-09 23:11:27.189,9.7000,0.1800,0.5600,-7.6250,1.9375,-2.7500,0.6501,-0.2209,0.6806,0.2556,
2025-03-09 23:11:27.197,9.7000,0.0800,0.6000,-7.6875,2.0000,-3.3750,0.6499,-0.2212,0.6805,0.2562,
2025-03-09 23:11:27.208,9.7500,0.0300,0.6100,-6.6250,1.6875,-3.7500,0.6496,-0.2214,0.6804,0.2568,
2025-03-09 23:11:27.217,9.7800,-0.0100,0.5100,-5.0000,0.6250,-3.8750,0.6495,-0.2216,0.6803,0.2574,
2025-03-09 23:11:27.227,9.7400,-0.0800,0.4600,-3.0000,-0.5000,-3.8125,0.6494,-0.2218,0.6802,0.2579,
2025-03-09 23:11:27.239,9.6800,-0.0800,0.4900,-1.2500,-1.6875,-4.1250,0.6494,-0.2219,0.6801,0.2581,
2025-03-09 23:11:27.250,9.6500,-0.0500,0.5200,-0.8750,-2.3750,-4.2500,0.6495,-0.2220,0.6799,0.2582,
2025-03-09 23:11:27.258,9.6400,-0.0100,0.6000,-0.8750,-2.8125,-4.4375,0.6496,-0.2221,0.6797,0.2582,
2025-03-09 23:11:27.268,9.6700,0.0700,0.7000,-0.5000,-2.4375,-4.3125,0.6498,-0.2220,0.6795,0.2584,
2025-03-09 23:11:27.280,9.7000,0.0700,0.7100,0.6250,-2.3750,-4.3125,0.6499,-0.2220,0.6794,0.2584,
2025-03-09 23:11:27.289,9.7800,0.1100,0.7000,2.0000,-2.5625,-4.1250,0.6501,-0.2219,0.6792,0.2585,
2025-03-09 23:11:27.296,9.9600,-0.0200,0.5100,3.3125,-3.2500,-4.1875,0.6503,-0.2217,0.6791,0.2585,
2025-03-09 23:11:27.312,9.9300,-0.0900,0.4600,4.3125,-3.8750,-4.2500,0.6505,-0.2214,0.6790,0.2584,
2025-03-09 23:11:27.319,9.9000,-0.1100,0.4500,5.0625,-4.0000,-4.5000,0.6509,-0.2212,0.6788,0.2582,
2025-03-09 23:11:27.329,9.8900,-0.1300,0.5300,5.4375,-4.0000,-4.9375,0.6512,-0.2210,0.6786,0.2579,
2025-03-09 23:11:27.352,9.8900,-0.0800,0.6100,6.3750,-3.9375,-5.0625,0.6516,-0.2208,0.6785,0.2575,
2025-03-09 23:11:27.352,9.9100,-0.0400,0.6400,7.8750,-4.3750,-5.0000,0.6520,-0.2205,0.6784,0.2571,
2025-03-09 23:11:27.359,9.8900,-0.0300,0.6300,9.5625,-5.0000,-5.2500,0.6523,-0.2200,0.6783,0.2567,
2025-03-09 23:11:27.359,9.9700,-0.0300,0.5700,11.6250,-6.1250,-5.6875,0.6528,-0.2195,0.6782,0.2562,
2025-03-09 23:11:27.379,9.9600,0.0000,0.5400,13.8125,-6.8125,-6.6250,0.6534,-0.2189,0.6781,0.2556,
2025-03-09 23:11:27.389,9.9700,0.0300,0.5100,16.1250,-7.4375,-7.7500,0.6541,-0.2180,0.6780,0.2549,
2025-03-09 23:11:27.401,9.9300,0.1000,0.5400,18.0625,-7.5625,-9.0625,0.6549,-0.2170,0.6778,0.2541,
2025-03-09 23:11:27.415,9.8700,0.2100,0.5500,19.4375,-7.5625,-10.7500,0.6558,-0.2158,0.6776,0.2534,
2025-03-09 23:11:27.419,9.8700,0.2600,0.5400,20.1875,-7.7500,-12.6875,0.6568,-0.2143,0.6774,0.2527,
2025-03-09 23:11:27.428,9.8700,0.2800,0.5000,21.1250,-8.0000,-14.6250,0.6578,-0.2127,0.6771,0.2521,
2025-03-09 23:11:27.472,9.8700,0.3100,0.5100,22.3125,-8.5000,-16.6875,0.6590,-0.2109,0.6767,0.2516,
2025-03-09 23:11:27.472,9.9000,0.3700,0.4300,23.1875,-9.4375,-18.8750,0.6602,-0.2089,0.6764,0.2511,
2025-03-09 23:11:27.472,9.9200,0.3500,0.3700,23.9375,-10.3750,-21.4375,0.6615,-0.2068,0.6759,0.2507,
2025-03-09 23:11:27.472,9.8900,0.3200,0.3000,24.3750,-11.1250,-23.8125,0.6630,-0.2045,0.6753,0.2504,
2025-03-09 23:11:27.478,9.7700,0.3000,0.2600,24.1875,-11.5625,-26.2500,0.6645,-0.2021,0.6746,0.2501,
2025-03-09 23:11:27.481,9.7200,0.2300,0.2700,24.2500,-12.0625,-28.8750,0.6661,-0.1996,0.6738,0.2499,
2025-03-09 23:11:27.491,9.7100,0.2100,0.2000,24.5625,-13.1250,-31.7500,0.6677,-0.1970,0.6730,0.2498,
2025-03-09 23:11:27.501,9.7100,0.2000,0.1700,25.2500,-14.9375,-34.5625,0.6694,-0.1943,0.6721,0.2498,
2025-03-09 23:11:27.518,9.7000,0.2600,0.0100,26.5625,-17.2500,-37.5625,0.6713,-0.1915,0.6710,0.2498,
2025-03-09 23:11:27.532,9.6800,0.3200,0.0000,28.0625,-20.0625,-40.3125,0.6734,-0.1886,0.6697,0.2498,
2025-03-09 23:11:27.547,9.6600,0.4100,-0.0100,29.1250,-22.6250,-43.6875,0.6757,-0.1855,0.6683,0.2498,
2025-03-09 23:11:27.548,9.5600,0.5800,-0.0400,29.8125,-24.7500,-46.9375,0.6783,-0.1822,0.6666,0.2499,
2025-03-09 23:11:27.559,9.5000,0.6900,-0.0800,30.5000,-26.0000,-50.3125,0.6810,-0.1785,0.6647,0.2501,
2025-03-09 23:11:27.580,9.5200,0.7500,-0.0900,31.5625,-26.4375,-53.6250,0.6838,-0.1744,0.6626,0.2508,
2025-03-09 23:11:27.585,9.5100,0.8400,-0.1000,33.2500,-25.8125,-56.3125,0.6868,-0.1701,0.6604,0.2516,
2025-03-09 23:11:27.585,9.6300,1.1000,-0.2900,35.9375,-24.9375,-58.7500,0.6898,-0.1655,0.6581,0.2524,
2025-03-09 23:11:27.591,9.6500,1.2200,-0.3600,39.3125,-24.8125,-61.1250,0.6927,-0.1606,0.6559,0.2532,
2025-03-09 23:11:27.609,9.5900,1.3800,-0.4400,42.6875,-25.8750,-63.8125,0.6957,-0.1554,0.6537,0.2540,
2025-03-09 23:11:27.621,9.3200,1.8600,-0.5700,43.7500,-27.0000,-67.1875,0.6989,-0.1498,0.6514,0.2546,
2025-03-09 23:11:27.630,9.1700,2.0900,-0.6100,42.0625,-28.5625,-71.5625,0.7022,-0.1440,0.6488,0.2554,
2025-03-09 23:11:27.640,9.0600,2.2300,-0.6800,38.5625,-31.1875,-76.3125,0.7055,-0.1381,0.6461,0.2565,
2025-03-09 23:11:27.648,9.0700,2.3200,-0.7100,34.6875,-33.5000,-80.1875,0.7089,-0.1321,0.6430,0.2579,
2025-03-09 23:11:27.659,9.2100,2.3500,-0.9100,31.1250,-33.8125,-83.1250,0.7124,-0.1262,0.6396,0.2598,
2025-03-09 23:11:27.670,9.2200,2.3000,-1.0300,28.8125,-32.0625,-85.5625,0.7158,-0.1202,0.6360,0.2621,
2025-03-09 23:11:27.676,9.1400,2.3000,-1.0800,27.1875,-29.2500,-87.5625,0.7189,-0.1142,0.6325,0.2646,
2025-03-09 23:11:27.691,9.0000,2.3100,-1.1300,25.0000,-27.4375,-89.6250,0.7219,-0.1080,0.6290,0.2673,
2025-03-09 23:11:27.691,8.4000,2.4400,-1.1000,22.9375,-28.2500,-92.3125,0.7248,-0.1019,0.6255,0.2703,
2025-03-09 23:11:27.722,8.1500,2.5800,-1.1400,21.5625,-31.2500,-94.8125,0.7276,-0.0956,0.6218,0.2736,
2025-03-09 23:11:27.725,8.2200,3.0300,-1.6800,21.7500,-36.6875,-99.8125,0.7334,-0.0831,0.6136,0.2804,
2025-03-09 23:11:27.774,8.3000,3.1200,-1.7700,19.4375,-34.6875,-103.0625,0.7396,-0.0701,0.6045,0.2877,
2025-03-09 23:11:27.774,8.3000,3.2700,-1.8200,15.8750,-33.0000,-103.5000,0.7424,-0.0635,0.5999,0.2914,
2025-03-09 23:11:27.774,8.2900,3.6000,-1.6400,11.6875,-32.1875,-103.8125,0.7450,-0.0570,0.5954,0.2955,
2025-03-09 23:11:27.781,8.3600,3.8200,-1.5400,7.7500,-32.8750,-104.3750,0.7473,-0.0507,0.5908,0.2999,
2025-03-09 23:11:27.791,8.5500,4.0200,-1.4700,4.6250,-33.2500,-105.1250,0.7496,-0.0446,0.5861,0.3044,
2025-03-09 23:11:27.823,8.9500,4.3100,-1.4100,5.5625,-30.1875,-106.5000,0.7537,-0.0323,0.5764,0.3139,
2025-03-09 23:11:27.823,8.6700,4.5400,-1.4800,8.8125,-27.6875,-106.8125,0.7574,-0.0197,0.5670,0.3232,
2025-03-09 23:11:27.844,7.9600,5.1900,-1.7400,7.5000,-29.8750,-106.5000,0.7608,-0.0067,0.5575,0.3322,
2025-03-09 23:11:27.855,7.2900,5.5600,-1.8000,4.1875,-30.1250,-106.8750,0.7624,-0.0003,0.5525,0.3367,
2025-03-09 23:11:27.880,6.7600,5.5500,-1.7300,-3.6875,-26.3750,-111.0000,0.7652,0.0121,0.5425,0.3464,
2025-03-09 23:11:27.891,6.7800,5.5500,-1.8300,-8.4375,-25.0000,-114.2500,0.7668,0.0246,0.5325,0.3575,
2025-03-09 23:11:27.903,7.3900,6.0700,-2.1600,-14.8750,-25.1250,-119.6250,0.7672,0.0309,0.5274,0.3637,
2025-03-09 23:11:27.923,7.4100,6.2500,-2.0300,-14.6875,-25.3125,-118.6875,0.7678,0.0435,0.5167,0.3763,
2025-03-09 23:11:27.943,8.4600,6.5700,-2.8500,11.6250,-17.0000,-102.8125,0.7683,0.0557,0.5062,0.3878,
2025-03-09 23:11:27.956,6.4500,6.5600,-1.9100,3.5000,-13.1250,-120.7500,0.7689,0.0624,0.5017,0.3914,
2025-03-09 23:11:27.980,5.4800,7.5000,-1.9900,-16.9375,-26.0625,-113.5625,0.7689,0.0760,0.4914,0.4018,
2025-03-09 23:11:27.989,5.7500,7.6800,-1.9400,-25.8750,-29.3125,-118.7500,0.7681,0.0873,0.4803,0.4143,
2025-03-09 23:11:28.009,6.6200,7.9200,-2.0600,-23.1875,-27.1875,-118.8125,0.7675,0.0930,0.4744,0.4210,
2025-03-09 23:11:28.065,6.5300,7.9400,-2.1100,-18.5625,-19.2500,-110.0625,0.7660,0.1046,0.4631,0.4335,
2025-03-09 23:11:28.065,6.1900,8.1800,-2.0400,-19.0625,-17.0625,-105.4375,0.7640,0.1157,0.4531,0.4446,
