A1,,,,,,,,,,,
time,accx,accy,accz,gyrox,gyroy,gyroz,w1,w2,w3,w4,
2025-03-10 16:26:52.448,9.7800,-0.4200,0.4500,-1.2500,0.5625,0.1250,-0.6311,0.2774,-0.6702,-0.2748,
2025-03-10 16:26:52.458,9.8000,-0.4200,0.4000,-0.1875,0.0625,0.0625,-0.6311,0.2775,-0.6702,-0.2748,
2025-03-10 16:26:52.468,9.8000,-0.3300,0.4300,0.0625,0.0625,0.2500,-0.6311,0.2775,-0.6702,-0.2748,
2025-03-10 16:26:52.478,9.8100,-0.3200,0.4400,-0.3125,0.0000,0.1875,-0.6311,0.2776,-0.6702,-0.2748,
2025-03-10 16:26:52.487,9.8000,-0.3100,0.4400,-0.6875,-0.2500,-0.0625,-0.6311,0.2776,-0.6702,-0.2748,
2025-03-10 16:26:52.498,9.7900,-0.3000,0.4300,-0.7500,-0.5000,-0.0625,-0.6311,0.2777,-0.6702,-0.2748,
2025-03-10 16:26:52.508,9.8100,-0.3100,0.4100,-0.6250,-0.3125,-0.1875,-0.6310,0.2777,-0.6702,-0.2748,
2025-03-10 16:26:52.523,9.8200,-0.3600,0.4600,-0.9375,-0.1875,-0.3750,-0.6310,0.2778,-0.6701,-0.2749,
2025-03-10 16:26:52.533,9.8100,-0.4100,0.4100,-1.3750,0.3125,-0.5000,-0.6310,0.2778,-0.6701,-0.2749,
2025-03-10 16:26:52.540,9.8100,-0.4100,0.4100,-1.3125,0.7500,-0.6250,-0.6310,0.2779,-0.6701,-0.2750,
2025-03-10 16:26:52.548,9.8400,-0.3700,0.3300,-1.2500,0.6250,-0.3750,-0.6309,0.2780,-0.6701,-0.2750,
2025-03-10 16:26:52.561,9.8400,-0.3600,0.3300,-1.3750,0.9375,-0.5000,-0.6309,0.2780,-0.6701,-0.2751,
2025-03-10 16:26:52.574,9.8400,-0.3600,0.3700,-1.3750,1.5000,-0.5625,-0.6308,0.2781,-0.6701,-0.2752,
2025-03-10 16:26:52.578,9.8300,-0.2800,0.4500,-1.5625,1.7500,-0.5625,-0.6307,0.2782,-0.6701,-0.2753,
2025-03-10 16:26:52.589,9.8300,-0.2800,0.4500,-1.6875,1.1250,-0.5625,-0.6306,0.2783,-0.6702,-0.2754,
2025-03-10 16:26:52.598,9.8400,-0.2600,0.5600,-1.6875,1.1250,-0.5625,-0.6305,0.2783,-0.6702,-0.2755,
2025-03-10 16:26:52.617,9.8100,-0.2600,0.4400,-1.6250,1.0625,-0.5625,-0.6304,0.2784,-0.6702,-0.2756,
2025-03-10 16:26:52.618,9.7900,-0.3500,0.3800,-2.1875,1.5000,-0.7500,-0.6303,0.2785,-0.6702,-0.2757,
2025-03-10 16:26:52.629,9.8100,-0.3500,0.3600,-3.1250,0.1875,-0.5625,-0.6301,0.2785,-0.6702,-0.2759,
2025-03-10 16:26:52.667,9.8100,-0.3500,0.3600,-1.7500,-0.2500,-0.3750,-0.6301,0.2787,-0.6702,-0.2761,
2025-03-10 16:26:52.676,9.8300,-0.4700,0.5000,-0.3750,0.6250,-0.2500,-0.6301,0.2788,-0.6701,-0.2761,
2025-03-10 16:26:52.676,9.8100,-0.4500,0.5300,-0.3750,0.9375,-0.1250,-0.6300,0.2788,-0.6702,-0.2761,
2025-03-10 16:26:52.676,9.8000,-0.4000,0.4600,-0.3750,0.9375,-0.1250,-0.6300,0.2788,-0.6702,-0.2761,
2025-03-10 16:26:52.679,9.8400,-0.3800,0.4200,-4.3750,-1.1875,-0.4375,-0.6299,0.2789,-0.6703,-0.2761,
2025-03-10 16:26:52.696,9.8300,-0.4600,0.4600,-8.3750,1.0625,-1.7500,-0.6297,0.2796,-0.6699,-0.2767,
2025-03-10 16:26:52.706,9.7500,-0.5100,0.4200,-8.0625,1.4375,-1.5625,-0.6295,0.2800,-0.6697,-0.2772,
2025-03-10 16:26:52.718,9.8000,-0.4100,0.4100,-6.6250,0.8125,-0.8750,-0.6293,0.2804,-0.6695,-0.2777,
2025-03-10 16:26:52.736,9.8400,-0.3400,0.4500,-4.0000,0.3125,-0.4375,-0.6291,0.2808,-0.6694,-0.2781,
2025-03-10 16:26:52.748,9.8600,-0.3100,0.5200,-1.5000,0.0625,-0.4375,-0.6287,0.2815,-0.6691,-0.2788,
2025-03-10 16:26:52.769,9.8200,-0.3400,0.4900,-4.0625,1.0625,-0.8750,-0.6286,0.2817,-0.6690,-0.2791,
2025-03-10 16:26:52.779,9.7800,-0.3800,0.4900,-3.4375,0.5625,-1.0000,-0.6284,0.2820,-0.6688,-0.2796,
2025-03-10 16:26:52.789,9.7600,-0.3900,0.4700,-1.8750,-0.2500,-0.8125,-0.6284,0.2822,-0.6688,-0.2798,
2025-03-10 16:26:52.811,9.7900,-0.3600,0.4600,-0.1250,-0.1250,-0.5625,-0.6283,0.2823,-0.6687,-0.2799,
2025-03-10 16:26:52.841,9.8300,-0.3900,0.4300,-0.1875,-0.3125,-0.6875,-0.6283,0.2823,-0.6687,-0.2799,
2025-03-10 16:26:52.858,9.7900,-0.3200,0.4000,-0.3750,-1.0625,-0.5000,-0.6284,0.2823,-0.6686,-0.2798,
2025-03-10 16:26:52.873,9.8200,-0.3200,0.4200,0.9375,-0.8750,-0.3750,-0.6285,0.2824,-0.6685,-0.2798,
2025-03-10 16:26:52.892,9.8200,-0.2800,0.4600,1.6875,-1.3125,-0.6875,-0.6287,0.2823,-0.6685,-0.2796,
2025-03-10 16:26:52.892,9.8400,-0.3100,0.4500,0.8125,-1.5000,-0.6250,-0.6288,0.2822,-0.6684,-0.2795,
2025-03-10 16:26:52.919,9.8100,-0.3900,0.4100,-1.7500,-0.8125,-0.7500,-0.6291,0.2822,-0.6683,-0.2795,
2025-03-10 16:26:52.969,9.8100,-0.4300,0.4400,-2.5625,-0.6250,-0.3750,-0.6291,0.2824,-0.6680,-0.2797,
2025-03-10 16:26:52.969,9.8300,-0.4000,0.4500,-0.9375,-1.3125,-0.1875,-0.6288,0.2831,-0.6677,-0.2803,
2025-03-10 16:26:52.969,9.8300,-0.3200,0.4900,2.0625,-0.8125,0.1250,-0.6290,0.2831,-0.6676,-0.2802,
2025-03-10 16:26:52.989,9.7900,-0.3100,0.4900,2.0000,-0.5625,-0.1250,-0.6291,0.2829,-0.6676,-0.2800,
2025-03-10 16:26:52.994,9.8100,-0.3300,0.4600,-0.6875,-0.7500,-0.3125,-0.6291,0.2829,-0.6676,-0.2800,
2025-03-10 16:26:53.014,9.8200,-0.3600,0.4100,0.0625,-1.3750,-0.2500,-0.6292,0.2831,-0.6675,-0.2800,
2025-03-10 16:26:53.035,9.7700,-0.3400,0.3900,0.9375,-1.2500,-0.0625,-0.6294,0.2831,-0.6674,-0.2799,
2025-03-10 16:26:53.045,9.8400,-0.2800,0.4100,1.6875,-1.1250,-0.1875,-0.6295,0.2830,-0.6673,-0.2798,
2025-03-10 16:26:53.076,9.8500,-0.4200,0.4100,0.1250,-1.0625,-0.4375,-0.6296,0.2830,-0.6673,-0.2797,
2025-03-10 16:26:53.087,9.8500,-0.3800,0.4300,0.8750,-1.7500,-0.1250,-0.6298,0.2830,-0.6672,-0.2795,
2025-03-10 16:26:53.097,9.8700,-0.3300,0.4400,3.1875,-1.4375,0.1875,-0.6300,0.2829,-0.6671,-0.2794,
2025-03-10 16:26:53.158,9.8200,-0.2600,0.3900,2.7500,-1.1250,0.0000,-0.6303,0.2826,-0.6671,-0.2789,
2025-03-10 16:26:53.168,9.8000,-0.3300,0.3000,0.8750,-0.7500,-0.2500,-0.6305,0.2824,-0.6671,-0.2787,
2025-03-10 16:26:53.168,9.7600,-0.3900,0.3300,1.4375,-1.6875,0.0625,-0.6306,0.2824,-0.6671,-0.2787,
2025-03-10 16:26:53.169,9.7800,-0.4300,0.3400,4.4375,-1.5000,0.6250,-0.6308,0.2823,-0.6670,-0.2784,
2025-03-10 16:26:53.180,9.8000,-0.3600,0.3600,5.0000,-1.5625,0.8750,-0.6312,0.2819,-0.6671,-0.2777,
2025-03-10 16:26:53.201,9.8300,-0.3300,0.3600,3.6875,-1.5625,0.6875,-0.6314,0.2817,-0.6671,-0.2774,
2025-03-10 16:26:53.220,9.8400,-0.4200,0.3500,3.6875,-1.3750,0.5000,-0.6317,0.2814,-0.6672,-0.2769,
2025-03-10 16:26:53.263,9.8000,-0.5200,0.3600,4.5625,-1.9375,0.6250,-0.6321,0.2811,-0.6672,-0.2762,
2025-03-10 16:26:53.263,9.8000,-0.4900,0.3200,6.8750,-2.7500,0.8125,-0.6323,0.2809,-0.6672,-0.2758,
2025-03-10 16:26:53.270,9.8000,-0.4000,0.3200,7.6250,-2.5000,1.3125,-0.6329,0.2805,-0.6674,-0.2747,
2025-03-10 16:26:53.282,9.8100,-0.4400,0.3100,7.5625,-2.4375,1.6250,-0.6335,0.2800,-0.6675,-0.2735,
2025-03-10 16:26:53.311,9.8900,-0.6400,0.2900,10.0000,-0.0625,2.4375,-0.6337,0.2797,-0.6677,-0.2728,
2025-03-10 16:26:53.317,10.0400,-0.4800,0.4200,13.2500,2.6250,3.5000,-0.6339,0.2789,-0.6685,-0.2711,
2025-03-10 16:26:53.332,10.0300,-0.4200,0.4700,18.6250,7.8750,3.3125,-0.6337,0.2770,-0.6702,-0.2691,
2025-03-10 16:26:53.352,9.9300,-0.5500,0.5100,17.1250,8.8125,2.6250,-0.6335,0.2761,-0.6712,-0.2682,
2025-03-10 16:26:53.362,9.8900,-0.7500,0.6800,9.8750,7.5625,5.4375,-0.6328,0.2748,-0.6730,-0.2668,
2025-03-10 16:26:53.384,10.0500,-1.0200,0.5800,12.0625,7.3750,7.3125,-0.6321,0.2739,-0.6745,-0.2653,
2025-03-10 16:26:53.410,10.0700,-1.1800,0.5100,19.8750,9.2500,10.6875,-0.6318,0.2733,-0.6756,-0.2640,
2025-03-10 16:26:53.455,9.9400,-1.5600,0.4300,23.0625,10.3125,12.3750,-0.6311,0.2717,-0.6781,-0.2609,
2025-03-10 16:26:53.455,9.7700,-1.5700,0.4800,29.6250,10.8125,16.2500,-0.6304,0.2696,-0.6812,-0.2567,
2025-03-10 16:26:53.455,9.7700,-1.4500,0.5200,34.0000,10.3750,20.1875,-0.6301,0.2684,-0.6829,-0.2541,
2025-03-10 16:26:53.476,9.7200,-1.1900,0.5700,35.4375,9.4375,22.8750,-0.6294,0.2663,-0.6865,-0.2484,
2025-03-10 16:26:53.476,9.7100,-0.9500,0.5700,31.4375,8.3125,29.7500,-0.6285,0.2651,-0.6900,-0.2420,
2025-03-10 16:26:53.497,9.7400,-1.2700,0.5700,27.2500,10.1250,34.2500,-0.6278,0.2651,-0.6918,-0.2388,
2025-03-10 16:26:53.518,9.9100,-2.3400,0.2100,27.6250,13.8125,43.3750,-0.6254,0.2658,-0.6961,-0.2317,
2025-03-10 16:26:53.557,9.9000,-2.3600,0.4700,24.0000,9.5625,50.8125,-0.6229,0.2675,-0.7003,-0.2237,
2025-03-10 16:26:53.568,9.8800,-2.0600,0.9300,21.0000,8.1875,54.0000,-0.6216,0.2687,-0.7023,-0.2193,
2025-03-10 16:26:53.568,9.9500,-2.1300,1.0300,20.1875,10.2500,59.6875,-0.6186,0.2721,-0.7064,-0.2107,
2025-03-10 16:26:53.578,10.3400,-2.7300,0.8200,25.8750,14.3750,66.4375,-0.6148,0.2755,-0.7111,-0.2011,
2025-03-10 16:26:53.610,10.4000,-2.9000,0.7900,30.1875,15.6875,70.5625,-0.6127,0.2770,-0.7138,-0.1956,
2025-03-10 16:26:53.619,10.3200,-2.9400,1.0300,34.3750,17.1250,78.1250,-0.6082,0.2803,-0.7195,-0.1837,
2025-03-10 16:26:53.640,10.1100,-2.7300,1.1800,34.8125,20.0000,85.8125,-0.6029,0.2840,-0.7257,-0.1708,
2025-03-10 16:26:53.650,10.1700,-3.0200,1.0200,35.3125,22.0625,90.5000,-0.5999,0.2861,-0.7290,-0.1639,
2025-03-10 16:26:53.670,10.4500,-4.1800,0.6400,35.1250,22.4375,102.1875,-0.5932,0.2911,-0.7356,-0.1492,
2025-03-10 16:26:53.680,10.2400,-3.6900,1.4700,24.0000,18.5000,113.5000,-0.5859,0.2982,-0.7416,-0.1335,
2025-03-10 16:26:53.700,10.1500,-3.3500,1.6000,18.2500,18.4375,115.6875,-0.5817,0.3031,-0.7441,-0.1265,
2025-03-10 16:26:53.737,9.9800,-2.9500,1.5200,15.3125,24.8750,116.3750,-0.5731,0.3119,-0.7496,-0.1114,
2025-03-10 16:26:53.737,10.1600,-3.7700,1.3600,15.1875,27.1250,117.6875,-0.5684,0.3164,-0.7523,-0.1039,
2025-03-10 16:26:53.741,10.8100,-5.2000,1.4500,20.3125,28.3125,123.5000,-0.5585,0.3251,-0.7580,-0.0881,
2025-03-10 16:26:53.763,9.9900,-4.6400,2.2000,15.4375,32.1875,127.6250,-0.5477,0.3344,-0.7636,-0.0719,
2025-03-10 16:26:53.786,9.3500,-4.3000,2.2600,19.3125,36.3125,123.0625,-0.5361,0.3432,-0.7692,-0.0562,
2025-03-10 16:26:53.795,9.1700,-4.8800,1.8900,26.1875,39.8750,120.9375,-0.5299,0.3471,-0.7722,-0.0488,
2025-03-10 16:26:53.814,9.3100,-6.1000,2.0100,26.6250,41.1250,127.9375,-0.5173,0.3542,-0.7784,-0.0324,
2025-03-10 16:26:53.854,9.1800,-6.2500,2.5800,20.8750,40.6875,134.0625,-0.5106,0.3586,-0.7811,-0.0239,
2025-03-10 16:26:53.864,8.6500,-5.5200,2.8600,18.5625,42.9375,133.6875,-0.4968,0.3677,-0.7861,-0.0072,
2025-03-10 16:26:53.864,8.3000,-5.1700,2.6800,24.9375,44.3125,129.8125,-0.4898,0.3715,-0.7887,0.0011,
2025-03-10 16:26:53.864,8.1300,-5.3700,2.1800,26.7500,45.1250,124.3750,-0.4828,0.3748,-0.7914,0.0091,
2025-03-10 16:26:53.884,8.2800,-6.1000,2.4700,14.8750,44.6250,123.3125,-0.4690,0.3823,-0.7958,0.0242,
2025-03-10 16:26:53.904,8.3500,-6.2900,2.9100,7.0000,46.2500,127.9375,-0.4617,0.3869,-0.7976,0.0316,
2025-03-10 16:26:53.904,8.1800,-6.2700,3.5400,6.5625,48.0625,129.6875,-0.4542,0.3916,-0.7993,0.0390,
2025-03-10 16:26:53.914,7.5200,-5.6400,3.2800,17.0625,51.6250,124.7500,-0.4465,0.3954,-0.8014,0.0464,
2025-03-10 16:26:53.934,7.1900,-5.4100,3.0900,24.0000,55.5000,115.0000,-0.4388,0.3983,-0.8037,0.0532,
2025-03-10 16:26:53.944,6.7000,-6.6400,2.8100,25.2500,53.5000,103.6875,-0.4239,0.4031,-0.8084,0.0657,
2025-03-10 16:26:53.964,6.8300,-7.0100,3.0600,22.7500,49.7500,106.8750,-0.4168,0.4056,-0.8103,0.0721,
2025-03-10 16:26:53.964,6.8700,-7.0600,3.3700,19.6875,47.8750,112.7500,-0.4095,0.4085,-0.8119,0.0789,
2025-03-10 16:26:53.984,6.2400,-5.8000,3.3700,21.9375,49.0000,109.6250,-0.3947,0.4139,-0.8151,0.0924,
2025-03-10 16:26:53.994,5.9400,-5.7500,3.0800,24.8125,48.5000,102.0000,-0.3876,0.4159,-0.8167,0.0986,
2025-03-10 16:26:54.004,4.9300,-6.1200,2.7700,24.5625,45.4375,96.0625,-0.3808,0.4177,-0.8183,0.1044,
2025-03-10 16:26:54.014,4.5300,-6.6400,2.8400,19.0000,41.4375,91.5625,-0.3746,0.4197,-0.8194,0.1099,
2025-03-10 16:26:54.024,4.3700,-7.1900,3.0900,13.3750,38.3750,92.2500,-0.3685,0.4221,-0.8202,0.1153,
2025-03-10 16:26:54.034,4.5000,-7.4700,3.4600,10.8750,36.1875,95.2500,-0.3624,0.4246,-0.8208,0.1210,
2025-03-10 16:26:54.044,4.8000,-7.1800,3.7200,11.9375,35.1875,97.8125,-0.3564,0.4271,-0.8213,0.1268,
2025-03-10 16:26:54.054,4.9900,-7.0100,3.6800,13.1250,35.6875,98.6875,-0.3502,0.4295,-0.8217,0.1328,
2025-03-10 16:26:54.064,4.7500,-6.9700,3.5900,14.6875,35.0625,95.8125,-0.3441,0.4317,-0.8222,0.1386,
2025-03-10 16:26:54.074,4.1700,-7.3700,3.7300,12.0625,33.1875,89.6875,-0.3384,0.4338,-0.8225,0.1440,
2025-03-10 16:26:54.084,3.9700,-7.6400,3.8700,9.8125,31.0000,86.1875,-0.3329,0.4360,-0.8227,0.1491,
2025-03-10 16:26:54.094,3.7900,-7.9200,3.8700,12.6250,29.2500,85.0625,-0.3276,0.4379,-0.8229,0.1543,
2025-03-10 16:26:54.114,3.7000,-7.8400,3.8200,17.2500,27.6250,85.6250,-0.3223,0.4394,-0.8232,0.1597,
2025-03-10 16:26:54.114,3.5700,-7.3100,3.7600,22.1250,25.8750,83.9375,-0.3170,0.4405,-0.8235,0.1652,
2025-03-10 16:26:54.154,3.2200,-6.9800,3.6600,25.5000,23.8750,80.8125,-0.3120,0.4412,-0.8240,0.1705,
2025-03-10 16:26:54.154,3.1900,-6.8100,3.7000,24.5000,21.8125,79.0000,-0.3072,0.4418,-0.8243,0.1759,
2025-03-10 16:26:54.154,2.9800,-7.3100,4.0100,19.5625,19.7500,75.7500,-0.3027,0.4427,-0.8244,0.1809,
2025-03-10 16:26:54.154,2.9000,-7.5500,4.1800,14.6250,18.4375,73.8750,-0.2984,0.4439,-0.8243,0.1857,
2025-03-10 16:26:54.164,2.8400,-7.6500,4.3800,16.2500,17.6250,71.0625,-0.2942,0.4448,-0.8242,0.1904,
2025-03-10 16:26:54.174,2.7500,-7.8400,4.3800,23.8750,18.6250,67.5625,-0.2900,0.4451,-0.8245,0.1951,
2025-03-10 16:26:54.184,2.8900,-7.6200,3.9300,31.1875,19.1250,67.0625,-0.2856,0.4449,-0.8250,0.1998,
2025-03-10 16:26:54.194,2.8900,-7.4900,3.8800,33.6250,18.6875,65.3750,-0.2813,0.4445,-0.8256,0.2044,
2025-03-10 16:26:54.204,2.8100,-7.3400,3.9800,29.5000,17.0000,65.3750,-0.2771,0.4442,-0.8259,0.2090,
2025-03-10 16:26:54.214,2.5900,-7.3800,4.1500,24.6250,15.6250,64.0625,-0.2734,0.4442,-0.8261,0.2134,
2025-03-10 16:26:54.224,2.3700,-7.6500,4.2700,22.6875,14.8125,61.7500,-0.2696,0.4443,-0.8262,0.2177,
2025-03-10 16:26:54.234,2.2400,-7.8500,4.3300,24.3125,14.6250,59.1875,-0.2659,0.4441,-0.8263,0.2218,
2025-03-10 16:26:54.244,2.2600,-7.7600,4.1800,27.1250,14.1250,56.0625,-0.2623,0.4438,-0.8266,0.2258,
2025-03-10 16:26:54.264,2.1700,-7.5500,3.9500,27.0000,13.0625,52.9375,-0.2589,0.4433,-0.8269,0.2296,
2025-03-10 16:26:54.264,2.1300,-7.4000,4.0900,23.3125,11.6875,49.8125,-0.2557,0.4430,-0.8270,0.2331,
2025-03-10 16:26:54.274,2.0600,-7.2200,4.3100,19.2500,10.7500,47.6875,-0.2528,0.4429,-0.8271,0.2365,
2025-03-10 16:26:54.284,2.0400,-7.0500,4.4300,17.6250,9.5625,45.2500,-0.2501,0.4428,-0.8270,0.2396,
2025-03-10 16:26:54.294,1.8700,-6.9500,4.6900,19.0625,9.1875,40.8750,-0.2476,0.4425,-0.8271,0.2426,
2025-03-10 16:26:54.304,1.7900,-7.0000,4.7500,18.7500,8.9375,35.9375,-0.2452,0.4421,-0.8272,0.2451,
2025-03-10 16:26:54.314,1.7000,-7.1800,4.7500,16.3125,8.8125,32.5625,-0.2430,0.4418,-0.8273,0.2474,
2025-03-10 16:26:54.324,1.6400,-7.4200,4.7400,14.6875,9.1875,31.5625,-0.2409,0.4417,-0.8274,0.2496,
2025-03-10 16:26:54.334,1.6200,-7.4000,4.7000,15.3750,8.8125,30.8125,-0.2409,0.4417,-0.8274,0.2496,
2025-03-10 16:26:54.344,1.6400,-7.3400,4.6700,17.3125,8.7500,28.0000,-0.2388,0.4414,-0.8275,0.2517,
2025-03-10 16:26:54.364,1.5700,-7.4300,4.6900,17.8750,8.3125,23.3125,-0.2368,0.4409,-0.8277,0.2537,
2025-03-10 16:26:54.364,1.4800,-7.3500,4.6500,17.7500,7.2500,19.0000,-0.2349,0.4403,-0.8281,0.2554,
2025-03-10 16:26:54.384,1.3800,-7.3100,4.6400,15.9375,6.4375,14.6875,-0.2333,0.4396,-0.8285,0.2568,
2025-03-10 16:26:54.384,1.2900,-7.3400,4.7600,12.0000,5.0000,12.6875,-0.2320,0.4390,-0.8289,0.2579,
2025-03-10 16:26:54.394,1.2800,-7.6800,4.9800,8.4375,3.1875,13.0000,-0.2309,0.4385,-0.8291,0.2588,
2025-03-10 16:26:54.404,1.2900,-7.8200,4.9300,7.6250,3.2500,13.8750,-0.2300,0.4382,-0.8292,0.2598,
2025-03-10 16:26:54.414,1.3400,-7.7700,4.8600,9.5000,3.8750,13.6250,-0.2291,0.4380,-0.8293,0.2608,
2025-03-10 16:26:54.464,1.4000,-7.6300,4.8300,10.8125,4.0000,11.1250,-0.2281,0.4377,-0.8294,0.2618,
2025-03-10 16:26:54.464,1.1900,-7.2400,4.8800,11.3750,5.3125,5.0625,-0.2272,0.4372,-0.8296,0.2626,
2025-03-10 16:26:54.464,1.1700,-7.0800,5.0900,8.4375,5.8125,-0.9375,-0.2263,0.4367,-0.8300,0.2630,
2025-03-10 16:26:54.464,1.3100,-7.2800,5.1700,2.3750,2.0625,-2.1250,-0.2259,0.4361,-0.8304,0.2631,
2025-03-10 16:26:54.464,1.4400,-8.3600,4.9400,-2.2500,-2.2500,1.9375,-0.2258,0.4359,-0.8306,0.2629,
2025-03-10 16:26:54.474,1.3500,-8.5300,4.9900,-2.4375,-2.2500,4.8750,-0.2259,0.4361,-0.8304,0.2631,
2025-03-10 16:26:54.484,1.3300,-8.5000,5.1400,-1.3125,-1.1875,4.6250,-0.2260,0.4363,-0.8302,0.2635,
2025-03-10 16:26:54.494,1.4000,-8.3700,5.2400,-1.2500,-0.1250,2.9375,-0.2259,0.4364,-0.8300,0.2638,
2025-03-10 16:26:54.504,1.2700,-7.9900,5.2200,0.0000,1.4375,0.7500,-0.2258,0.4366,-0.8299,0.2640,
2025-03-10 16:26:54.514,1.1400,-7.7000,5.2600,3.5000,3.5000,-3.5000,-0.2256,0.4366,-0.8299,0.2640,
2025-03-10 16:26:54.524,1.2100,-7.4000,5.3400,7.1250,3.8750,-7.3750,-0.2255,0.4364,-0.8302,0.2637,
2025-03-10 16:26:54.534,1.3900,-7.3900,5.3000,5.7500,0.3125,-6.5000,-0.2253,0.4359,-0.8307,0.2631,
2025-03-10 16:26:54.544,1.3400,-8.0100,5.0900,1.2500,-3.0000,-2.5000,-0.2254,0.4354,-0.8310,0.2628,
2025-03-10 16:26:54.564,1.2500,-8.4100,5.0300,-0.5625,-2.4375,-0.2500,-0.2256,0.4351,-0.8311,0.2627,
2025-03-10 16:26:54.564,1.3300,-8.6000,5.1500,-0.5000,-0.9375,-0.8125,-0.2258,0.4351,-0.8311,0.2628,
2025-03-10 16:26:54.574,1.3600,-8.2900,5.1800,-1.0000,0.0625,-2.0625,-0.2259,0.4351,-0.8310,0.2628,
2025-03-10 16:26:54.584,1.2600,-8.0300,5.2000,-1.3125,1.3125,-4.1250,-0.2260,0.4351,-0.8311,0.2626,
2025-03-10 16:26:54.594,1.1700,-7.8000,5.3000,2.5000,3.2500,-7.8750,-0.2261,0.4351,-0.8311,0.2623,
2025-03-10 16:26:54.604,1.2800,-7.5700,5.3400,5.6250,3.3750,-10.1250,-0.2261,0.4349,-0.8314,0.2617,
2025-03-10 16:26:54.614,1.5200,-7.9900,5.3000,5.6250,0.8125,-8.5000,-0.2261,0.4343,-0.8319,0.2610,
2025-03-10 16:26:54.654,1.5200,-8.3600,5.0100,5.0000,-1.5000,-4.2500,-0.2263,0.4338,-0.8323,0.2604,
2025-03-10 16:26:54.654,1.4100,-8.5600,4.9700,4.5625,-1.7500,-1.5000,-0.2264,0.4333,-0.8326,0.2603,
2025-03-10 16:26:54.654,1.2700,-8.4500,5.0600,3.7500,-1.2500,-0.3750,-0.2265,0.4329,-0.8328,0.2603,
2025-03-10 16:26:54.654,1.3200,-8.1700,5.1900,1.6250,-0.8125,-1.1250,-0.2265,0.4326,-0.8329,0.2604,
2025-03-10 16:26:54.664,1.3300,-7.9400,5.3200,0.9375,0.2500,-3.0625,-0.2266,0.4325,-0.8329,0.2604,
2025-03-10 16:26:54.694,1.3400,-7.8000,5.4200,2.1875,1.6250,-5.0000,-0.2267,0.4324,-0.8330,0.2602,
2025-03-10 16:26:54.694,1.4000,-7.7600,5.4000,4.3125,1.9375,-7.2500,-0.2267,0.4321,-0.8333,0.2598,
2025-03-10 16:26:54.694,1.4700,-7.9100,5.3100,4.9375,0.4375,-7.6250,-0.2267,0.4318,-0.8336,0.2593,
2025-03-10 16:26:54.704,1.5500,-8.1800,5.2100,4.1250,-1.8750,-6.1250,-0.2269,0.4312,-0.8340,0.2589,
2025-03-10 16:26:54.714,1.5500,-8.4400,5.0800,3.7500,-3.6875,-4.0000,-0.2272,0.4308,-0.8342,0.2587,
2025-03-10 16:26:54.764,1.5100,-8.3800,5.1200,2.9375,-3.5000,-3.1875,-0.2275,0.4304,-0.8344,0.2586,
2025-03-10 16:26:54.764,1.5200,-8.2500,5.1400,1.0000,-3.3125,-3.5625,-0.2278,0.4300,-0.8345,0.2585,
2025-03-10 16:26:54.764,1.5200,-8.0800,5.2200,-0.2500,-3.1250,-4.4375,-0.2281,0.4298,-0.8345,0.2584,
2025-03-10 16:26:54.764,1.4600,-7.9800,5.3500,-1.1875,-3.1250,-5.2500,-0.2285,0.4296,-0.8346,0.2582,
2025-03-10 16:26:54.784,1.4600,-8.0800,5.3400,-1.5625,-3.7500,-5.6875,-0.2290,0.4296,-0.8346,0.2579,
2025-03-10 16:26:54.784,1.4700,-8.1300,5.3000,-0.8750,-4.6250,-5.2500,-0.2294,0.4294,-0.8346,0.2576,
2025-03-10 16:26:54.784,1.5100,-8.0600,5.2700,0.1875,-4.8125,-5.1250,-0.2299,0.4293,-0.8346,0.2575,
2025-03-10 16:26:54.794,1.5000,-7.8100,5.1100,0.9375,-4.4375,-5.6875,-0.2304,0.4290,-0.8347,0.2573,
2025-03-10 16:26:54.804,1.5000,-7.7700,5.0500,1.2500,-3.9375,-6.3125,-0.2311,0.4286,-0.8346,0.2576,
2025-03-10 16:26:54.814,1.4900,-7.7800,5.0000,0.1250,-3.6875,-6.9375,-0.2316,0.4282,-0.8347,0.2573,
2025-03-10 16:26:54.824,1.5100,-7.9600,5.0500,-1.8125,-3.8750,-7.8750,-0.2321,0.4280,-0.8348,0.2570,
2025-03-10 16:26:54.834,1.5800,-8.0800,5.1000,-3.9375,-3.8750,-8.0000,-0.2327,0.4279,-0.8348,0.2565,
2025-03-10 16:26:54.844,1.6800,-8.1700,5.1800,-5.9375,-4.4375,-8.1875,-0.2333,0.4280,-0.8348,0.2560,
2025-03-10 16:26:54.854,1.8100,-8.1600,5.1900,-5.7500,-5.0000,-8.4375,-0.2337,0.4283,-0.8349,0.2548,
2025-03-10 16:26:54.864,1.8500,-8.0000,5.2100,-4.4375,-5.1875,-8.8750,-0.2345,0.4285,-0.8347,0.2543,
2025-03-10 16:26:54.874,1.7500,-7.8700,5.1700,-2.5625,-4.9375,-9.8750,-0.2353,0.4285,-0.8347,0.2537,
2025-03-10 16:26:54.894,1.7100,-7.7800,5.1500,-0.8125,-5.2500,-11.0000,-0.2360,0.4283,-0.8347,0.2532,
2025-03-10 16:26:54.894,1.6400,-7.6700,5.1500,0.0000,-5.5625,-11.7500,-0.2368,0.4281,-0.8348,0.2526,
2025-03-10 16:26:54.904,1.6500,-7.6900,5.1100,-0.5625,-5.6250,-12.6875,-0.2377,0.4277,-0.8349,0.2520,
2025-03-10 16:26:54.914,1.7400,-7.7200,5.0900,-1.6875,-5.6250,-13.5625,-0.2386,0.4273,-0.8351,0.2513,
2025-03-10 16:26:54.924,1.8100,-7.7300,5.1600,-2.1875,-5.6250,-14.4375,-0.2395,0.4271,-0.8352,0.2505,
2025-03-10 16:26:54.934,2.0500,-7.7200,4.9400,-1.3125,-6.0000,-15.1875,-0.2405,0.4268,-0.8353,0.2496,
2025-03-10 16:26:54.944,2.0700,-7.7400,4.9700,-0.5625,-7.2500,-15.5000,-0.2415,0.4264,-0.8355,0.2488,
2025-03-10 16:26:54.959,1.9800,-7.6900,4.9900,-1.5000,-7.8125,-16.5625,-0.2426,0.4259,-0.8356,0.2479,
2025-03-10 16:26:54.964,1.9000,-7.4000,5.0100,-2.2500,-7.7500,-17.9375,-0.2437,0.4255,-0.8358,0.2470,
2025-03-10 16:26:54.974,1.9600,-7.2200,4.9800,-2.5000,-7.3750,-19.8125,-0.2449,0.4252,-0.8359,0.2460,
2025-03-10 16:26:54.984,2.0200,-7.0300,4.8200,-2.4375,-6.1250,-22.4375,-0.2462,0.4248,-0.8361,0.2448,
2025-03-10 16:26:55.004,2.3700,-6.9600,4.6400,-2.3125,-5.5625,-29.3125,-0.2490,0.4238,-0.8366,0.2420,
2025-03-10 16:26:55.014,2.4400,-7.1100,4.6600,-5.1875,-7.9375,-31.8750,-0.2505,0.4232,-0.8370,0.2401,
2025-03-10 16:26:55.054,2.4200,-7.3800,4.7100,-9.4375,-9.5000,-33.3125,-0.2523,0.4227,-0.8373,0.2380,
2025-03-10 16:26:55.064,2.2800,-7.6500,4.9100,-14.0000,-10.5000,-35.3125,-0.2544,0.4225,-0.8374,0.2358,
2025-03-10 16:26:55.064,2.2800,-7.6500,4.9100,-15.6875,-10.4375,-37.1250,-0.2567,0.4225,-0.8374,0.2333,
2025-03-10 16:26:55.064,2.3100,-7.3300,4.8500,-13.5000,-10.0000,-39.3750,-0.2590,0.4226,-0.8373,0.2308,
2025-03-10 16:26:55.064,2.4500,-7.1100,4.7100,-10.1875,-10.1250,-41.6250,-0.2614,0.4225,-0.8374,0.2280,
2025-03-10 16:26:55.074,2.7600,-6.7600,4.6200,-8.6875,-11.0000,-45.2500,-0.2638,0.4221,-0.8376,0.2252,
2025-03-10 16:26:55.084,2.9200,-6.9000,4.4900,-9.8750,-13.2500,-48.3750,-0.2663,0.4215,-0.8379,0.2222,
2025-03-10 16:26:55.104,2.8800,-7.4900,4.3400,-16.8125,-17.4375,-50.7500,-0.2723,0.4205,-0.8382,0.2155,
2025-03-10 16:26:55.134,2.6600,-7.0900,4.4000,-17.3750,-17.8125,-53.3125,-0.2790,0.4200,-0.8380,0.2087,
2025-03-10 16:26:55.134,2.7400,-6.6500,4.3500,-13.5625,-16.6875,-56.9375,-0.2825,0.4196,-0.8379,0.2051,
2025-03-10 16:26:55.154,3.4800,-5.8800,4.3800,-13.6250,-18.8125,-66.1875,-0.2891,0.4181,-0.8384,0.1967,
2025-03-10 16:26:55.164,3.7000,-5.9700,4.4200,-22.0625,-22.7500,-70.6250,-0.2930,0.4172,-0.8385,0.1923,
2025-03-10 16:26:55.184,3.8800,-6.2300,4.3900,-34.0000,-26.0625,-74.2500,-0.2975,0.4166,-0.8383,0.1876,
2025-03-10 16:26:55.194,3.9700,-6.7800,4.3800,-44.7500,-27.5000,-79.0625,-0.3079,0.4174,-0.8365,0.1768,
2025-03-10 16:26:55.204,3.7300,-7.1700,4.1200,-37.3750,-25.9375,-81.1875,-0.3137,0.4178,-0.8352,0.1718,
2025-03-10 16:26:55.224,4.1900,-6.8800,3.8500,-15.1250,-25.8750,-87.2500,-0.3240,0.4171,-0.8339,0.1603,
2025-03-10 16:26:55.244,4.6700,-6.8000,3.7000,-15.6250,-31.2500,-89.8125,-0.3343,0.4133,-0.8338,0.1490,
2025-03-10 16:26:55.254,5.0200,-6.7100,3.7200,-25.2500,-33.3125,-89.5625,-0.3398,0.4115,-0.8335,0.1432,
2025-03-10 16:26:55.284,4.6600,-6.6800,3.8900,-35.3125,-34.3125,-91.2500,-0.3515,0.4096,-0.8315,0.1313,
2025-03-10 16:26:55.294,4.5800,-6.8400,3.7200,-31.4375,-30.0000,-103.3750,-0.3634,0.4081,-0.8291,0.1182,
2025-03-10 16:26:55.304,5.5400,-7.0600,3.2900,-30.1250,-31.1250,-108.8125,-0.3694,0.4068,-0.8281,0.1111,
2025-03-10 16:26:55.364,6.2100,-6.8600,3.2100,-32.0625,-37.1875,-104.1250,-0.3819,0.4035,-0.8259,0.0961,
2025-03-10 16:26:55.364,6.3600,-6.6700,3.3900,-32.3750,-41.3125,-98.7500,-0.3947,0.4007,-0.8227,0.0825,
2025-03-10 16:26:55.364,6.4700,-6.1700,4.0300,-34.6250,-42.5000,-101.1875,-0.4012,0.3996,-0.8207,0.0760,
2025-03-10 16:26:55.384,7.4200,-6.8700,3.2800,-36.8125,-40.8750,-122.5625,-0.4144,0.3967,-0.8168,0.0617,
2025-03-10 16:26:55.404,7.9200,-7.4600,2.9200,-32.3125,-43.8125,-121.5000,-0.4288,0.3923,-0.8125,0.0447,
2025-03-10 16:26:55.404,7.3800,-7.3200,2.8900,-26.7500,-46.4375,-113.3125,-0.4360,0.3900,-0.8103,0.0367,
2025-03-10 16:26:55.424,7.1000,-6.8300,3.3900,-5.3125,-52.3750,-106.6250,-0.4499,0.3845,-0.8057,0.0231,
2025-03-10 16:26:55.444,7.1100,-6.0300,3.0500,11.5000,-51.5625,-116.1250,-0.4640,0.3759,-0.8020,0.0118,
2025-03-10 16:26:55.454,7.5200,-5.5000,2.5200,10.1875,-53.2500,-125.1250,-0.4711,0.3706,-0.8004,0.0060,
2025-03-10 16:26:55.474,8.6900,-5.0000,1.9300,-4.2500,-52.1875,-132.3125,-0.4864,0.3592,-0.7964,-0.0076,
2025-03-10 16:26:55.501,8.9300,-4.6600,2.2500,-10.5625,-46.0625,-124.5000,-0.5007,0.3496,-0.7915,-0.0225,
2025-03-10 16:26:55.515,9.3400,-4.6800,2.9200,-18.8125,-42.0625,-115.6875,-0.5069,0.3460,-0.7889,-0.0297,
2025-03-10 16:26:55.525,9.5800,-4.5800,2.9100,-14.7500,-47.0625,-123.3750,-0.5193,0.3386,-0.7834,-0.0444,
2025-03-10 16:26:55.545,9.2000,-4.4200,2.4900,-15.1875,-50.2500,-131.1875,-0.5328,0.3297,-0.7771,-0.0598,
2025-03-10 16:26:55.556,9.3700,-4.2800,2.4900,-43.4375,-47.9375,-134.5000,-0.5400,0.3258,-0.7730,-0.0690,
2025-03-10 16:26:55.576,10.2100,-3.8100,2.6800,-42.1875,-24.0000,-128.8125,-0.5521,0.3200,-0.7649,-0.0880,
2025-03-10 16:26:55.596,10.7200,-3.6500,2.4200,-36.1875,-17.1250,-130.0000,-0.5610,0.3132,-0.7588,-0.1072,
2025-03-10 16:26:55.606,10.8700,-3.6000,2.1800,-27.0625,-17.5625,-133.1250,-0.5652,0.3090,-0.7559,-0.1167,
2025-03-10 16:26:55.666,11.0500,-3.2300,1.4700,-26.3750,-27.8125,-128.3125,-0.5739,0.3001,-0.7499,-0.1351,
2025-03-10 16:26:55.666,11.3000,-2.9300,1.0200,-23.6875,-30.8750,-123.1875,-0.5833,0.2916,-0.7427,-0.1519,
2025-03-10 16:26:55.666,11.1700,-2.0700,0.6100,-24.2500,-24.7500,-109.9375,-0.5877,0.2876,-0.7392,-0.1596,
2025-03-10 16:26:55.677,11.0000,-1.6200,0.4500,-37.3750,-18.3125,-100.5625,-0.5949,0.2810,-0.7326,-0.1746,
2025-03-10 16:26:55.696,10.5200,-1.6100,0.5500,-43.1250,-14.9375,-98.1875,-0.6004,0.2764,-0.7259,-0.1901,
2025-03-10 16:26:55.728,10.2600,-1.7900,0.5800,-52.1875,-12.0625,-96.6250,-0.6027,0.2746,-0.7226,-0.1981,
2025-03-10 16:26:55.728,9.9000,-1.7400,0.7500,-61.4375,-13.1875,-88.6250,-0.6067,0.2719,-0.7155,-0.2147,
2025-03-10 16:26:55.747,9.9300,-1.4300,1.0000,-66.5625,-11.6875,-84.5625,-0.6098,0.2711,-0.7080,-0.2311,
2025-03-10 16:26:55.767,9.9600,-1.2300,1.0500,-74.5000,-6.6875,-77.3125,-0.6108,0.2714,-0.7043,-0.2394,
2025-03-10 16:26:55.777,10.1600,-1.2500,0.9200,-69.4375,1.0625,-72.1875,-0.6117,0.2725,-0.6972,-0.2558,
2025-03-10 16:26:55.798,10.1300,-1.5000,0.7500,-62.5625,2.7500,-70.3750,-0.6118,0.2728,-0.6912,-0.2711,
2025-03-10 16:26:55.808,10.1400,-1.4100,0.6600,-48.8750,3.5000,-64.4375,-0.6119,0.2724,-0.6885,-0.2779,
2025-03-10 16:26:55.830,10.1100,-1.5700,0.5900,-39.3125,3.0625,-58.1250,-0.6122,0.2711,-0.6838,-0.2902,
2025-03-10 16:26:55.840,10.0700,-1.2800,0.7400,-36.6250,3.8125,-54.1875,-0.6125,0.2695,-0.6796,-0.3007,
2025-03-10 16:26:55.863,9.9600,-1.2100,0.8000,-37.1875,3.7500,-46.5000,-0.6121,0.2704,-0.6780,-0.3042,
2025-03-10 16:26:55.881,10.0200,-0.9100,0.9100,-32.2500,2.0625,-37.5625,-0.6119,0.2698,-0.6743,-0.3132,
2025-03-10 16:26:55.895,10.1100,-0.9100,0.7500,-29.1250,3.5625,-33.6250,-0.6116,0.2695,-0.6713,-0.3206,
2025-03-10 16:26:55.903,9.9700,-0.8400,0.7900,-24.1250,6.0625,-27.6250,-0.6113,0.2693,-0.6701,-0.3238,
2025-03-10 16:26:55.934,9.6600,-1.4400,0.8400,-17.0000,7.1875,-23.8750,-0.6105,0.2686,-0.6685,-0.3291,
2025-03-10 16:26:55.965,9.3600,-1.3400,0.5700,-8.1250,-1.6250,-14.2500,-0.6106,0.2679,-0.6672,-0.3321,
2025-03-10 16:26:55.965,9.3300,-0.8000,0.4500,-3.1250,-5.6875,-10.2500,-0.6110,0.2677,-0.6666,-0.3327,
2025-03-10 16:26:55.986,9.5300,0.2900,0.5400,-6.1875,-5.9375,-4.6875,-0.6118,0.2680,-0.6653,-0.3336,
2025-03-10 16:26:56.015,9.5100,0.2800,0.9600,-12.2500,-1.1250,-2.2500,-0.6115,0.2690,-0.6644,-0.3349,
2025-03-10 16:26:56.015,9.5900,0.1300,1.0300,-11.3750,0.5625,-0.6875,-0.6112,0.2697,-0.6641,-0.3356,
2025-03-10 16:26:56.028,9.5800,0.0700,0.9800,-9.1875,-1.1250,2.3750,-0.6106,0.2709,-0.6638,-0.3364,
2025-03-10 16:26:56.046,9.8800,0.5000,1.0100,-4.5625,-2.9375,5.0625,-0.6105,0.2722,-0.6634,-0.3363,
2025-03-10 16:26:56.056,9.8700,0.5600,1.0600,-5.3750,-0.3750,4.5625,-0.6102,0.2728,-0.6634,-0.3364,
2025-03-10 16:26:56.077,9.7400,0.3400,0.9900,-2.0625,1.5000,5.0625,-0.6096,0.2736,-0.6637,-0.3362,
2025-03-10 16:26:56.087,9.9000,0.3100,0.8800,1.4375,-1.6875,5.9375,-0.6095,0.2741,-0.6640,-0.3354,
2025-03-10 16:26:56.108,9.9200,0.4500,0.8200,2.3750,-2.8750,6.0000,-0.6096,0.2744,-0.6640,-0.3349,
2025-03-10 16:26:56.130,9.8400,0.5700,0.8800,0.8125,-2.3125,5.3750,-0.6098,0.2750,-0.6641,-0.3340,
2025-03-10 16:26:56.138,9.8200,0.5800,0.9400,-0.3750,-1.6875,5.1875,-0.6098,0.2753,-0.6641,-0.3337,
2025-03-10 16:26:56.150,9.7500,0.4900,0.9300,0.2500,-1.7500,5.0625,-0.6098,0.2756,-0.6642,-0.3333,
2025-03-10 16:26:56.150,9.7600,0.4100,0.9300,2.3125,-3.6250,4.8125,-0.6100,0.2758,-0.6641,-0.3329,
2025-03-10 16:26:56.169,9.7700,0.4400,0.9200,4.8750,-5.6250,4.8750,-0.6103,0.2759,-0.6641,-0.3322,
2025-03-10 16:26:56.170,9.7800,0.4700,0.9200,7.2500,-7.0000,5.0625,-0.6108,0.2759,-0.6640,-0.3314,
2025-03-10 16:26:56.190,9.8800,0.6600,0.9100,8.0625,-7.1875,4.9375,-0.6113,0.2759,-0.6640,-0.3306,
2025-03-10 16:26:56.192,9.8400,0.7200,0.8800,6.6250,-5.6250,4.2500,-0.6118,0.2759,-0.6639,-0.3299,
2025-03-10 16:26:56.211,9.8200,0.7100,0.7900,3.7500,-4.6875,3.4375,-0.6122,0.2759,-0.6638,-0.3295,
2025-03-10 16:26:56.211,9.8000,0.6600,0.7000,-0.7500,-2.8750,2.3750,-0.6124,0.2760,-0.6635,-0.3294,
2025-03-10 16:26:56.254,9.6000,0.3400,0.7600,0.6250,-4.4375,1.4375,-0.6128,0.2764,-0.6631,-0.3291,
2025-03-10 16:26:56.254,9.6800,0.4200,0.8500,4.1875,-6.8125,2.0000,-0.6136,0.2766,-0.6627,-0.3282,
2025-03-10 16:26:56.276,9.8200,0.7000,0.9200,5.8125,-7.1250,1.8750,-0.6146,0.2766,-0.6624,-0.3271,
2025-03-10 16:26:56.285,9.8200,0.6900,0.9100,4.6250,-5.6875,1.2500,-0.6151,0.2764,-0.6622,-0.3267,
2025-03-10 16:26:56.295,9.7700,0.5400,0.7900,2.6250,-4.6250,0.6250,-0.6155,0.2764,-0.6620,-0.3265,
2025-03-10 16:26:56.307,9.7700,0.5200,0.8200,1.5000,-4.8750,0.2500,-0.6161,0.2758,-0.6621,-0.3257,
2025-03-10 16:26:56.321,9.8300,0.5100,0.7700,2.2500,-5.3750,0.1875,-0.6165,0.2757,-0.6618,-0.3255,
2025-03-10 16:26:56.335,9.8900,0.5500,0.7600,2.2500,-5.3750,0.0000,-0.6169,0.2758,-0.6615,-0.3253,
2025-03-10 16:26:56.337,10.0100,0.6200,0.7200,1.0625,-4.9375,0.0625,-0.6172,0.2758,-0.6613,-0.3251,
2025-03-10 16:26:56.347,10.0100,0.6400,0.7300,-1.3125,-4.3125,-0.1250,-0.6175,0.2759,-0.6610,-0.3251,
2025-03-10 16:26:56.357,9.9500,0.5900,0.7200,-3.6250,-3.3125,-0.2500,-0.6177,0.2761,-0.6607,-0.3253,
2025-03-10 16:26:56.366,9.8000,0.4900,0.7100,-5.1250,-2.3750,-0.4375,-0.6177,0.2764,-0.6603,-0.3255,
2025-03-10 16:26:56.376,9.8000,0.3700,0.6600,-5.3125,-2.6875,-0.6250,-0.6178,0.2767,-0.6601,-0.3258,
2025-03-10 16:26:56.386,9.7700,0.2600,0.7000,-4.8125,-4.1250,-0.3125,-0.6179,0.2772,-0.6597,-0.3259,
2025-03-10 16:26:56.397,9.8200,0.1300,0.6700,-1.8125,-5.7500,-0.2500,-0.6182,0.2774,-0.6594,-0.3259,
2025-03-10 16:26:56.427,9.9300,0.1400,0.8000,0.8750,-6.1875,0.0625,-0.6187,0.2772,-0.6592,-0.3253,
2025-03-10 16:26:56.437,9.9100,0.1900,0.9300,0.9375,-4.6875,0.3125,-0.6190,0.2772,-0.6591,-0.3251,
2025-03-10 16:26:56.438,9.8300,0.2900,0.7800,-1.5625,-1.5000,0.2500,-0.6191,0.2775,-0.6588,-0.3251,
2025-03-10 16:26:56.443,9.8000,0.2000,0.7300,-1.2500,-1.3750,0.1875,-0.6191,0.2776,-0.6587,-0.3251,
2025-03-10 16:26:56.458,9.7800,0.1600,0.6800,0.1875,-0.7500,0.1250,-0.6192,0.2777,-0.6586,-0.3251,
2025-03-10 16:26:56.468,9.7500,0.2000,0.6500,1.5625,-0.7500,0.7500,-0.6193,0.2776,-0.6587,-0.3249,
2025-03-10 16:26:56.468,9.7400,0.2900,0.6800,3.0625,-1.1875,1.1250,-0.6194,0.2776,-0.6587,-0.3247,
2025-03-10 16:26:56.478,9.7300,0.3600,0.7000,4.1250,-1.5000,1.2500,-0.6196,0.2775,-0.6588,-0.3243,
2025-03-10 16:26:56.488,9.7600,0.4200,0.7000,4.4375,-1.7500,1.2500,-0.6197,0.2773,-0.6588,-0.3240,
2025-03-10 16:26:56.508,9.7900,0.4400,0.6800,4.3750,-1.6875,1.1250,-0.6200,0.2772,-0.6588,-0.3236,
2025-03-10 16:26:56.519,9.8400,0.5000,0.6300,3.9375,-2.1250,1.2500,-0.6202,0.2771,-0.6588,-0.3233,
2025-03-10 16:26:56.558,9.8400,0.4900,0.5900,3.3750,-1.8750,0.7500,-0.6204,0.2770,-0.6588,-0.3231,
2025-03-10 16:26:56.568,9.8200,0.4700,0.5700,3.1250,-1.8125,0.6875,-0.6206,0.2769,-0.6588,-0.3228,
2025-03-10 16:26:56.568,9.8700,0.4200,0.5400,2.2500,-1.9375,0.5000,-0.6208,0.2768,-0.6587,-0.3226,
2025-03-10 16:26:56.568,9.8300,0.3200,0.5700,0.6875,-1.5000,0.1250,-0.6210,0.2768,-0.6586,-0.3226,
2025-03-10 16:26:56.568,9.8300,0.2500,0.6100,0.3750,-1.0625,0.3125,-0.6210,0.2769,-0.6585,-0.3225,
2025-03-10 16:26:56.578,9.8400,0.2200,0.6200,1.8125,-1.3125,0.3750,-0.6212,0.2768,-0.6585,-0.3224,
2025-03-10 16:26:56.578,9.8700,0.3300,0.7200,3.6250,-2.1250,0.6875,-0.6214,0.2767,-0.6584,-0.3221,
2025-03-10 16:26:56.609,9.8200,0.4100,0.7400,5.5000,-2.3750,0.8125,-0.6216,0.2765,-0.6585,-0.3217,
2025-03-10 16:26:56.609,9.8300,0.5100,0.7000,6.1250,-2.5625,0.8125,-0.6223,0.2756,-0.6588,-0.3206,
2025-03-10 16:26:56.619,9.8200,0.6700,0.6300,5.1875,-2.7500,0.6875,-0.6225,0.2755,-0.6588,-0.3202,
2025-03-10 16:26:56.629,9.7500,0.6300,0.6000,2.7500,-2.0000,0.2500,-0.6227,0.2753,-0.6588,-0.3200,
2025-03-10 16:26:56.629,9.7600,0.5600,0.6000,0.3750,-1.7500,0.0000,-0.6228,0.2754,-0.6587,-0.3200,
2025-03-10 16:26:56.649,9.7800,0.4700,0.6300,-0.1875,-1.8750,0.0000,-0.6229,0.2754,-0.6586,-0.3199,
2025-03-10 16:26:56.650,9.7800,0.3500,0.6300,0.3750,-1.7500,0.1250,-0.6230,0.2755,-0.6585,-0.3199,
2025-03-10 16:26:56.660,9.7800,0.3800,0.6300,1.4375,-2.1250,0.3750,-0.6232,0.2755,-0.6584,-0.3198,
2025-03-10 16:26:56.671,9.8100,0.4100,0.6100,2.8750,-2.4375,0.5625,-0.6234,0.2754,-0.6583,-0.3196,
2025-03-10 16:26:56.682,9.8400,0.4800,0.6200,3.5625,-2.6250,0.6250,-0.6236,0.2753,-0.6583,-0.3193,
2025-03-10 16:26:56.701,9.8300,0.5000,0.6000,3.2500,-2.1875,0.4375,-0.6239,0.2752,-0.6582,-0.3191,
2025-03-10 16:26:56.701,9.8600,0.4800,0.5900,2.0000,-1.6250,0.1250,-0.6242,0.2747,-0.6584,-0.3185,
2025-03-10 16:26:56.723,9.8300,0.4700,0.5900,0.3750,-1.0625,-0.1875,-0.6243,0.2747,-0.6583,-0.3185,
2025-03-10 16:26:56.723,9.8500,0.3400,0.6300,-1.4375,-0.5625,-0.5625,-0.6243,0.2747,-0.6583,-0.3185,
2025-03-10 16:26:56.732,9.8500,0.2900,0.6400,-1.4375,-0.1250,-0.5000,-0.6243,0.2748,-0.6582,-0.3187,
2025-03-10 16:26:56.743,9.8800,0.2400,0.6600,0.5000,-0.5000,-0.3125,-0.6243,0.2748,-0.6582,-0.3187,
2025-03-10 16:26:56.753,9.8900,0.3300,0.6300,2.7500,-0.9375,-0.0625,-0.6244,0.2747,-0.6583,-0.3184,
2025-03-10 16:26:56.763,9.8900,0.4600,0.6200,3.9375,-1.1250,0.2500,-0.6246,0.2745,-0.6583,-0.3182,
2025-03-10 16:26:56.774,9.8700,0.5600,0.6000,3.1250,-0.6250,0.1250,-0.6247,0.2743,-0.6583,-0.3180,
2025-03-10 16:26:56.785,9.8200,0.6000,0.5900,1.3125,0.1875,-0.1250,-0.6248,0.2742,-0.6583,-0.3180,
2025-03-10 16:26:56.804,9.8100,0.5000,0.5200,-0.0625,0.3125,-0.4375,-0.6248,0.2742,-0.6583,-0.3180,
2025-03-10 16:26:56.804,9.8200,0.4500,0.5100,-0.8750,-0.3750,-0.3750,-0.6249,0.2740,-0.6583,-0.3179,
2025-03-10 16:26:56.815,9.8100,0.3800,0.5200,-1.3125,-0.9375,-0.1875,-0.6249,0.2742,-0.6582,-0.3179,
2025-03-10 16:26:56.845,9.8100,0.3800,0.5200,-0.9375,-1.2500,0.1250,-0.6250,0.2742,-0.6581,-0.3180,
2025-03-10 16:26:56.865,9.8700,0.3700,0.5600,-0.0625,-1.5000,0.2500,-0.6251,0.2743,-0.6580,-0.3179,
2025-03-10 16:26:56.865,9.8300,0.3800,0.5700,0.6250,-1.3125,0.2500,-0.6252,0.2743,-0.6579,-0.3179,
2025-03-10 16:26:56.865,9.8300,0.3700,0.5500,0.9375,-1.0000,0.3125,-0.6253,0.2743,-0.6578,-0.3178,
2025-03-10 16:26:56.865,9.8000,0.3800,0.5200,-0.2500,-0.9375,0.3125,-0.6253,0.2743,-0.6578,-0.3178,
2025-03-10 16:26:56.875,9.8200,0.3700,0.5000,-0.5625,-0.8125,0.7500,-0.6254,0.2743,-0.6578,-0.3178,
2025-03-10 16:26:56.885,9.7900,0.3500,0.5700,-0.3125,-0.5625,0.6875,-0.6254,0.2744,-0.6577,-0.3177,
2025-03-10 16:26:56.895,9.7900,0.3700,0.6000,-0.0625,-1.0625,0.9375,-0.6254,0.2744,-0.6577,-0.3177,
2025-03-10 16:26:56.915,9.8200,0.4300,0.5700,0.1250,-1.2500,0.8750,-0.6255,0.2745,-0.6577,-0.3176,
2025-03-10 16:26:56.925,9.7700,0.4700,0.5500,-0.7500,-0.6875,1.0625,-0.6256,0.2745,-0.6577,-0.3174,
2025-03-10 16:26:56.955,9.7300,0.4800,0.5400,-1.2500,-0.4375,1.3125,-0.6256,0.2746,-0.6576,-0.3174,
2025-03-10 16:26:56.955,9.7800,0.4700,0.6100,-0.6250,-0.9375,1.5625,-0.6255,0.2747,-0.6576,-0.3174,
2025-03-10 16:26:56.955,9.8400,0.4700,0.6400,0.1875,-0.9375,1.7500,-0.6256,0.2748,-0.6576,-0.3173,
2025-03-10 16:26:56.955,9.8500,0.4500,0.6600,0.5625,-0.5000,1.6250,-0.6256,0.2750,-0.6576,-0.3172,
2025-03-10 16:26:56.965,9.8700,0.4400,0.6500,-0.0625,-0.3125,1.5000,-0.6256,0.2749,-0.6577,-0.3170,
2025-03-10 16:26:56.975,9.9000,0.3800,0.6200,-1.5000,-0.3750,1.0625,-0.6256,0.2750,-0.6577,-0.3169,
2025-03-10 16:26:56.997,9.8900,0.3500,0.6100,-2.6875,0.6250,0.6875,-0.6255,0.2751,-0.6577,-0.3170,
2025-03-10 16:26:56.997,9.8500,0.2700,0.5600,-2.8750,1.1875,0.5000,-0.6254,0.2753,-0.6577,-0.3171,
2025-03-10 16:26:57.006,9.8300,0.2700,0.5700,-2.3125,0.9375,0.5000,-0.6252,0.2754,-0.6577,-0.3173,
2025-03-10 16:26:57.057,9.8000,0.2500,0.6000,-1.2500,0.8125,0.5625,-0.6251,0.2755,-0.6577,-0.3174,
2025-03-10 16:26:57.057,9.8100,0.2900,0.6300,-0.0625,0.7500,0.6875,-0.6250,0.2756,-0.6577,-0.3175,
2025-03-10 16:26:57.057,9.8300,0.3400,0.6600,0.6875,0.4375,0.9375,-0.6250,0.2756,-0.6577,-0.3175,
2025-03-10 16:26:57.057,9.9400,0.4000,0.5800,1.3750,0.1250,0.6250,-0.6250,0.2756,-0.6578,-0.3174,
2025-03-10 16:26:57.057,9.9000,0.4300,0.5400,1.0000,0.1875,0.2500,-0.6250,0.2756,-0.6578,-0.3173,
2025-03-10 16:26:57.069,9.8600,0.4500,0.5000,-1.0000,1.0625,-0.1250,-0.6255,0.2745,-0.6583,-0.3162,
2025-03-10 16:26:57.080,9.8100,0.4400,0.5300,-1.9375,0.9375,-0.2500,-0.6254,0.2745,-0.6584,-0.3162,
2025-03-10 16:26:57.088,9.7600,0.3900,0.5900,-1.8750,0.8125,-0.3750,-0.6254,0.2746,-0.6583,-0.3164,
2025-03-10 16:26:57.088,9.7500,0.3200,0.6100,-1.3750,1.0000,-0.1250,-0.6253,0.2747,-0.6583,-0.3165,
2025-03-10 16:26:57.109,9.7700,0.3400,0.6800,-0.6875,1.0625,-0.0625,-0.6252,0.2747,-0.6583,-0.3166,
2025-03-10 16:26:57.109,9.8300,0.4300,0.6900,0.3125,0.6875,0.1250,-0.6254,0.2742,-0.6586,-0.3161,
2025-03-10 16:26:57.149,9.8600,0.4600,0.6000,0.5625,0.7500,0.0625,-0.6253,0.2742,-0.6587,-0.3161,
2025-03-10 16:26:57.160,9.8500,0.4700,0.4600,-0.8125,1.2500,-0.0625,-0.6253,0.2742,-0.6587,-0.3162,
2025-03-10 16:26:57.160,9.7700,0.4300,0.4300,-3.2500,1.8125,-0.2500,-0.6252,0.2742,-0.6588,-0.3162,
2025-03-10 16:26:57.160,9.6800,0.2600,0.5100,-3.9375,2.1875,-0.3125,-0.6251,0.2743,-0.6587,-0.3165,
2025-03-10 16:26:57.169,9.7500,0.2400,0.5400,-3.0000,1.3750,-0.1250,-0.6250,0.2742,-0.6588,-0.3164,
2025-03-10 16:26:57.169,9.7800,0.2600,0.5400,-1.3750,0.5625,0.5000,-0.6248,0.2744,-0.6588,-0.3166,
2025-03-10 16:26:57.185,9.8800,0.3900,0.6500,0.2500,0.0000,0.9375,-0.6248,0.2745,-0.6588,-0.3167,
2025-03-10 16:26:57.190,9.9000,0.4100,0.6700,1.1875,0.0000,0.6250,-0.6248,0.2745,-0.6588,-0.3166,
2025-03-10 16:26:57.202,9.8800,0.4400,0.5900,0.6250,0.1250,0.1250,-0.6248,0.2745,-0.6588,-0.3165,
2025-03-10 16:26:57.210,9.8200,0.3900,0.5600,-0.3750,0.6875,-0.2500,-0.6250,0.2742,-0.6590,-0.3162,
2025-03-10 16:26:57.234,9.7800,0.3200,0.4700,-1.4375,0.5000,-0.3750,-0.6250,0.2741,-0.6590,-0.3162,
2025-03-10 16:26:57.253,9.7300,0.2500,0.5200,-2.1250,0.3750,-0.1250,-0.6250,0.2742,-0.6590,-0.3162,
2025-03-10 16:26:57.253,9.7400,0.2500,0.5600,-1.5625,0.6250,0.2500,-0.6249,0.2744,-0.6589,-0.3163,
2025-03-10 16:26:57.253,9.7900,0.3100,0.5700,0.1250,-0.0625,0.6875,-0.6249,0.2744,-0.6589,-0.3164,
2025-03-10 16:26:57.272,9.8200,0.3400,0.5800,1.1875,-0.8750,1.0000,-0.6249,0.2744,-0.6589,-0.3163,
2025-03-10 16:26:57.293,9.8200,0.3800,0.6100,1.0000,-0.5000,0.7500,-0.6250,0.2744,-0.6589,-0.3161,
2025-03-10 16:26:57.293,9.8400,0.3900,0.5700,0.1875,-0.5000,0.5625,-0.6250,0.2744,-0.6589,-0.3160,
2025-03-10 16:26:57.293,9.8000,0.3600,0.6100,-0.9375,-0.3125,0.1250,-0.6250,0.2744,-0.6589,-0.3160,
2025-03-10 16:26:57.303,9.8100,0.3200,0.6100,-1.6250,-0.2500,-0.2500,-0.6250,0.2744,-0.6589,-0.3161,
2025-03-10 16:26:57.325,9.8000,0.2900,0.6200,-1.5000,-0.5000,-0.2500,-0.6252,0.2739,-0.6592,-0.3156,
2025-03-10 16:26:57.325,9.8300,0.2500,0.6200,-0.8125,-0.4375,-0.2500,-0.6252,0.2740,-0.6591,-0.3156,
2025-03-10 16:26:57.337,9.8400,0.2800,0.6000,0.3750,-0.6875,0.1250,-0.6251,0.2741,-0.6591,-0.3157,
2025-03-10 16:26:57.345,9.8300,0.3200,0.6500,0.1250,-0.1875,0.1875,-0.6252,0.2741,-0.6591,-0.3156,
2025-03-10 16:26:57.358,9.8500,0.3100,0.6500,-0.6250,0.0000,0.0000,-0.6252,0.2741,-0.6591,-0.3156,
2025-03-10 16:26:57.365,9.8800,0.3000,0.6300,-1.1250,0.3750,-0.0625,-0.6252,0.2742,-0.6590,-0.3157,
2025-03-10 16:26:57.375,9.8800,0.2900,0.5800,-0.9375,0.5625,-0.2500,-0.6251,0.2742,-0.6590,-0.3157,
2025-03-10 16:26:57.385,9.8600,0.2800,0.6200,-0.8125,0.6875,-0.3125,-0.6251,0.2743,-0.6590,-0.3158,
2025-03-10 16:26:57.395,9.8500,0.3300,0.6300,-0.5000,0.8750,-0.3125,-0.6251,0.2743,-0.6590,-0.3159,
2025-03-10 16:26:57.405,9.8200,0.3100,0.6000,-0.2500,1.0000,-0.3125,-0.6250,0.2743,-0.6591,-0.3159,
2025-03-10 16:26:57.457,9.8200,0.3200,0.6600,-0.2500,1.0625,-0.4375,-0.6249,0.2742,-0.6591,-0.3159,
2025-03-10 16:26:57.457,9.8300,0.3000,0.6200,0.2500,0.8750,-0.4375,-0.6249,0.2742,-0.6592,-0.3159,
2025-03-10 16:26:57.457,9.8800,0.3200,0.5900,0.5000,0.5000,-0.5625,-0.6249,0.2742,-0.6592,-0.3159,
2025-03-10 16:26:57.457,9.8300,0.3200,0.6100,-0.0625,0.5625,-0.7500,-0.6249,0.2742,-0.6592,-0.3159,
2025-03-10 16:26:57.457,9.7900,0.3300,0.6400,-0.5625,1.0625,-0.9375,-0.6249,0.2742,-0.6592,-0.3160,
2025-03-10 16:26:57.467,9.7800,0.3600,0.6500,-0.6875,1.0000,-0.8125,-0.6249,0.2740,-0.6593,-0.3159,
2025-03-10 16:26:57.482,9.7600,0.3800,0.5700,0.1250,0.3125,-0.6875,-0.6248,0.2740,-0.6593,-0.3160,
2025-03-10 16:26:57.488,9.7800,0.4100,0.5800,1.0000,0.3125,-0.6250,-0.6249,0.2739,-0.6592,-0.3161,
2025-03-10 16:26:57.522,9.8000,0.4100,0.6200,1.0625,0.1250,-0.6250,-0.6249,0.2739,-0.6593,-0.3160,
2025-03-10 16:26:57.522,9.9000,0.4100,0.5700,1.0000,0.0625,-0.5625,-0.6250,0.2737,-0.6593,-0.3160,
2025-03-10 16:26:57.528,9.8500,0.4500,0.5600,-0.0625,0.5000,-0.7500,-0.6249,0.2738,-0.6592,-0.3161,
2025-03-10 16:26:57.528,9.8300,0.4000,0.5400,-1.3125,0.4375,-0.8750,-0.6249,0.2737,-0.6592,-0.3162,
2025-03-10 16:26:57.541,9.8200,0.3600,0.5200,-2.0625,-0.0625,-1.0000,-0.6249,0.2738,-0.6592,-0.3163,
2025-03-10 16:26:57.550,9.7700,0.3300,0.6000,-1.3125,-0.1875,-0.8125,-0.6249,0.2739,-0.6591,-0.3164,
2025-03-10 16:26:57.566,9.7700,0.3600,0.6300,0.8750,-0.4375,-0.4375,-0.6249,0.2737,-0.6591,-0.3165,
2025-03-10 16:26:57.570,9.7900,0.4200,0.6500,1.0625,-0.6875,-0.3125,-0.6250,0.2737,-0.6591,-0.3164,
2025-03-10 16:26:57.583,9.8300,0.4200,0.5700,0.6250,-0.4375,-0.4375,-0.6250,0.2737,-0.6591,-0.3164,
2025-03-10 16:26:57.600,9.7900,0.3600,0.5700,-0.5000,-0.1250,-0.3125,-0.6250,0.2736,-0.6591,-0.3163,
2025-03-10 16:26:57.603,9.7900,0.3600,0.5700,-1.5000,0.3125,-0.2500,-0.6250,0.2736,-0.6591,-0.3163,
2025-03-10 16:26:57.622,9.8100,0.3200,0.5300,-1.4375,-0.0625,-0.3125,-0.6249,0.2738,-0.6590,-0.3165,
2025-03-10 16:26:57.622,9.8300,0.3100,0.5700,-0.7500,-0.8750,0.0000,-0.6249,0.2739,-0.6590,-0.3166,
2025-03-10 16:26:57.631,9.8100,0.3200,0.5700,-0.2500,-1.0625,0.2500,-0.6249,0.2739,-0.6589,-0.3166,
2025-03-10 16:26:57.652,9.8400,0.2900,0.6000,-0.1875,-0.8125,0.3125,-0.6250,0.2740,-0.6589,-0.3166,
2025-03-10 16:26:57.662,9.8400,0.2900,0.6000,-0.7500,-1.0625,0.2500,-0.6251,0.2740,-0.6588,-0.3166,
2025-03-10 16:26:57.662,9.8100,0.2600,0.5700,-0.6875,-0.8125,0.0000,-0.6252,0.2737,-0.6589,-0.3163,
2025-03-10 16:26:57.682,9.8100,0.2300,0.5500,-0.1250,-0.8125,0.2500,-0.6253,0.2738,-0.6588,-0.3163,
2025-03-10 16:26:57.684,9.8900,0.2800,0.6200,-0.1250,-0.6875,0.1875,-0.6253,0.2739,-0.6588,-0.3163,
2025-03-10 16:26:57.693,9.8800,0.2900,0.6700,0.2500,-0.2500,0.2500,-0.6253,0.2739,-0.6588,-0.3162,
2025-03-10 16:26:57.718,10.0100,0.3900,0.6300,0.8125,1.2500,0.8125,-0.6253,0.2739,-0.6588,-0.3163,
2025-03-10 16:26:57.755,10.0700,0.3500,0.4800,2.0000,3.6875,1.0000,-0.6252,0.2738,-0.6589,-0.3162,
2025-03-10 16:26:57.767,9.8000,0.3300,0.6700,0.5625,13.2500,0.5000,-0.6246,0.2734,-0.6597,-0.3162,
2025-03-10 16:26:57.767,10.1400,0.4200,1.4300,-2.7500,12.6875,0.2500,-0.6230,0.2726,-0.6611,-0.3169,
2025-03-10 16:26:57.787,10.6300,0.3300,1.2700,-7.8125,14.1875,3.0000,-0.6214,0.2725,-0.6623,-0.3177,
2025-03-10 16:26:57.809,10.5000,0.3500,1.3900,-14.8125,27.3750,5.1875,-0.6188,0.2731,-0.6638,-0.3192,
2025-03-10 16:26:57.819,10.6100,0.6400,1.8000,-16.5000,32.7500,7.0625,-0.6166,0.2735,-0.6650,-0.3204,
2025-03-10 16:26:57.838,11.0800,0.4500,2.7600,-26.3125,48.6875,14.4375,-0.6112,0.2745,-0.6684,-0.3230,
2025-03-10 16:26:57.858,11.1900,0.2500,3.0400,-40.1875,67.4375,21.0000,-0.6027,0.2766,-0.6734,-0.3267,
2025-03-10 16:26:57.869,11.6900,-0.3000,3.3300,-45.2500,75.1875,23.3750,-0.5972,0.2782,-0.6764,-0.3293,
2025-03-10 16:26:57.890,11.3500,-0.2500,3.5800,-55.1250,90.5000,23.2500,-0.5843,0.2816,-0.6833,-0.3351,
2025-03-10 16:26:57.909,11.2400,-0.2400,3.7400,-56.1250,97.8125,25.6250,-0.5691,0.2851,-0.6912,-0.3422,
2025-03-10 16:26:57.919,11.0800,-0.2900,3.9800,-51.1250,113.6875,31.3125,-0.5600,0.2877,-0.6951,-0.3471,
2025-03-10 16:26:57.939,10.9700,-0.4800,4.4300,-54.2500,129.1875,35.3750,-0.5414,0.2899,-0.7055,-0.3538,
2025-03-10 16:26:57.959,10.8200,-0.5800,4.5100,-59.3125,135.6250,36.6250,-0.5203,0.2919,-0.7167,-0.3611,
2025-03-10 16:26:57.969,10.7800,-0.5400,4.7700,-67.4375,142.1875,40.8125,-0.5077,0.2952,-0.7209,-0.3679,
2025-03-10 16:26:57.989,10.9100,-0.8100,5.2800,-67.2500,148.4375,46.1250,-0.4838,0.2980,-0.7322,-0.3755,
2025-03-10 16:26:58.009,10.9400,-1.0300,5.3800,-69.1250,152.3125,47.9375,-0.4583,0.3006,-0.7438,-0.3826,
2025-03-10 16:26:58.019,10.5900,-1.8000,5.5900,-72.3750,159.3125,49.9375,-0.4443,0.3028,-0.7488,-0.3876,
2025-03-10 16:26:58.059,10.3800,-1.8900,5.6800,-62.5000,161.6875,52.1875,-0.4166,0.3048,-0.7602,-0.3945,
2025-03-10 16:26:58.059,10.0000,-2.1200,5.6700,-55.3125,160.2500,54.0000,-0.3892,0.3052,-0.7716,-0.4000,
2025-03-10 16:26:58.069,9.9300,-2.1400,5.7100,-48.8125,161.4375,58.4375,-0.3754,0.3050,-0.7774,-0.4021,
2025-03-10 16:26:58.089,9.2400,-1.7400,5.9400,-46.2500,163.3750,61.9375,-0.3477,0.3038,-0.7889,-0.4055,
2025-03-10 16:26:58.099,8.8200,-2.2300,5.8800,-47.3750,163.5625,61.8125,-0.3194,0.3024,-0.8000,-0.4082,
2025-03-10 16:26:58.120,8.5900,-2.2900,5.8700,-43.9375,162.1875,60.3750,-0.3051,0.3016,-0.8052,-0.4094,
2025-03-10 16:26:58.140,8.3200,-2.0800,6.1200,-39.8125,161.8750,59.2500,-0.2770,0.2991,-0.8152,-0.4115,
2025-03-10 16:26:58.151,7.5300,-2.1700,6.4500,-41.6250,163.4375,59.8125,-0.2486,0.2961,-0.8245,-0.4133,
2025-03-10 16:26:58.171,7.3300,-2.6100,6.3900,-47.3125,162.7500,62.0625,-0.2341,0.2947,-0.8288,-0.4140,
2025-03-10 16:26:58.202,6.8700,-2.8300,6.3600,-40.6250,158.8125,62.3125,-0.2050,0.2922,-0.8369,-0.4150,
2025-03-10 16:26:58.208,6.3000,-2.7900,6.6100,-34.5000,157.3750,62.3125,-0.1768,0.2884,-0.8445,-0.4151,
2025-03-10 16:26:58.232,6.0700,-2.6700,6.8200,-31.5000,156.7500,61.4375,-0.1630,0.2861,-0.8482,-0.4149,
2025-03-10 16:26:58.252,5.9900,-3.6800,6.6800,-28.5625,157.0000,61.3125,-0.1353,0.2812,-0.8549,-0.4144,
2025-03-10 16:26:58.252,5.1300,-3.6900,7.0000,-19.9375,156.0000,60.3125,-0.1080,0.2751,-0.8612,-0.4135,
2025-03-10 16:26:58.272,5.1000,-3.6300,6.9500,1.6250,147.5000,58.4375,-0.0953,0.2710,-0.8644,-0.4127,
2025-03-10 16:26:58.282,4.7800,-3.0400,7.1300,6.6250,145.8125,54.6875,-0.0714,0.2609,-0.8707,-0.4108,
2025-03-10 16:26:58.302,3.8700,-3.3900,7.0900,2.1875,142.2500,52.2500,-0.0482,0.2508,-0.8760,-0.4091,
2025-03-10 16:26:58.312,3.5000,-3.3300,7.0500,6.1875,134.8750,48.2500,-0.0370,0.2460,-0.8783,-0.4083,
2025-03-10 16:26:58.352,3.0500,-3.1000,6.9000,11.9375,129.5000,45.2500,-0.0157,0.2358,-0.8826,-0.4065,
2025-03-10 16:26:58.362,2.6300,-2.7900,7.2800,8.7500,125.0000,40.3750,0.0043,0.2256,-0.8860,-0.4051,
2025-03-10 16:26:58.362,2.4200,-2.7500,7.5900,2.2500,116.5625,31.7500,0.0137,0.2210,-0.8872,-0.4047,
2025-03-10 16:26:58.392,1.8900,-3.6100,7.3000,-0.1250,108.0000,28.7500,0.0320,0.2130,-0.8890,-0.4042,
2025-03-10 16:26:58.402,0.7600,-3.5800,7.3300,2.5000,102.7500,27.4375,0.0488,0.2054,-0.8902,-0.4037,
2025-03-10 16:26:58.412,0.6100,-3.3900,7.4400,3.5625,93.2500,31.4375,0.0565,0.2015,-0.8908,-0.4032,
2025-03-10 16:26:58.432,0.2400,-3.0600,7.5900,-1.1250,88.5625,30.6875,0.0711,0.1948,-0.8920,-0.4016,
2025-03-10 16:26:58.492,0.0800,-3.5500,7.8500,-12.6250,79.8750,28.3750,0.0851,0.1903,-0.8926,-0.3998,
2025-03-10 16:26:58.492,-0.0400,-3.7000,7.7300,-16.6250,72.0000,28.9375,0.0918,0.1888,-0.8927,-0.3988,
2025-03-10 16:26:58.492,-0.5200,-3.4600,7.7100,-16.6250,67.0625,29.1875,0.1043,0.1862,-0.8929,-0.3964,
2025-03-10 16:26:58.502,-0.5700,-3.4600,7.9400,-13.0000,59.1875,25.4375,0.1152,0.1836,-0.8932,-0.3940,
2025-03-10 16:26:58.572,-0.7200,-3.7400,7.9300,-12.9375,56.9375,23.3750,0.1203,0.1824,-0.8932,-0.3931,
2025-03-10 16:26:58.572,-1.1600,-4.0100,8.0900,-13.0000,50.3125,18.5000,0.1296,0.1806,-0.8930,-0.3914,
2025-03-10 16:26:58.572,-1.0800,-3.7900,7.7600,-5.6250,42.0000,16.6875,0.1373,0.1785,-0.8929,-0.3900,
2025-03-10 16:26:58.572,-0.9300,-3.5800,7.6400,-2.3750,39.2500,15.5625,0.1406,0.1772,-0.8929,-0.3894,
2025-03-10 16:26:58.582,-1.2300,-3.5900,7.6100,-3.1250,37.8750,11.6875,0.1469,0.1747,-0.8927,-0.3885,
2025-03-10 16:26:58.602,-1.2400,-3.9300,7.6800,-0.7500,36.4375,9.7500,0.1528,0.1723,-0.8924,-0.3880,
2025-03-10 16:26:58.612,-1.2700,-4.0900,8.1700,9.9375,28.8750,5.1875,0.1547,0.1705,-0.8924,-0.3881,
2025-03-10 16:26:58.662,-1.5800,-3.6300,8.2400,9.9375,28.8750,5.1875,0.1566,0.1688,-0.8923,-0.3883,
2025-03-10 16:26:58.662,-1.5200,-3.1400,7.0300,7.4375,13.1250,7.5000,0.1580,0.1662,-0.8927,-0.3879,
2025-03-10 16:26:58.672,-1.8300,-3.6800,7.6500,-10.4375,5.8750,4.0625,0.1597,0.1666,-0.8926,-0.3873,
2025-03-10 16:26:58.682,-1.4000,-4.4000,8.1200,-3.1250,3.0000,2.0000,0.1608,0.1672,-0.8925,-0.3868,
2025-03-10 16:26:58.702,-1.3700,-4.3700,8.2800,3.6875,0.0625,0.8125,0.1608,0.1667,-0.8926,-0.3868,
2025-03-10 16:26:58.712,-1.9100,-4.2000,7.8500,2.1875,-4.8125,2.6875,0.1604,0.1667,-0.8928,-0.3866,
2025-03-10 16:26:58.732,-2.0500,-4.2200,8.3100,-4.3750,-8.9375,3.5000,0.1594,0.1677,-0.8931,-0.3857,
2025-03-10 16:26:58.742,-1.7000,-4.4600,8.3800,-5.2500,-9.6250,3.1875,0.1589,0.1683,-0.8933,-0.3853,
2025-03-10 16:26:58.762,-1.2400,-4.5000,8.8500,3.3125,-9.2500,2.3125,0.1575,0.1688,-0.8937,-0.3846,
2025-03-10 16:26:58.792,-1.3300,-3.8300,8.7400,6.3125,-12.0000,2.2500,0.1555,0.1684,-0.8944,-0.3842,
2025-03-10 16:26:58.802,-1.6600,-3.7700,8.3200,-3.5625,-10.6250,4.6875,0.1538,0.1692,-0.8950,-0.3831,
2025-03-10 16:26:58.812,-1.4700,-3.9300,8.5800,-7.0625,-10.0625,4.5000,0.1533,0.1700,-0.8951,-0.3826,
2025-03-10 16:26:58.832,-0.9300,-4.9100,8.7100,2.6250,-10.3125,3.6875,0.1520,0.1707,-0.8956,-0.3817,
2025-03-10 16:26:58.842,-0.8800,-4.6400,8.7800,11.3125,-12.4375,4.2500,0.1508,0.1702,-0.8961,-0.3813,
2025-03-10 16:26:58.862,-0.9100,-3.9000,8.5500,16.5625,-17.6875,3.5625,0.1473,0.1686,-0.8972,-0.3806,
2025-03-10 16:26:58.882,-1.2000,-3.4500,8.2600,2.1250,-22.0000,-0.1250,0.1436,0.1691,-0.8980,-0.3800,
2025-03-10 16:26:58.902,-1.3600,-4.4200,7.9800,-9.0625,-24.1250,-3.1875,0.1406,0.1718,-0.8981,-0.3796,
2025-03-10 16:26:58.912,-1.2200,-4.5200,7.9800,-5.0000,-26.3125,-2.8125,0.1387,0.1730,-0.8983,-0.3793,
2025-03-10 16:26:58.932,-1.1800,-4.4400,8.0500,0.4375,-29.6875,-1.6250,0.1364,0.1740,-0.8986,-0.3790,
2025-03-10 16:26:58.952,-0.9900,-4.1700,8.1300,4.5000,-35.0625,0.0625,0.1336,0.1748,-0.8990,-0.3786,
2025-03-10 16:26:58.952,-0.6800,-3.7700,8.2000,6.2500,-36.8750,1.0625,0.1306,0.1755,-0.8996,-0.3780,
2025-03-10 16:26:58.952,-0.8200,-3.6900,8.0600,4.1250,-37.6875,0.8750,0.1276,0.1763,-0.9001,-0.3774,
2025-03-10 16:26:58.972,-0.8500,-3.5900,8.1600,0.6875,-39.3750,-0.8750,0.1246,0.1775,-0.9005,-0.3769,
2025-03-10 16:26:58.972,-1.0000,-4.0600,7.7200,-2.0625,-39.5000,-3.0625,0.1216,0.1790,-0.9008,-0.3765,
2025-03-10 16:26:58.982,-1.0800,-4.1100,7.4900,-3.3750,-42.3125,-3.8750,0.1184,0.1807,-0.9010,-0.3762,
2025-03-10 16:26:59.002,-1.0300,-3.8000,7.5900,0.3125,-51.9375,-1.4375,0.1108,0.1840,-0.9018,-0.3750,
2025-03-10 16:26:59.012,-0.2700,-3.5200,8.3500,-1.5000,-57.7500,0.2500,0.1065,0.1859,-0.9023,-0.3741,
2025-03-10 16:26:59.022,0.3300,-3.9800,8.2600,-0.3125,-55.2500,0.3125,0.1023,0.1876,-0.9028,-0.3732,
2025-03-10 16:26:59.032,0.3600,-4.5400,7.8900,-0.6875,-52.2500,-2.4375,0.0983,0.1893,-0.9032,-0.3726,
2025-03-10 16:26:59.048,-0.1600,-4.4500,8.0900,-1.3125,-56.8125,-7.1250,0.0939,0.1913,-0.9034,-0.3722,
2025-03-10 16:26:59.053,-0.2300,-4.3300,8.0300,5.7500,-63.4375,-8.4375,0.0887,0.1929,-0.9037,-0.3718,
2025-03-10 16:26:59.063,-0.2000,-4.2400,7.7600,16.2500,-68.8125,-7.4375,0.0828,0.1939,-0.9042,-0.3714,
2025-03-10 16:26:59.073,-0.2600,-3.8700,7.7600,21.9375,-74.5000,-5.8125,0.0764,0.1946,-0.9049,-0.3708,
2025-03-10 16:26:59.083,-0.1100,-3.1200,8.4500,20.3750,-83.4375,-5.1875,0.0692,0.1957,-0.9056,-0.3699,
2025-03-10 16:26:59.093,1.0000,-3.2400,8.4600,16.5625,-89.3750,-6.5625,0.0618,0.1972,-0.9062,-0.3690,
2025-03-10 16:26:59.103,1.8600,-3.6000,8.1000,16.8750,-85.6875,-9.0625,0.0545,0.1987,-0.9066,-0.3684,
2025-03-10 16:26:59.113,1.9600,-3.9700,7.4800,11.5000,-85.3750,-11.8750,0.0474,0.2004,-0.9068,-0.3679,
2025-03-10 16:26:59.123,1.1800,-3.3300,7.9200,4.6250,-90.1250,-16.9375,0.0401,0.2030,-0.9066,-0.3677,
2025-03-10 16:26:59.133,0.8600,-3.3900,7.7400,4.3125,-92.4375,-20.4375,0.0325,0.2056,-0.9064,-0.3677,
2025-03-10 16:26:59.143,0.7100,-3.6100,7.2800,2.0625,-95.7500,-21.1250,0.0247,0.2084,-0.9060,-0.3676,
2025-03-10 16:26:59.153,0.4700,-3.5200,7.5300,-2.0625,-104.5000,-19.5000,0.0165,0.2119,-0.9055,-0.3673,
2025-03-10 16:26:59.163,0.9100,-3.3800,7.8100,-3.7500,-115.9375,-17.8750,0.0074,0.2158,-0.9050,-0.3665,
2025-03-10 16:26:59.183,2.2100,-3.2200,7.4300,-0.8125,-119.5000,-16.8750,-0.0020,0.2195,-0.9045,-0.3656,
2025-03-10 16:26:59.183,2.8400,-3.4600,6.8200,-2.4375,-112.6250,-15.5000,-0.0109,0.2232,-0.9039,-0.3647,
2025-03-10 16:26:59.193,2.6400,-3.3200,7.8000,-13.1875,-114.6875,-18.3125,-0.0195,0.2277,-0.9029,-0.3639,
2025-03-10 16:26:59.203,2.4200,-3.3000,8.4200,-15.1875,-117.3750,-24.9375,-0.0285,0.2324,-0.9017,-0.3636,
2025-03-10 16:26:59.213,2.4400,-3.7600,8.0800,-10.5000,-119.8750,-28.6250,-0.0379,0.2368,-0.9002,-0.3634,
2025-03-10 16:26:59.253,2.8500,-3.9900,7.4100,-5.1875,-129.0000,-28.1875,-0.0481,0.2411,-0.8988,-0.3630,
2025-03-10 16:26:59.253,2.9600,-3.5900,7.8700,-1.5000,-142.1250,-26.5625,-0.0594,0.2454,-0.8973,-0.3621,
2025-03-10 16:26:59.253,3.5800,-3.2800,7.9100,2.5000,-152.1250,-26.3125,-0.0715,0.2498,-0.8957,-0.3609,
2025-03-10 16:26:59.253,4.9100,-3.0200,6.9900,9.2500,-147.1875,-25.6250,-0.0835,0.2534,-0.8942,-0.3596,
2025-03-10 16:26:59.263,4.6200,-3.2800,5.8300,3.1875,-134.8750,-23.6250,-0.0942,0.2570,-0.8925,-0.3585,
2025-03-10 16:26:59.273,4.0000,-3.0500,7.0200,-8.1875,-133.3125,-27.3125,-0.1046,0.2614,-0.8904,-0.3577,
2025-03-10 16:26:59.293,3.3200,-3.4200,7.8500,-5.4375,-129.7500,-37.8750,-0.1151,0.2654,-0.8879,-0.3577,
2025-03-10 16:26:59.303,3.9900,-5.2000,7.1700,3.6250,-130.3125,-38.1875,-0.1258,0.2687,-0.8855,-0.3576,
2025-03-10 16:26:59.303,4.3000,-5.0400,7.1500,9.6250,-139.6250,-33.0625,-0.1373,0.2718,-0.8832,-0.3568,
2025-03-10 16:26:59.313,4.4400,-4.3900,7.3800,13.3125,-147.7500,-32.2500,-0.1494,0.2749,-0.8807,-0.3556,
2025-03-10 16:26:59.323,4.9000,-3.6800,7.4500,15.9375,-151.1875,-33.2500,-0.1619,0.2778,-0.8781,-0.3543,
2025-03-10 16:26:59.333,5.9100,-2.8900,5.9400,16.5000,-146.3750,-31.8750,-0.1740,0.2805,-0.8755,-0.3530,
2025-03-10 16:26:59.343,5.8900,-2.6900,6.5000,2.9375,-142.0625,-30.3750,-0.1853,0.2841,-0.8725,-0.3518,
2025-03-10 16:26:59.353,5.9600,-2.4200,7.5400,-6.5625,-142.3750,-36.1250,-0.1965,0.2881,-0.8690,-0.3511,
2025-03-10 16:26:59.403,6.4800,-4.0200,7.3500,-3.0625,-138.0625,-44.6875,-0.2076,0.2918,-0.8652,-0.3511,
2025-03-10 16:26:59.403,7.1500,-4.6700,7.1500,6.3125,-140.3750,-44.3750,-0.2191,0.2946,-0.8615,-0.3507,
2025-03-10 16:26:59.403,7.5800,-4.6200,7.2300,17.2500,-148.5625,-38.6250,-0.2314,0.2970,-0.8580,-0.3495,
2025-03-10 16:26:59.403,7.9100,-4.1400,7.3100,27.8125,-155.9375,-34.3750,-0.2443,0.2989,-0.8545,-0.3475,
2025-03-10 16:26:59.403,9.3100,-3.1000,6.4300,38.0625,-157.1875,-34.0000,-0.2576,0.3001,-0.8512,-0.3452,
2025-03-10 16:26:59.413,9.2000,-3.1400,5.6500,46.8125,-146.1875,-36.6875,-0.2576,0.3001,-0.8512,-0.3452,
2025-03-10 16:26:59.423,8.5000,-2.9700,5.4900,44.0625,-137.6250,-42.1875,-0.2704,0.3001,-0.8480,-0.3431,
2025-03-10 16:26:59.433,7.5600,-2.2200,5.9400,47.6875,-137.3750,-49.8125,-0.2826,0.2999,-0.8447,-0.3416,
2025-03-10 16:26:59.443,7.0700,-2.0000,6.2200,57.3125,-138.5000,-55.6875,-0.2950,0.2993,-0.8411,-0.3404,
2025-03-10 16:26:59.453,7.7400,-2.4900,6.0600,57.2500,-140.3125,-52.0000,-0.3079,0.2978,-0.8374,-0.3395,
2025-03-10 16:26:59.463,8.2000,-2.7400,5.9900,50.0625,-142.5625,-45.3750,-0.3207,0.2964,-0.8337,-0.3381,
2025-03-10 16:26:59.493,8.8100,-2.2000,5.7100,46.7500,-142.2500,-41.6875,-0.3333,0.2957,-0.8297,-0.3363,
2025-03-10 16:26:59.493,9.6600,-2.0600,5.1000,49.0000,-141.9375,-38.4375,-0.3456,0.2952,-0.8256,-0.3344,
2025-03-10 16:26:59.493,9.6600,-2.2200,4.9000,51.1250,-138.8125,-37.1875,-0.3579,0.2947,-0.8215,-0.3320,
2025-03-10 16:26:59.513,9.5300,-2.0100,4.7300,48.3750,-138.3125,-38.7500,-0.3698,0.2939,-0.8175,-0.3296,
2025-03-10 16:26:59.513,8.9800,-1.2300,4.8900,47.5625,-136.3125,-44.4375,-0.3817,0.2932,-0.8132,-0.3273,
2025-03-10 16:26:59.558,9.1600,-1.1800,4.9000,51.5000,-134.6875,-47.0000,-0.3934,0.2922,-0.8087,-0.3254,
2025-03-10 16:26:59.565,9.4700,-1.3400,5.0300,54.6875,-134.8750,-43.9375,-0.4051,0.2908,-0.8041,-0.3235,
2025-03-10 16:26:59.565,9.7700,-1.5000,4.9700,53.2500,-134.3750,-39.6250,-0.4168,0.2893,-0.7996,-0.3214,
2025-03-10 16:26:59.565,10.0000,-1.4400,4.9700,51.1250,-134.6250,-35.9375,-0.4283,0.2878,-0.7950,-0.3188,
2025-03-10 16:26:59.575,10.7200,-1.0500,4.6500,52.0625,-139.2500,-30.3750,-0.4396,0.2867,-0.7903,-0.3161,
2025-03-10 16:26:59.575,11.2200,-0.6600,4.2600,54.7500,-138.2500,-23.1250,-0.4509,0.2858,-0.7856,-0.3128,
2025-03-10 16:26:59.595,11.3200,-0.6300,4.0400,52.6250,-130.2500,-16.5000,-0.4621,0.2849,-0.7809,-0.3089,
2025-03-10 16:26:59.595,10.7300,-0.6300,4.6000,48.6875,-120.2500,-18.0625,-0.4724,0.2842,-0.7767,-0.3047,
2025-03-10 16:26:59.605,10.2300,-0.8600,4.9700,50.7500,-114.6250,-24.7500,-0.4820,0.2833,-0.7725,-0.3011,
2025-03-10 16:26:59.616,11.1200,-1.4800,4.9400,61.4375,-115.8750,-25.5625,-0.4913,0.2819,-0.7684,-0.2979,
2025-03-10 16:26:59.625,11.1400,-1.8700,4.6800,68.8125,-117.3750,-22.5625,-0.5010,0.2798,-0.7643,-0.2942,
2025-03-10 16:26:59.635,11.2600,-2.0500,4.4300,69.2500,-116.4375,-19.1875,-0.5107,0.2773,-0.7604,-0.2900,
2025-03-10 16:26:59.645,11.0800,-1.6700,4.0200,71.6250,-114.6250,-19.9375,-0.5203,0.2748,-0.7565,-0.2855,
2025-03-10 16:26:59.655,10.7900,-0.4700,3.3400,72.3750,-115.1250,-19.2500,-0.5298,0.2721,-0.7526,-0.2809,
2025-03-10 16:26:59.670,11.2800,0.0400,2.9700,70.3750,-119.6250,-12.5000,-0.5393,0.2694,-0.7486,-0.2763,
2025-03-10 16:26:59.676,11.5700,0.3600,2.5500,67.0000,-117.7500,-6.3125,-0.5487,0.2671,-0.7444,-0.2711,
2025-03-10 16:26:59.687,11.2600,0.2200,2.5200,53.6250,-106.6875,-9.0625,-0.5577,0.2653,-0.7402,-0.2657,
2025-03-10 16:26:59.698,10.7400,0.1500,3.0000,36.6875,-97.3125,-14.5625,-0.5658,0.2639,-0.7362,-0.2614,
2025-03-10 16:26:59.709,10.4700,0.0400,3.2700,29.8750,-90.5625,-17.3750,-0.5730,0.2631,-0.7320,-0.2583,
2025-03-10 16:26:59.709,10.3300,-0.2600,3.4500,31.6875,-85.2500,-14.9375,-0.5796,0.2623,-0.7278,-0.2559,
2025-03-10 16:26:59.727,10.2900,-0.5800,3.3200,32.8125,-80.5000,-11.7500,-0.5858,0.2615,-0.7241,-0.2534,
2025-03-10 16:26:59.738,10.1400,-0.6700,3.0900,29.3750,-76.3125,-10.3125,-0.5917,0.2606,-0.7205,-0.2507,
2025-03-10 16:26:59.748,9.9400,-0.8000,2.8700,24.7500,-73.3125,-10.1250,-0.5972,0.2599,-0.7171,-0.2482,
2025-03-10 16:26:59.758,9.8900,-0.8100,2.6000,22.2500,-73.7500,-10.3125,-0.6024,0.2594,-0.7137,-0.2459,
2025-03-10 16:26:59.768,10.1100,-0.8400,1.9300,20.0000,-74.3750,-10.0625,-0.6075,0.2591,-0.7102,-0.2438,
2025-03-10 16:26:59.768,10.1700,-0.7300,1.6400,17.8750,-71.0000,-9.8750,-0.6126,0.2589,-0.7066,-0.2417,
2025-03-10 16:26:59.788,10.1900,-0.8500,1.5200,17.3750,-65.1250,-9.5625,-0.6174,0.2587,-0.7031,-0.2398,
2025-03-10 16:26:59.798,10.2600,-0.7300,1.4200,18.2500,-59.3125,-8.3750,-0.6218,0.2585,-0.6999,-0.2380,
2025-03-10 16:26:59.808,10.3600,-0.7000,1.4200,18.0000,-52.6250,-6.6250,-0.6258,0.2582,-0.6970,-0.2363,
2025-03-10 16:26:59.858,10.5000,-0.7200,1.4400,15.4375,-44.5000,-4.7500,-0.6295,0.2578,-0.6945,-0.2346,
2025-03-10 16:26:59.868,10.6000,-0.7500,1.4500,10.4375,-37.0000,-3.6250,-0.6325,0.2576,-0.6923,-0.2331,
2025-03-10 16:26:59.868,10.7100,-0.7400,1.3400,4.5625,-29.8125,-2.4375,-0.6349,0.2575,-0.6905,-0.2319,
2025-03-10 16:26:59.868,10.7300,-0.8200,1.3500,1.6875,-23.6250,-1.8750,-0.6368,0.2576,-0.6890,-0.2312,
2025-03-10 16:26:59.868,10.6600,-0.9100,1.3100,1.4375,-18.4375,-1.8750,-0.6382,0.2579,-0.6877,-0.2307,
2025-03-10 16:26:59.868,10.6600,-0.9100,1.3100,2.5625,-13.8750,-2.1250,-0.6394,0.2581,-0.6867,-0.2303,
2025-03-10 16:26:59.888,10.2000,-1.1400,1.0800,3.8125,-10.1250,-2.3125,-0.6403,0.2581,-0.6859,-0.2300,
2025-03-10 16:26:59.888,10.0200,-1.0800,0.8600,5.2500,-7.5000,-1.7500,-0.6410,0.2579,-0.6854,-0.2297,
2025-03-10 16:26:59.888,9.9900,-0.9400,0.7900,7.0000,-6.1875,-0.9375,-0.6416,0.2577,-0.6851,-0.2294,
2025-03-10 16:26:59.908,9.8600,-0.8000,0.7300,9.5625,-3.5000,-0.3125,-0.6421,0.2573,-0.6849,-0.2289,
2025-03-10 16:26:59.918,9.8100,-0.7300,0.6600,11.4375,-0.5625,0.4375,-0.6425,0.2568,-0.6849,-0.2283,
2025-03-10 16:26:59.928,9.7400,-0.6700,0.4700,12.1250,0.8750,1.4375,-0.6427,0.2562,-0.6852,-0.2277,
2025-03-10 16:26:59.938,9.5900,-0.4600,0.2400,10.5000,1.8750,2.3750,-0.6429,0.2556,-0.6855,-0.2269,
2025-03-10 16:26:59.948,9.5900,-0.3100,0.2100,8.1875,2.1875,3.3750,-0.6429,0.2551,-0.6859,-0.2263,
2025-03-10 16:26:59.958,9.5800,-0.1900,0.2100,5.6875,2.5000,3.6875,-0.6429,0.2547,-0.6862,-0.2256,
2025-03-10 16:26:59.968,9.6000,-0.1400,0.2000,2.3125,3.6875,3.5625,-0.6427,0.2545,-0.6866,-0.2252,
2025-03-10 16:26:59.978,9.6000,-0.2000,0.3000,-1.6250,5.2500,3.3125,-0.6425,0.2545,-0.6869,-0.2249,
2025-03-10 16:26:59.988,9.5900,-0.2900,0.3500,-4.0625,6.0000,2.6875,-0.6421,0.2547,-0.6872,-0.2250,
2025-03-10 16:26:59.998,9.6000,-0.4200,0.3700,-3.6875,5.5625,2.1250,-0.6416,0.2549,-0.6875,-0.2252,
2025-03-10 16:27:00.008,9.6200,-0.4900,0.3700,-2.0625,4.5625,2.0000,-0.6412,0.2552,-0.6877,-0.2253,
2025-03-10 16:27:00.008,9.6800,-0.5800,0.3900,-1.0000,3.4375,1.9375,-0.6409,0.2553,-0.6880,-0.2255,
2025-03-10 16:27:00.028,9.7200,-0.6000,0.4000,-0.7500,2.7500,2.0000,-0.6406,0.2554,-0.6882,-0.2255,
2025-03-10 16:27:00.038,9.7800,-0.5600,0.3600,-1.6875,2.0625,2.1250,-0.6404,0.2555,-0.6883,-0.2255,
2025-03-10 16:27:00.048,9.7900,-0.6000,0.3800,-2.9375,2.7500,1.9375,-0.6402,0.2557,-0.6884,-0.2255,
2025-03-10 16:27:00.058,9.8100,-0.6800,0.3500,-2.9375,2.7500,1.4375,-0.6400,0.2559,-0.6885,-0.2256,
2025-03-10 16:27:00.058,9.8400,-0.7500,0.3200,-2.6875,2.2500,1.0625,-0.6397,0.2561,-0.6886,-0.2258,
2025-03-10 16:27:00.078,9.8700,-0.8200,0.3500,-2.0000,1.8125,1.0000,-0.6395,0.2563,-0.6887,-0.2258,
2025-03-10 16:27:00.088,9.8700,-0.8500,0.3800,-0.8750,0.9375,1.0625,-0.6393,0.2565,-0.6888,-0.2259,
2025-03-10 16:27:00.098,9.8800,-0.7800,0.4500,0.1250,0.0625,1.2500,-0.6393,0.2566,-0.6888,-0.2259,
2025-03-10 16:27:00.108,9.8800,-0.6900,0.4900,0.6875,-0.5000,1.5000,-0.6393,0.2566,-0.6888,-0.2258,
2025-03-10 16:27:00.158,9.8000,-0.5900,0.5100,0.6250,-0.6875,0.5000,-0.6406,0.2535,-0.6900,-0.2220,
2025-03-10 16:27:00.158,9.7600,-0.6900,0.4500,0.1250,-0.6250,-0.0625,-0.6406,0.2535,-0.6900,-0.2219,
2025-03-10 16:27:00.158,9.7400,-0.7600,0.4200,0.5625,-0.7500,-0.2500,-0.6407,0.2535,-0.6899,-0.2219,
2025-03-10 16:27:00.158,9.7100,-0.7100,0.4500,0.5625,-1.0625,-0.1875,-0.6407,0.2535,-0.6899,-0.2219,
2025-03-10 16:27:00.168,9.7100,-0.7100,0.4500,0.8125,-1.5625,0.1250,-0.6408,0.2535,-0.6898,-0.2219,
2025-03-10 16:27:00.178,9.8500,-0.5600,0.5500,1.1250,-1.5625,0.1250,-0.6421,0.2504,-0.6909,-0.2184,
2025-03-10 16:27:00.188,9.8000,-0.4900,0.5000,1.1250,-1.0625,0.1250,-0.6423,0.2503,-0.6908,-0.2183,
2025-03-10 16:27:00.208,9.7700,-0.5200,0.5000,0.5000,-0.1250,0.0000,-0.6424,0.2503,-0.6908,-0.2182,
2025-03-10 16:27:00.208,9.7300,-0.6400,0.4300,-0.5625,0.5000,-0.3750,-0.6423,0.2502,-0.6907,-0.2183,
2025-03-10 16:27:00.218,9.7300,-0.6400,0.4300,-1.3750,0.8750,-0.5625,-0.6423,0.2502,-0.6907,-0.2183,
2025-03-10 16:27:00.228,9.7800,-0.8200,0.4000,-1.5625,0.5625,-0.5000,-0.6433,0.2476,-0.6917,-0.2154,
2025-03-10 16:27:00.238,9.8200,-0.8200,0.4100,-0.9375,0.3750,-0.1875,-0.6433,0.2477,-0.6917,-0.2155,
2025-03-10 16:27:00.248,9.8800,-0.7500,0.4600,-0.1250,0.0625,0.3125,-0.6433,0.2477,-0.6916,-0.2155,
2025-03-10 16:27:00.258,9.9000,-0.7000,0.4800,0.8750,-0.4375,0.6250,-0.6433,0.2478,-0.6916,-0.2154,
2025-03-10 16:27:00.278,9.8900,-0.5600,0.5000,1.6250,0.3125,0.6250,-0.6447,0.2441,-0.6929,-0.2114,
2025-03-10 16:27:00.288,9.8400,-0.5700,0.4800,0.6875,0.8750,0.5000,-0.6447,0.2441,-0.6929,-0.2113,
2025-03-10 16:27:00.298,9.8200,-0.6200,0.5100,-0.8750,1.5000,0.4375,-0.6447,0.2440,-0.6930,-0.2112,
2025-03-10 16:27:00.308,9.8200,-0.6900,0.5500,-2.0000,2.3750,0.4375,-0.6445,0.2440,-0.6931,-0.2114,
2025-03-10 16:27:00.328,9.8500,-0.7700,0.4900,-1.0000,2.8750,-0.1250,-0.6451,0.2418,-0.6941,-0.2090,
2025-03-10 16:27:00.348,9.8500,-0.7200,0.4200,-0.5000,1.5000,-0.5625,-0.6448,0.2417,-0.6943,-0.2092,
2025-03-10 16:27:00.368,9.8200,-0.7400,0.4400,-0.5625,0.8750,-0.5000,-0.6446,0.2417,-0.6944,-0.2092,
2025-03-10 16:27:00.378,9.8200,-0.6700,0.5000,1.0625,1.1250,-0.3750,-0.6455,0.2393,-0.6953,-0.2065,
2025-03-10 16:27:00.416,9.7700,-0.6200,0.5400,0.6250,1.1875,-0.1875,-0.6454,0.2391,-0.6955,-0.2065,
2025-03-10 16:27:00.458,9.7500,-0.6100,0.5100,0.1875,1.3750,-0.4375,-0.6453,0.2390,-0.6956,-0.2065,
2025-03-10 16:27:00.458,9.7400,-0.6300,0.4900,-0.0625,1.1875,-0.4375,-0.6462,0.2363,-0.6965,-0.2036,
2025-03-10 16:27:00.458,9.7400,-0.5600,0.4500,-1.0625,0.5000,-0.3750,-0.6461,0.2362,-0.6967,-0.2037,
2025-03-10 16:27:00.458,9.7600,-0.5600,0.4600,-1.1250,0.3750,-0.3750,-0.6461,0.2363,-0.6966,-0.2038,
2025-03-10 16:27:00.479,9.7100,-0.6300,0.5100,-0.3125,0.3125,-0.5625,-0.6469,0.2341,-0.6973,-0.2013,
2025-03-10 16:27:00.498,9.7700,-0.6900,0.5000,-0.0625,0.4375,-0.3750,-0.6469,0.2341,-0.6973,-0.2013,
2025-03-10 16:27:00.518,9.7800,-0.6600,0.5100,-0.5625,0.4375,-0.1875,-0.6469,0.2341,-0.6973,-0.2013,
2025-03-10 16:27:00.528,9.7900,-0.6600,0.4900,-0.3125,0.5000,-0.1875,-0.6478,0.2316,-0.6981,-0.1987,
2025-03-10 16:27:00.568,9.8100,-0.6100,0.4900,1.0625,0.1250,-0.1875,-0.6478,0.2316,-0.6981,-0.1987,
2025-03-10 16:27:00.568,9.8400,-0.6000,0.5500,1.3125,0.0000,-0.4375,-0.6478,0.2314,-0.6981,-0.1985,
2025-03-10 16:27:00.578,9.8300,-0.6100,0.5400,0.1875,0.1875,-0.6875,-0.6485,0.2295,-0.6987,-0.1965,
2025-03-10 16:27:00.598,9.7700,-0.6400,0.5000,-2.4375,0.5625,-0.8125,-0.6485,0.2295,-0.6986,-0.1967,
2025-03-10 16:27:00.618,9.7500,-0.6600,0.4600,-1.3750,0.4375,-0.6250,-0.6485,0.2296,-0.6985,-0.1970,
2025-03-10 16:27:00.628,9.7800,-0.6200,0.4500,0.7500,-0.2500,-0.0625,-0.6493,0.2274,-0.6992,-0.1946,
2025-03-10 16:27:00.648,9.7700,-0.6400,0.4400,-0.2500,0.5000,0.1250,-0.6493,0.2274,-0.6992,-0.1945,
2025-03-10 16:27:00.658,9.7300,-0.5900,0.5400,-0.3125,0.6250,0.0625,-0.6493,0.2273,-0.6992,-0.1945,
2025-03-10 16:27:00.679,9.7600,-0.6000,0.5100,0.2500,-0.1875,-0.1875,-0.6501,0.2249,-0.6999,-0.1919,
2025-03-10 16:27:00.699,9.8500,-0.6200,0.5300,-0.3125,-0.2500,-0.3125,-0.6501,0.2249,-0.6999,-0.1919,
2025-03-10 16:27:00.709,9.8700,-0.6400,0.5100,-0.9375,-0.0625,-0.3750,-0.6501,0.2250,-0.6999,-0.1920,
2025-03-10 16:27:00.759,9.8500,-0.6400,0.5100,-1.8750,0.7500,-0.2500,-0.6502,0.2247,-0.7000,-0.1917,
2025-03-10 16:27:00.759,9.7700,-0.7200,0.4700,-0.5625,0.5625,-0.1875,-0.6500,0.2249,-0.7000,-0.1919,
2025-03-10 16:27:00.759,9.8400,-0.6800,0.5600,-0.0625,0.1875,-0.1875,-0.6500,0.2249,-0.7000,-0.1919,
2025-03-10 16:27:00.779,9.8400,-0.6600,0.5200,0.3750,0.0625,-0.2500,-0.6503,0.2241,-0.7003,-0.1910,
2025-03-10 16:27:00.799,9.8400,-0.5900,0.4500,-1.3750,0.0625,-0.3750,-0.6503,0.2242,-0.7003,-0.1911,
2025-03-10 16:27:00.819,9.7200,-0.6400,0.5200,-0.8125,0.1250,-0.3125,-0.6503,0.2243,-0.7002,-0.1912,
2025-03-10 16:27:00.829,9.7400,-0.6500,0.5300,-0.4375,0.3750,-0.3125,-0.6507,0.2230,-0.7006,-0.1898,
2025-03-10 16:27:00.849,9.7600,-0.7000,0.5300,0.0000,0.4375,-0.4375,-0.6507,0.2230,-0.7006,-0.1898,
2025-03-10 16:27:00.859,9.8000,-0.6400,0.5000,-0.1875,0.2500,-0.1875,-0.6507,0.2230,-0.7006,-0.1898,
2025-03-10 16:27:00.879,9.7900,-0.6400,0.4700,0.0000,-0.0625,0.0000,-0.6510,0.2224,-0.7008,-0.1891,
2025-03-10 16:27:00.901,9.8100,-0.5700,0.4500,0.4375,-0.5000,-0.0625,-0.6510,0.2224,-0.7008,-0.1891,
2025-03-10 16:27:00.912,9.7900,-0.6100,0.5200,0.1250,-0.1875,-0.1875,-0.6509,0.2224,-0.7008,-0.1891,
2025-03-10 16:27:00.930,9.7700,-0.6500,0.5000,-0.6875,0.3125,-0.3750,-0.6510,0.2221,-0.7008,-0.1889,
2025-03-10 16:27:00.950,9.8500,-0.7400,0.5200,-1.0625,0.5625,-0.4375,-0.6510,0.2222,-0.7008,-0.1890,
2025-03-10 16:27:00.970,9.8400,-0.7000,0.5500,-0.8125,-0.1250,-0.2500,-0.6509,0.2223,-0.7008,-0.1891,
2025-03-10 16:27:00.980,9.8200,-0.6500,0.5300,0.1875,-0.4375,-0.1875,-0.6510,0.2221,-0.7009,-0.1888,
2025-03-10 16:27:01.000,9.7600,-0.5700,0.5000,0.8125,-0.0625,-0.3125,-0.6510,0.2220,-0.7009,-0.1887,
2025-03-10 16:27:01.010,9.8000,-0.6300,0.5300,-0.3125,0.3750,-0.7500,-0.6511,0.2219,-0.7009,-0.1888,
2025-03-10 16:27:01.040,9.8100,-0.6500,0.5500,-0.8125,0.5625,-0.6875,-0.6511,0.2219,-0.7009,-0.1888,
2025-03-10 16:27:01.060,9.8300,-0.6300,0.4600,-0.7500,-0.1875,-0.5625,-0.6511,0.2219,-0.7008,-0.1889,
2025-03-10 16:27:01.060,9.8500,-0.6900,0.4900,-1.0000,0.5000,-0.5000,-0.6510,0.2220,-0.7008,-0.1890,
2025-03-10 16:27:01.090,9.8200,-0.6900,0.5500,-0.6875,0.5625,-0.2500,-0.6512,0.2216,-0.7009,-0.1886,
2025-03-10 16:27:01.110,9.7900,-0.5900,0.5500,-0.2500,0.3125,-0.2500,-0.6512,0.2216,-0.7009,-0.1886,
2025-03-10 16:27:01.110,9.8200,-0.4800,0.5400,-0.3750,-0.3125,-0.3125,-0.6512,0.2216,-0.7009,-0.1886,
2025-03-10 16:27:01.130,9.7700,-0.5200,0.4800,-0.5625,-0.1875,-0.5000,-0.6517,0.2201,-0.7013,-0.1869,
2025-03-10 16:27:01.140,9.7300,-0.6600,0.4500,-1.8125,0.8125,-0.5000,-0.6516,0.2202,-0.7013,-0.1871,
2025-03-10 16:27:01.160,9.7100,-0.7500,0.5100,-1.9375,0.5625,-0.1875,-0.6515,0.2204,-0.7013,-0.1874,
2025-03-10 16:27:01.170,9.7600,-0.7200,0.5400,-1.0625,0.3125,-0.1875,-0.6515,0.2204,-0.7013,-0.1874,
2025-03-10 16:27:01.190,9.8200,-0.5900,0.5100,0.2500,-0.4375,0.2500,-0.6515,0.2204,-0.7013,-0.1874,
2025-03-10 16:27:01.210,9.8600,-0.5600,0.5000,0.5625,-0.3125,0.1250,-0.6516,0.2205,-0.7012,-0.1874,
2025-03-10 16:27:01.230,9.8500,-0.5800,0.5300,-0.1250,0.0000,0.0625,-0.6521,0.2190,-0.7017,-0.1858,
2025-03-10 16:27:01.250,9.7600,-0.6500,0.4800,-1.0000,0.7500,-0.3750,-0.6519,0.2191,-0.7017,-0.1859,
2025-03-10 16:27:01.260,9.8300,-0.7000,0.5000,-0.1875,0.4375,-0.3750,-0.6519,0.2191,-0.7017,-0.1860,
2025-03-10 16:27:01.280,9.8500,-0.6500,0.5400,0.5625,-0.0625,-0.1875,-0.6520,0.2188,-0.7018,-0.1857,
2025-03-10 16:27:01.300,9.8500,-0.5400,0.4800,0.2500,-0.1250,-0.1875,-0.6521,0.2188,-0.7018,-0.1856,
2025-03-10 16:27:01.360,9.7800,-0.5900,0.5100,-0.9375,-0.3750,-0.3750,-0.6520,0.2188,-0.7018,-0.1857,
2025-03-10 16:27:01.360,9.7500,-0.5900,0.5100,-1.3125,0.1250,-0.4375,-0.6525,0.2173,-0.7022,-0.1841,
2025-03-10 16:27:01.360,9.7800,-0.6300,0.4700,-1.6875,0.1875,-0.3125,-0.6525,0.2175,-0.7022,-0.1843,
2025-03-10 16:27:01.360,9.7800,-0.6100,0.5200,-1.5000,0.1875,-0.1875,-0.6525,0.2176,-0.7021,-0.1843,
2025-03-10 16:27:01.370,9.8400,-0.5900,0.5200,-0.8125,0.1250,-0.0625,-0.6525,0.2176,-0.7021,-0.1843,
2025-03-10 16:27:01.390,9.8400,-0.6700,0.5200,-1.7500,0.7500,-0.3750,-0.6524,0.2177,-0.7021,-0.1845,
2025-03-10 16:27:01.414,9.8200,-0.7000,0.5100,-1.8125,0.8750,-0.5000,-0.6523,0.2178,-0.7021,-0.1846,
2025-03-10 16:27:01.445,9.8200,-0.7200,0.5400,-0.9375,0.5625,-0.4375,-0.6522,0.2180,-0.7021,-0.1848,
2025-03-10 16:27:01.449,9.8000,-0.6800,0.4500,-0.3125,0.4375,-0.4375,-0.6522,0.2180,-0.7021,-0.1848,
2025-03-10 16:27:01.458,9.7900,-0.6200,0.4900,-0.4375,0.2500,-0.1250,-0.6522,0.2180,-0.7021,-0.1848,
2025-03-10 16:27:01.478,9.8200,-0.6000,0.4800,-0.0625,0.0625,-0.3750,-0.6522,0.2180,-0.7021,-0.1848,
2025-03-10 16:27:01.491,9.8200,-0.6100,0.4900,-0.1875,0.0625,-0.3750,-0.6522,0.2180,-0.7021,-0.1848,
2025-03-10 16:27:01.499,9.8000,-0.5900,0.4900,-0.6250,0.0000,-0.5625,-0.6522,0.2180,-0.7021,-0.1848,
2025-03-10 16:27:01.508,9.8100,-0.6000,0.5300,-1.0625,0.0000,-0.5000,-0.6522,0.2181,-0.7021,-0.1849,
2025-03-10 16:27:01.517,9.7900,-0.6100,0.5600,-1.5000,0.3125,-0.3125,-0.6522,0.2182,-0.7020,-0.1849,
2025-03-10 16:27:01.530,9.7900,-0.6300,0.5600,-1.4375,0.2500,-0.1875,-0.6523,0.2177,-0.7022,-0.1844,
2025-03-10 16:27:01.544,9.8100,-0.6400,0.5700,-0.8125,0.3125,-0.3125,-0.6523,0.2177,-0.7022,-0.1845,
2025-03-10 16:27:01.558,9.7700,-0.6800,0.5100,-0.8125,0.5625,-0.2500,-0.6522,0.2178,-0.7022,-0.1846,
2025-03-10 16:27:01.566,9.7600,-0.6900,0.5100,-1.0000,0.5625,-0.3125,-0.6522,0.2179,-0.7022,-0.1846,
2025-03-10 16:27:01.578,9.7800,-0.6800,0.4900,-0.7500,0.1875,-0.3125,-0.6522,0.2180,-0.7021,-0.1847,
2025-03-10 16:27:01.588,9.8000,-0.6300,0.4800,-0.2500,-0.0625,-0.2500,-0.6522,0.2180,-0.7021,-0.1847,
2025-03-10 16:27:01.598,9.8000,-0.6300,0.5000,-0.1875,-0.1875,-0.3125,-0.6522,0.2180,-0.7021,-0.1847,
2025-03-10 16:27:01.608,9.8000,-0.6200,0.5300,-0.2500,0.2500,-0.1250,-0.6522,0.2180,-0.7021,-0.1847,
2025-03-10 16:27:01.616,9.8200,-0.6500,0.5100,-0.4375,0.2500,-0.3125,-0.6522,0.2180,-0.7021,-0.1847,
2025-03-10 16:27:01.661,9.7700,-0.6500,0.5100,-0.3750,0.3750,-0.5000,-0.6526,0.2167,-0.7025,-0.1833,
2025-03-10 16:27:01.664,9.7800,-0.6900,0.4800,-0.4375,0.1875,-0.3750,-0.6526,0.2167,-0.7025,-0.1833,
2025-03-10 16:27:01.664,9.7900,-0.6900,0.5000,-0.1250,0.3125,-0.3750,-0.6526,0.2167,-0.7025,-0.1833,
2025-03-10 16:27:01.664,9.8700,-0.6500,0.5600,0.1250,0.1875,-0.4375,-0.6526,0.2167,-0.7025,-0.1833,
2025-03-10 16:27:01.666,9.8800,-0.6400,0.5500,0.7500,-0.1875,-0.3125,-0.6527,0.2166,-0.7025,-0.1832,
2025-03-10 16:27:01.678,9.8600,-0.6300,0.5400,0.6875,-0.0625,-0.3125,-0.6526,0.2167,-0.7025,-0.1833,
2025-03-10 16:27:01.687,9.8300,-0.6200,0.5200,0.1250,0.4375,-0.3750,-0.6526,0.2167,-0.7025,-0.1833,
2025-03-10 16:27:01.703,9.7300,-0.6600,0.5000,-0.5000,0.9375,-0.6250,-0.6526,0.2167,-0.7025,-0.1834,
2025-03-10 16:27:01.711,9.7300,-0.6600,0.5000,-0.3750,1.0000,-0.4375,-0.6525,0.2167,-0.7026,-0.1835,
2025-03-10 16:27:01.719,9.7100,-0.6400,0.5000,0.3750,0.5625,-0.5625,-0.6525,0.2167,-0.7026,-0.1835,
2025-03-10 16:27:01.727,9.7300,-0.6200,0.5200,0.9375,0.0625,-0.2500,-0.6527,0.2162,-0.7027,-0.1830,
2025-03-10 16:27:01.740,9.8700,-0.5900,0.5800,0.9375,0.0625,-0.2500,-0.6527,0.2161,-0.7028,-0.1829,
2025-03-10 16:27:01.748,9.9100,-0.5700,0.5000,0.8750,-0.0625,-0.2500,-0.6527,0.2161,-0.7028,-0.1829,
2025-03-10 16:27:01.758,9.9100,-0.5400,0.5100,0.2500,0.3125,-0.3750,-0.6527,0.2161,-0.7028,-0.1829,
2025-03-10 16:27:01.767,9.8400,-0.5600,0.4800,-0.8750,0.7500,-0.3125,-0.6527,0.2161,-0.7028,-0.1829,
