A1,,,,,,,,,,,
time,accx,accy,accz,gyrox,gyroy,gyroz,w1,w2,w3,w4,
2025-03-08 19:17:17.971,9.5800,-1.1500,0.1500,-3.5000,1.6250,0.1250,-0.6491,0.2698,-0.6814,-0.2038,
2025-03-08 19:17:17.985,9.6200,-1.3000,0.1500,-3.2500,0.8125,0.1875,-0.6490,0.2700,-0.6814,-0.2040,
2025-03-08 19:17:17.996,9.6300,-1.3400,0.1400,-1.5625,0.1875,0.3750,-0.6490,0.2701,-0.6813,-0.2041,
2025-03-08 19:17:18.009,9.6400,-1.0900,0.1800,2.1875,-1.1875,0.5000,-0.6491,0.2700,-0.6813,-0.2039,
2025-03-08 19:17:18.025,9.6300,-1.0100,0.1500,3.0000,-1.1875,0.4375,-0.6492,0.2698,-0.6813,-0.2037,
2025-03-08 19:17:18.031,9.5900,-0.9700,0.1000,3.1250,-1.1250,0.3750,-0.6493,0.2697,-0.6813,-0.2035,
2025-03-08 19:17:18.064,9.5700,-1.0700,0.1200,2.0625,-0.9375,0.2500,-0.6494,0.2696,-0.6813,-0.2034,
2025-03-08 19:17:18.064,9.5800,-1.1300,0.1300,0.7500,-0.8750,0.0625,-0.6495,0.2695,-0.6813,-0.2033,
2025-03-08 19:17:18.064,9.5700,-1.2100,0.1300,0.5000,-0.8125,0.0000,-0.6495,0.2696,-0.6813,-0.2033,
2025-03-08 19:17:18.069,9.5800,-1.2800,0.1600,1.4375,-1.2500,-0.1250,-0.6496,0.2696,-0.6813,-0.2031,
2025-03-08 19:17:18.083,9.6700,-1.2100,0.1100,2.6250,-2.4375,-0.1875,-0.6497,0.2695,-0.6812,-0.2029,
2025-03-08 19:17:18.089,9.7500,-1.1900,0.1400,4.0000,-3.5000,-0.1875,-0.6500,0.2694,-0.6811,-0.2025,
2025-03-08 19:17:18.099,9.8200,-1.1100,0.1300,5.2500,-3.9375,-0.1250,-0.6503,0.2692,-0.6811,-0.2021,
2025-03-08 19:17:18.112,9.7700,-1.0700,0.1200,6.0625,-3.2500,0.0000,-0.6506,0.2689,-0.6810,-0.2017,
2025-03-08 19:17:18.117,9.7100,-1.0700,0.1100,6.5000,-2.3125,0.0000,-0.6508,0.2686,-0.6810,-0.2012,
2025-03-08 19:17:18.133,9.6500,-1.1000,0.1300,6.7500,-1.6250,0.0000,-0.6510,0.2682,-0.6811,-0.2009,
2025-03-08 19:17:18.147,9.5600,-1.1400,0.0800,7.5625,-2.1250,0.0625,-0.6513,0.2678,-0.6812,-0.2004,
2025-03-08 19:17:18.148,9.5200,-1.0700,0.0800,8.6250,-3.3125,0.1875,-0.6516,0.2674,-0.6812,-0.1998,
2025-03-08 19:17:18.157,9.5800,-0.9800,0.0300,9.1875,-3.8125,-0.0625,-0.6520,0.2669,-0.6812,-0.1992,
2025-03-08 19:17:18.171,9.6100,-0.9100,0.0000,9.0625,-3.8750,-0.1875,-0.6524,0.2665,-0.6812,-0.1986,
2025-03-08 19:17:18.179,9.6200,-0.8500,-0.0600,8.5625,-3.1875,-0.6875,-0.6527,0.2660,-0.6812,-0.1981,
2025-03-08 19:17:18.189,9.5200,-0.8700,-0.0400,7.7500,-2.3125,-1.0000,-0.6530,0.2655,-0.6812,-0.1977,
2025-03-08 19:17:18.197,9.5000,-0.9200,-0.0500,6.6250,-2.1875,-1.0000,-0.6532,0.2651,-0.6812,-0.1973,
2025-03-08 19:17:18.208,9.5300,-0.9900,-0.0500,5.8125,-2.6875,-0.6875,-0.6536,0.2648,-0.6811,-0.1970,
2025-03-08 19:17:18.220,9.6900,-1.0300,-0.0300,6.0625,-3.6250,-0.5625,-0.6539,0.2645,-0.6811,-0.1966,
2025-03-08 19:17:18.233,9.8000,-0.9400,-0.0700,6.8125,-4.3750,-0.5000,-0.6542,0.2642,-0.6810,-0.1961,
2025-03-08 19:17:18.240,9.9100,-0.8700,-0.0600,7.3750,-4.8750,-0.3750,-0.6547,0.2639,-0.6808,-0.1956,
2025-03-08 19:17:18.252,9.9900,-0.7200,-0.0900,7.8750,-4.8125,-0.2500,-0.6551,0.2634,-0.6807,-0.1951,
2025-03-08 19:17:18.261,9.9400,-0.6100,-0.1600,7.5625,-4.0625,0.0625,-0.6555,0.2631,-0.6807,-0.1945,
2025-03-08 19:17:18.272,9.8600,-0.6000,-0.1600,6.1250,-2.8125,0.2500,-0.6557,0.2628,-0.6807,-0.1942,
2025-03-08 19:17:18.280,9.7600,-0.6200,-0.1400,3.8125,-1.1875,0.6250,-0.6558,0.2626,-0.6807,-0.1938,
2025-03-08 19:17:18.364,9.6700,-0.7400,-0.0400,1.6875,-0.1250,0.8125,-0.6558,0.2626,-0.6807,-0.1937,
2025-03-08 19:17:18.364,9.7200,-0.7900,0.0000,0.3125,-0.1250,0.8125,-0.6558,0.2626,-0.6808,-0.1937,
2025-03-08 19:17:18.364,9.7800,-0.8700,-0.0100,-0.7500,-0.5000,0.8125,-0.6558,0.2626,-0.6807,-0.1937,
2025-03-08 19:17:18.364,9.8200,-0.9100,-0.0700,-1.6875,-0.7500,0.5625,-0.6559,0.2627,-0.6806,-0.1938,
2025-03-08 19:17:18.367,9.7700,-0.9500,-0.1400,-2.0625,-0.7500,0.1875,-0.6559,0.2628,-0.6805,-0.1940,
2025-03-08 19:17:18.367,9.6900,-1.0100,-0.1100,-1.6875,0.1875,-0.1875,-0.6559,0.2629,-0.6805,-0.1940,
2025-03-08 19:17:18.368,9.5900,-1.0500,-0.0400,-0.8750,0.6250,-0.0625,-0.6558,0.2630,-0.6805,-0.1941,
2025-03-08 19:17:18.368,9.5800,-1.0900,-0.0600,0.3750,0.7500,0.3750,-0.6558,0.2630,-0.6805,-0.1941,
2025-03-08 19:17:18.373,9.6500,-1.0500,-0.0500,1.5000,0.2500,0.7500,-0.6558,0.2629,-0.6805,-0.1940,
2025-03-08 19:17:18.383,9.7100,-1.0000,-0.1300,2.1875,-0.6875,1.2500,-0.6559,0.2629,-0.6805,-0.1938,
2025-03-08 19:17:18.388,9.7700,-0.8900,-0.1800,2.2500,-1.3125,1.5625,-0.6560,0.2629,-0.6805,-0.1935,
2025-03-08 19:17:18.397,9.8300,-0.6800,-0.2300,1.8125,-2.0000,1.9375,-0.6562,0.2629,-0.6804,-0.1933,
2025-03-08 19:17:18.407,9.7700,-0.6400,-0.2100,0.9375,-1.9375,1.8750,-0.6563,0.2630,-0.6804,-0.1931,
2025-03-08 19:17:18.421,9.6900,-0.6100,-0.1900,-0.1875,-1.0000,2.0625,-0.6562,0.2631,-0.6804,-0.1929,
2025-03-08 19:17:18.429,9.5900,-0.6900,-0.0900,-1.6875,-0.1875,2.1250,-0.6562,0.2633,-0.6804,-0.1929,
2025-03-08 19:17:18.443,9.6200,-0.7800,-0.0700,-3.4375,0.5000,2.3750,-0.6561,0.2637,-0.6803,-0.1930,
2025-03-08 19:17:18.447,9.6700,-0.8300,-0.1200,-4.8125,0.6250,2.5000,-0.6559,0.2641,-0.6803,-0.1931,
2025-03-08 19:17:18.458,9.7700,-0.8500,-0.1400,-5.6250,0.5625,2.1875,-0.6558,0.2645,-0.6801,-0.1934,
2025-03-08 19:17:18.468,9.8600,-0.8700,-0.2100,-6.6250,0.1875,1.8750,-0.6558,0.2649,-0.6799,-0.1937,
2025-03-08 19:17:18.478,9.8500,-0.9100,-0.2400,-7.4375,0.1875,1.4375,-0.6556,0.2654,-0.6797,-0.1940,
2025-03-08 19:17:18.488,9.7800,-0.9700,-0.2200,-7.5000,0.6875,1.0000,-0.6555,0.2659,-0.6796,-0.1944,
2025-03-08 19:17:18.497,9.7100,-1.0400,-0.1500,-7.0000,0.8750,0.8125,-0.6554,0.2663,-0.6794,-0.1948,
2025-03-08 19:17:18.508,9.6400,-1.1100,-0.0700,-6.3750,0.8125,0.9375,-0.6552,0.2667,-0.6793,-0.1951,
2025-03-08 19:17:18.517,9.6700,-1.0700,-0.0400,-5.9375,0.2500,1.1875,-0.6551,0.2672,-0.6792,-0.1953,
2025-03-08 19:17:18.527,9.7000,-1.0000,-0.0200,-5.0625,-0.3750,1.5000,-0.6550,0.2675,-0.6791,-0.1956,
2025-03-08 19:17:18.537,9.7600,-0.8500,-0.0600,-4.8750,-1.1250,1.4375,-0.6550,0.2679,-0.6789,-0.1957,
2025-03-08 19:17:18.547,9.7100,-0.8100,-0.0900,-5.0625,-1.1875,1.3125,-0.6549,0.2682,-0.6788,-0.1959,
2025-03-08 19:17:18.557,9.6300,-0.8100,-0.0700,-5.6875,-0.1250,0.6250,-0.6549,0.2686,-0.6786,-0.1962,
2025-03-08 19:17:18.567,9.5100,-0.8700,-0.0500,-6.6250,0.6250,0.5625,-0.6547,0.2689,-0.6785,-0.1967,
2025-03-08 19:17:18.577,9.4700,-1.0200,-0.0700,-8.1875,0.9375,0.5625,-0.6545,0.2693,-0.6783,-0.1971,
2025-03-08 19:17:18.587,9.5100,-1.0400,-0.0700,-8.8125,0.1250,0.6875,-0.6544,0.2699,-0.6781,-0.1976,
2025-03-08 19:17:18.597,9.5700,-1.0500,-0.0900,-9.3750,-0.6250,0.8750,-0.6543,0.2705,-0.6779,-0.1981,
2025-03-08 19:17:18.608,9.6500,-0.9100,-0.0800,-10.3750,-1.8750,0.6875,-0.6542,0.2712,-0.6776,-0.1985,
2025-03-08 19:17:18.619,9.7100,-0.9000,-0.1200,-11.0625,-2.8750,0.4375,-0.6542,0.2719,-0.6771,-0.1991,
2025-03-08 19:17:18.627,9.6700,-0.8900,-0.0900,-11.3750,-2.6250,-0.1250,-0.6542,0.2725,-0.6767,-0.1997,
2025-03-08 19:17:18.650,9.5900,-1.0500,-0.0300,-11.0625,-1.5625,-0.8750,-0.6541,0.2731,-0.6763,-0.2003,
2025-03-08 19:17:18.653,9.5400,-1.2600,0.0500,-11.1875,-0.5000,-0.8125,-0.6539,0.2737,-0.6761,-0.2010,
2025-03-08 19:17:18.659,9.6100,-1.3400,0.0700,-10.3125,-0.3750,-0.3750,-0.6537,0.2743,-0.6758,-0.2015,
2025-03-08 19:17:18.667,9.6900,-1.3800,0.0400,-8.3750,-1.0625,0.3125,-0.6537,0.2748,-0.6756,-0.2020,
2025-03-08 19:17:18.688,9.8500,-1.2700,-0.0300,-6.3125,-2.2500,0.5000,-0.6537,0.2752,-0.6753,-0.2023,
2025-03-08 19:17:18.688,9.9300,-1.1600,0.0000,-4.5625,-3.8750,0.8750,-0.6538,0.2756,-0.6750,-0.2024,
2025-03-08 19:17:18.697,10.0200,-0.9700,-0.0100,-2.9375,-4.6875,0.9375,-0.6540,0.2759,-0.6747,-0.2024,
2025-03-08 19:17:18.714,10.0100,-0.8300,-0.0600,-1.4375,-5.1250,1.0000,-0.6542,0.2761,-0.6744,-0.2023,
2025-03-08 19:17:18.721,9.8600,-0.6500,-0.1300,-1.3125,-4.2500,1.0625,-0.6544,0.2763,-0.6741,-0.2022,
2025-03-08 19:17:18.728,9.7800,-0.6400,-0.1300,-3.2500,-2.4375,0.8125,-0.6545,0.2766,-0.6739,-0.2023,
2025-03-08 19:17:18.737,9.7000,-0.6800,-0.0900,-6.0625,-0.5625,0.6250,-0.6544,0.2770,-0.6738,-0.2026,
2025-03-08 19:17:18.748,9.6300,-0.8700,-0.0300,-8.5625,0.8750,0.7500,-0.6542,0.2775,-0.6737,-0.2031,
2025-03-08 19:17:18.758,9.6300,-1.0200,-0.0400,-9.8750,1.3125,1.0625,-0.6539,0.2781,-0.6735,-0.2036,
2025-03-08 19:17:18.767,9.6500,-1.1500,-0.0200,-10.6875,1.5625,1.5625,-0.6536,0.2788,-0.6734,-0.2041,
2025-03-08 19:17:18.777,9.6700,-1.2800,-0.0500,-10.5625,1.2500,2.0625,-0.6533,0.2795,-0.6732,-0.2046,
2025-03-08 19:17:18.788,9.6600,-1.4600,-0.0100,-9.8750,1.3125,1.6250,-0.6530,0.2801,-0.6731,-0.2051,
2025-03-08 19:17:18.798,9.5900,-1.5000,0.0100,-8.4375,1.6250,0.7500,-0.6527,0.2806,-0.6730,-0.2056,
2025-03-08 19:17:18.807,9.5500,-1.5600,0.0400,-6.5625,1.4375,0.3125,-0.6525,0.2810,-0.6729,-0.2059,
2025-03-08 19:17:18.823,9.5300,-1.5800,0.0100,-3.8125,0.5000,0.0000,-0.6525,0.2811,-0.6729,-0.2062,
2025-03-08 19:17:18.828,9.5100,-1.5800,-0.0500,-0.7500,-0.3750,-0.5625,-0.6525,0.2812,-0.6728,-0.2062,
2025-03-08 19:17:18.837,9.5000,-1.5400,-0.0800,2.6250,-1.7500,-1.0625,-0.6526,0.2810,-0.6728,-0.2061,
2025-03-08 19:17:18.847,9.5000,-1.4400,-0.0900,5.5000,-3.1250,-1.3750,-0.6529,0.2807,-0.6727,-0.2057,
2025-03-08 19:17:18.858,9.6000,-1.1700,-0.0600,7.1250,-4.3750,-1.2500,-0.6533,0.2804,-0.6726,-0.2053,
2025-03-08 19:17:18.868,9.6700,-1.0500,-0.0600,8.1250,-5.3125,-0.8125,-0.6537,0.2800,-0.6725,-0.2047,
2025-03-08 19:17:18.877,9.7400,-0.9200,-0.1100,8.3750,-5.5000,-0.5625,-0.6542,0.2796,-0.6724,-0.2041,
2025-03-08 19:17:18.887,9.7800,-0.8600,-0.1600,7.3125,-4.6875,-0.2500,-0.6546,0.2792,-0.6724,-0.2036,
2025-03-08 19:17:18.896,9.8100,-0.8300,-0.1500,6.1250,-3.3125,-0.3125,-0.6549,0.2790,-0.6723,-0.2032,
2025-03-08 19:17:18.907,9.7400,-0.8600,-0.1700,4.6250,-2.0000,-0.5625,-0.6551,0.2787,-0.6723,-0.2029,
2025-03-08 19:17:18.926,9.6900,-0.9500,-0.1800,3.5000,-1.5000,-0.5625,-0.6553,0.2786,-0.6723,-0.2026,
2025-03-08 19:17:18.927,9.7100,-1.0500,-0.2200,3.0625,-1.5625,-0.1250,-0.6554,0.2784,-0.6723,-0.2024,
2025-03-08 19:17:18.948,9.7100,-1.0800,-0.2000,2.8750,-1.8750,0.3125,-0.6556,0.2783,-0.6722,-0.2022,
2025-03-08 19:17:18.955,9.7200,-1.1200,-0.1200,3.1875,-2.3125,0.5625,-0.6558,0.2781,-0.6722,-0.2020,
2025-03-08 19:17:18.958,9.7400,-1.0900,-0.0900,3.8125,-2.6875,0.6250,-0.6560,0.2780,-0.6721,-0.2017,
2025-03-08 19:17:18.967,9.7300,-1.0900,-0.0900,4.3125,-2.6875,0.9375,-0.6561,0.2778,-0.6721,-0.2013,
2025-03-08 19:17:18.977,9.6900,-1.0500,-0.1100,4.7500,-2.3750,1.1875,-0.6563,0.2777,-0.6721,-0.2009,
2025-03-08 19:17:18.989,9.6800,-1.0300,-0.1200,4.8750,-2.1875,1.3750,-0.6565,0.2775,-0.6721,-0.2005,
2025-03-08 19:17:18.997,9.7400,-1.0000,-0.1700,5.0625,-2.0000,1.8125,-0.6567,0.2773,-0.6722,-0.2001,
2025-03-08 19:17:19.007,9.7400,-0.9800,-0.1500,5.5625,-1.6875,2.1250,-0.6568,0.2772,-0.6723,-0.1996,
2025-03-08 19:17:19.017,9.7400,-0.9300,-0.1800,5.7500,-1.1875,2.5000,-0.6569,0.2770,-0.6724,-0.1992,
2025-03-08 19:17:19.031,9.7300,-0.9200,-0.2100,5.1250,-1.0625,2.6875,-0.6570,0.2769,-0.6724,-0.1987,
2025-03-08 19:17:19.037,9.7600,-0.9100,-0.2200,3.9375,-0.8125,2.5625,-0.6571,0.2768,-0.6725,-0.1984,
2025-03-08 19:17:19.047,9.7600,-0.9900,-0.1500,2.9375,-0.3125,2.3125,-0.6571,0.2767,-0.6726,-0.1981,
2025-03-08 19:17:19.060,9.7500,-1.0400,-0.1500,2.4375,0.3125,2.1250,-0.6571,0.2767,-0.6726,-0.1981,
2025-03-08 19:17:19.071,9.7100,-1.1000,-0.1100,2.3750,0.6875,2.0625,-0.6571,0.2767,-0.6727,-0.1978,
2025-03-08 19:17:19.078,9.6500,-1.1200,-0.1500,2.5000,0.5625,2.0000,-0.6571,0.2766,-0.6729,-0.1973,
2025-03-08 19:17:19.089,9.6500,-1.1300,-0.1900,3.0000,0.1250,2.0625,-0.6570,0.2765,-0.6730,-0.1971,
2025-03-08 19:17:19.098,9.6400,-1.0900,-0.2300,4.2500,-0.5000,2.2500,-0.6571,0.2764,-0.6732,-0.1967,
2025-03-08 19:17:19.108,9.6800,-1.0000,-0.2700,4.7500,-0.8125,2.5000,-0.6571,0.2764,-0.6732,-0.1967,
2025-03-08 19:17:19.118,9.7100,-0.9400,-0.2600,4.4375,-0.8750,2.5625,-0.6572,0.2763,-0.6733,-0.1963,
2025-03-08 19:17:19.132,9.7300,-0.9300,-0.2400,3.5625,-0.6250,2.5625,-0.6573,0.2761,-0.6734,-0.1955,
2025-03-08 19:17:19.137,9.7700,-0.9300,-0.3000,2.3125,-0.3125,2.6250,-0.6573,0.2761,-0.6735,-0.1953,
2025-03-08 19:17:19.148,9.7700,-0.9900,-0.2200,0.5000,0.0000,2.2500,-0.6573,0.2762,-0.6735,-0.1952,
2025-03-08 19:17:19.157,9.7500,-1.0200,-0.1700,-0.8125,0.2500,2.1250,-0.6572,0.2764,-0.6735,-0.1951,
2025-03-08 19:17:19.171,9.7300,-1.0200,-0.1300,-1.1250,0.0000,2.0000,-0.6572,0.2766,-0.6735,-0.1951,
2025-03-08 19:17:19.178,9.6700,-1.0500,-0.1400,-0.7500,-0.1250,1.9375,-0.6571,0.2767,-0.6735,-0.1950,
2025-03-08 19:17:19.191,9.6500,-1.0600,-0.1200,-0.1250,-0.0625,1.8125,-0.6571,0.2767,-0.6735,-0.1950,
2025-03-08 19:17:19.198,9.6400,-1.0600,-0.1100,0.3125,0.1250,1.8750,-0.6571,0.2767,-0.6735,-0.1949,
2025-03-08 19:17:19.208,9.6400,-1.0400,-0.1700,0.5625,0.5000,1.9375,-0.6570,0.2769,-0.6736,-0.1948,
2025-03-08 19:17:19.218,9.6900,-1.0900,-0.1800,0.3125,0.9375,2.1250,-0.6570,0.2770,-0.6736,-0.1948,
2025-03-08 19:17:19.232,9.7200,-1.0600,-0.2100,-0.3750,1.3125,2.0625,-0.6569,0.2770,-0.6737,-0.1946,
2025-03-08 19:17:19.253,9.7300,-1.1100,-0.1800,-1.0000,1.3125,2.0625,-0.6568,0.2772,-0.6738,-0.1946,
2025-03-08 19:17:19.254,9.7400,-1.1700,-0.1200,-1.5625,1.0000,2.0625,-0.6566,0.2773,-0.6739,-0.1945,
2025-03-08 19:17:19.257,9.7000,-1.1700,-0.1000,-1.5000,0.5625,2.0625,-0.6565,0.2775,-0.6739,-0.1945,
2025-03-08 19:17:19.268,9.7100,-1.1600,-0.1200,-1.3125,0.1250,1.7500,-0.6564,0.2777,-0.6739,-0.1945,
2025-03-08 19:17:19.278,9.6500,-1.1400,-0.1000,-0.8125,-0.0625,1.7500,-0.6564,0.2778,-0.6739,-0.1945,
2025-03-08 19:17:19.288,9.6100,-1.2100,-0.1200,-0.0625,-0.2500,1.4375,-0.6563,0.2780,-0.6739,-0.1944,
2025-03-08 19:17:19.298,9.5900,-1.2300,-0.1600,0.3750,-0.2500,1.2500,-0.6563,0.2781,-0.6739,-0.1943,
2025-03-08 19:17:19.307,9.6000,-1.2100,-0.2100,0.9375,-0.1875,1.3750,-0.6563,0.2781,-0.6740,-0.1943,
2025-03-08 19:17:19.317,9.6400,-1.2000,-0.2100,0.7500,0.1250,1.5000,-0.6562,0.2781,-0.6740,-0.1942,
2025-03-08 19:17:19.329,9.6800,-1.1500,-0.1900,0.6250,0.0000,1.3750,-0.6562,0.2782,-0.6741,-0.1940,
2025-03-08 19:17:19.338,9.7000,-1.1100,-0.2000,0.8125,-0.4375,1.3125,-0.6562,0.2783,-0.6741,-0.1939,
2025-03-08 19:17:19.348,9.7100,-1.0800,-0.1800,0.3750,-0.6875,1.1875,-0.6562,0.2783,-0.6741,-0.1938,
2025-03-08 19:17:19.358,9.7000,-1.1500,-0.1100,0.0625,-0.8125,1.0625,-0.6562,0.2783,-0.6741,-0.1937,
2025-03-08 19:17:19.367,9.6400,-1.1900,-0.1200,0.0000,-0.5625,0.9375,-0.6562,0.2784,-0.6741,-0.1936,
2025-03-08 19:17:19.379,9.5800,-1.1900,-0.1200,0.5625,-0.1875,1.0000,-0.6562,0.2784,-0.6741,-0.1935,
2025-03-08 19:17:19.388,9.5800,-1.2200,-0.1200,1.1875,-0.2500,1.1875,-0.6562,0.2785,-0.6741,-0.1935,
2025-03-08 19:17:19.404,9.6600,-1.2500,-0.1700,1.8125,-0.4375,1.0000,-0.6562,0.2785,-0.6741,-0.1934,
2025-03-08 19:17:19.407,9.7300,-1.2100,-0.1900,2.1250,-1.0625,0.8750,-0.6562,0.2785,-0.6742,-0.1932,
2025-03-08 19:17:19.417,9.7600,-1.1800,-0.1900,2.0625,-1.2500,0.8750,-0.6562,0.2784,-0.6742,-0.1930,
2025-03-08 19:17:19.435,9.7700,-1.0800,-0.2000,1.5625,-0.9375,0.8125,-0.6563,0.2784,-0.6742,-0.1928,
2025-03-08 19:17:19.438,9.7300,-1.1000,-0.1500,1.1875,-0.5000,0.5000,-0.6564,0.2783,-0.6742,-0.1926,
2025-03-08 19:17:19.448,9.7000,-1.1300,-0.1500,1.7500,-0.3750,0.3125,-0.6564,0.2783,-0.6742,-0.1926,
2025-03-08 19:17:19.457,9.7000,-1.1300,-0.1500,1.8125,-0.1875,0.5000,-0.6565,0.2781,-0.6743,-0.1925,
2025-03-08 19:17:19.468,9.6600,-1.1500,-0.1700,1.6875,-0.1250,0.4375,-0.6565,0.2781,-0.6743,-0.1924,
2025-03-08 19:17:19.480,9.6600,-1.2200,-0.2000,1.5625,-0.3750,0.5625,-0.6565,0.2780,-0.6744,-0.1923,
2025-03-08 19:17:19.493,9.6800,-1.1800,-0.2000,1.8750,-0.3125,0.7500,-0.6566,0.2779,-0.6744,-0.1922,
2025-03-08 19:17:19.499,9.7400,-1.0600,-0.2100,1.7500,-0.3125,0.6875,-0.6565,0.2778,-0.6744,-0.1921,
2025-03-08 19:17:19.509,9.7700,-1.0200,-0.2100,1.1875,-0.4375,0.6875,-0.6566,0.2777,-0.6745,-0.1920,
2025-03-08 19:17:19.522,9.7000,-1.0100,-0.2100,0.5625,-0.3750,0.5000,-0.6566,0.2777,-0.6745,-0.1918,
2025-03-08 19:17:19.531,9.6700,-1.0600,-0.2200,0.0625,0.0625,0.3750,-0.6566,0.2776,-0.6745,-0.1919,
2025-03-08 19:17:19.550,9.5600,-1.1800,-0.1700,-0.3125,0.3125,0.3125,-0.6566,0.2776,-0.6745,-0.1919,
2025-03-08 19:17:19.552,9.5600,-1.2400,-0.1500,-0.4375,0.6875,0.2500,-0.6566,0.2776,-0.6745,-0.1919,
2025-03-08 19:17:19.557,9.5700,-1.2500,-0.1600,-0.2500,0.5625,0.1250,-0.6566,0.2777,-0.6745,-0.1919,
2025-03-08 19:17:19.568,9.6700,-1.2400,-0.1800,-0.1250,0.3125,0.2500,-0.6566,0.2777,-0.6745,-0.1919,
2025-03-08 19:17:19.582,9.7100,-1.2100,-0.2400,0.3125,-0.5000,0.2500,-0.6566,0.2777,-0.6745,-0.1919,
2025-03-08 19:17:19.589,9.7400,-1.1600,-0.2100,0.3125,-0.8750,0.1875,-0.6566,0.2777,-0.6745,-0.1919,
2025-03-08 19:17:19.601,9.7400,-1.1200,-0.1800,0.6875,-0.9375,0.3750,-0.6566,0.2776,-0.6745,-0.1919,
2025-03-08 19:17:19.620,9.7100,-1.0700,-0.2100,0.5625,-1.0625,0.3750,-0.6567,0.2777,-0.6744,-0.1918,
2025-03-08 19:17:19.620,9.6900,-1.1200,-0.1900,0.0000,-0.7500,0.1875,-0.6568,0.2776,-0.6744,-0.1918,
2025-03-08 19:17:19.630,9.6700,-1.1600,-0.1800,-0.9375,-0.4375,0.1250,-0.6568,0.2777,-0.6743,-0.1918,
2025-03-08 19:17:19.652,9.6600,-1.2400,-0.1200,-1.3750,-0.3125,0.1875,-0.6568,0.2777,-0.6743,-0.1918,
2025-03-08 19:17:19.655,9.7000,-1.2800,-0.1100,-1.1875,0.0000,0.3750,-0.6568,0.2778,-0.6743,-0.1920,
2025-03-08 19:17:19.658,9.7200,-1.2600,-0.1300,-0.6875,0.0000,0.5625,-0.6567,0.2778,-0.6743,-0.1920,
2025-03-08 19:17:19.685,9.7400,-1.2100,-0.1400,0.3125,-0.0625,0.6250,-0.6568,0.2779,-0.6742,-0.1920,
2025-03-08 19:17:19.685,9.7100,-1.0900,-0.2000,1.1875,-0.1875,0.5000,-0.6567,0.2779,-0.6742,-0.1920,
2025-03-08 19:17:19.689,9.6500,-1.0900,-0.2200,1.5625,-0.1875,0.4375,-0.6568,0.2778,-0.6743,-0.1920,
2025-03-08 19:17:19.704,9.6200,-1.1200,-0.2200,1.4375,-0.0625,0.3125,-0.6568,0.2778,-0.6743,-0.1918,
2025-03-08 19:17:19.708,9.6200,-1.1200,-0.2200,0.8750,0.2500,0.1250,-0.6568,0.2777,-0.6743,-0.1918,
2025-03-08 19:17:19.719,9.5400,-1.2800,-0.1500,0.6250,0.5000,0.3750,-0.6569,0.2776,-0.6743,-0.1917,
2025-03-08 19:17:19.733,9.5700,-1.2800,-0.1200,0.4375,0.4375,0.6875,-0.6568,0.2776,-0.6744,-0.1917,
2025-03-08 19:17:19.739,9.6100,-1.2400,-0.1300,0.8125,0.0000,0.8125,-0.6568,0.2777,-0.6744,-0.1917,
2025-03-08 19:17:19.749,9.7300,-1.1200,-0.1600,1.0000,-0.6250,0.8125,-0.6568,0.2777,-0.6744,-0.1915,
2025-03-08 19:17:19.763,9.7300,-1.1200,-0.1600,1.0000,-0.6875,0.8125,-0.6569,0.2777,-0.6744,-0.1914,
2025-03-08 19:17:19.769,9.7100,-1.0900,-0.2200,1.1875,-0.6250,0.5625,-0.6569,0.2777,-0.6744,-0.1913,
2025-03-08 19:17:19.779,9.6500,-1.1200,-0.2600,1.0625,-0.3125,0.5000,-0.6569,0.2776,-0.6744,-0.1912,
2025-03-08 19:17:19.796,9.6300,-1.1900,-0.1900,0.7500,-0.0625,0.3125,-0.6570,0.2775,-0.6744,-0.1912,
2025-03-08 19:17:19.799,9.6200,-1.2100,-0.1500,0.5625,-0.3125,0.5625,-0.6570,0.2775,-0.6744,-0.1912,
2025-03-08 19:17:19.809,9.6200,-1.2100,-0.1500,0.3125,-0.4375,0.7500,-0.6570,0.2775,-0.6744,-0.1912,
2025-03-08 19:17:19.822,9.7600,-1.1000,-0.1700,0.1250,-0.6875,0.8750,-0.6570,0.2775,-0.6744,-0.1911,
2025-03-08 19:17:19.829,9.7800,-1.0400,-0.2300,-0.1875,-0.8125,0.6875,-0.6570,0.2775,-0.6744,-0.1910,
2025-03-08 19:17:19.851,9.7800,-1.0400,-0.1900,-0.1250,-0.8750,0.7500,-0.6570,0.2776,-0.6744,-0.1910,
2025-03-08 19:17:19.851,9.7600,-1.0300,-0.2200,-0.8750,-0.7500,0.6875,-0.6571,0.2776,-0.6743,-0.1910,
2025-03-08 19:17:19.857,9.7600,-1.0300,-0.2200,-0.8750,-0.7500,0.6875,-0.6571,0.2777,-0.6743,-0.1910,
2025-03-08 19:17:19.868,9.6600,-1.1200,-0.2200,-1.6250,-0.4375,0.6875,-0.6571,0.2778,-0.6742,-0.1910,
2025-03-08 19:17:19.889,9.6200,-1.2100,-0.1900,-3.1250,0.3750,0.7500,-0.6570,0.2780,-0.6741,-0.1912,
2025-03-08 19:17:19.890,9.6000,-1.2500,-0.1900,-3.1250,0.3125,0.8125,-0.6570,0.2782,-0.6741,-0.1913,
2025-03-08 19:17:19.899,9.6200,-1.2700,-0.1400,-2.8750,0.1250,0.7500,-0.6569,0.2784,-0.6740,-0.1914,
2025-03-08 19:17:19.912,9.6700,-1.2700,-0.1800,-2.8750,0.1250,0.7500,-0.6569,0.2786,-0.6740,-0.1915,
2025-03-08 19:17:19.917,9.6900,-1.2500,-0.1700,-2.3125,-0.3125,0.9375,-0.6568,0.2788,-0.6739,-0.1916,
2025-03-08 19:17:19.929,9.6900,-1.2100,-0.1800,-1.0625,-0.6250,0.8125,-0.6567,0.2790,-0.6739,-0.1917,
2025-03-08 19:17:19.947,9.6800,-1.1300,-0.2300,-0.8125,-0.3750,0.6250,-0.6567,0.2791,-0.6738,-0.1917,
2025-03-08 19:17:19.949,9.6400,-1.1300,-0.2300,-0.8125,-0.2500,0.6250,-0.6567,0.2792,-0.6738,-0.1916,
2025-03-08 19:17:19.957,9.6200,-1.1700,-0.2100,-0.8125,-0.2500,0.6250,-0.6567,0.2792,-0.6738,-0.1916,
2025-03-08 19:17:19.967,9.5800,-1.2400,-0.1900,-1.3125,0.0625,0.7500,-0.6567,0.2794,-0.6738,-0.1917,
2025-03-08 19:17:19.979,9.6100,-1.2700,-0.1800,-1.6875,0.5000,1.0625,-0.6566,0.2795,-0.6738,-0.1917,
2025-03-08 19:17:19.992,9.6300,-1.2600,-0.2000,-1.4375,0.0000,0.9375,-0.6566,0.2797,-0.6738,-0.1918,
2025-03-08 19:17:20.003,9.6900,-1.2400,-0.2300,-1.1250,-0.5625,0.7500,-0.6565,0.2799,-0.6737,-0.1918,
2025-03-08 19:17:20.010,9.7300,-1.1900,-0.1600,-1.1250,-0.5625,0.7500,-0.6565,0.2799,-0.6737,-0.1918,
2025-03-08 19:17:20.019,9.7400,-1.2200,-0.1500,-1.3750,-0.8125,0.5625,-0.6565,0.2800,-0.6736,-0.1918,
2025-03-08 19:17:20.031,9.7200,-1.2400,-0.1700,-0.9375,-0.6250,0.4375,-0.6566,0.2801,-0.6735,-0.1919,
2025-03-08 19:17:20.041,9.6800,-1.2700,-0.1700,-0.7500,-0.4375,0.3750,-0.6565,0.2801,-0.6735,-0.1920,
2025-03-08 19:17:20.053,9.5700,-1.2500,-0.1500,0.0000,-0.6875,0.5625,-0.6566,0.2802,-0.6735,-0.1920,
2025-03-08 19:17:20.062,9.5700,-1.2100,-0.1700,0.0000,-0.6875,0.5625,-0.6566,0.2802,-0.6735,-0.1920,
2025-03-08 19:17:20.072,9.5800,-1.1900,-0.2200,0.7500,-1.0000,0.2500,-0.6566,0.2803,-0.6734,-0.1920,
2025-03-08 19:17:20.080,9.6600,-1.1600,-0.2400,0.6875,-1.1875,0.3125,-0.6567,0.2802,-0.6734,-0.1919,
2025-03-08 19:17:20.099,9.6800,-1.1500,-0.2500,0.1250,-0.8750,0.3750,-0.6568,0.2802,-0.6733,-0.1918,
2025-03-08 19:17:20.100,9.7000,-1.1600,-0.2200,-0.6250,-0.2500,0.4375,-0.6568,0.2802,-0.6733,-0.1918,
2025-03-08 19:17:20.115,9.7100,-1.2200,-0.2100,-0.6250,-0.2500,0.4375,-0.6568,0.2803,-0.6732,-0.1918,
2025-03-08 19:17:20.125,9.6600,-1.3100,-0.1900,-0.8750,-0.1250,0.3750,-0.6568,0.2803,-0.6732,-0.1919,
2025-03-08 19:17:20.129,9.6500,-1.3300,-0.1900,-0.6250,-0.3125,0.4375,-0.6568,0.2803,-0.6732,-0.1920,
2025-03-08 19:17:20.153,9.6300,-1.3300,-0.2200,0.0000,-0.8125,0.3750,-0.6568,0.2804,-0.6732,-0.1920,
2025-03-08 19:17:20.153,9.6800,-1.2600,-0.2300,0.6250,-1.6250,0.5625,-0.6568,0.2804,-0.6732,-0.1920,
2025-03-08 19:17:20.158,9.6800,-1.2100,-0.1700,0.6250,-1.6250,0.5625,-0.6569,0.2804,-0.6730,-0.1919,
2025-03-08 19:17:20.167,9.6500,-1.1400,-0.1600,1.3750,-1.8125,0.4375,-0.6571,0.2803,-0.6730,-0.1918,
2025-03-08 19:17:20.183,9.6600,-1.1300,-0.2100,1.4375,-1.6250,0.2500,-0.6572,0.2803,-0.6729,-0.1917,
2025-03-08 19:17:20.189,9.6600,-1.1400,-0.2400,0.5000,-0.9375,0.3125,-0.6573,0.2802,-0.6729,-0.1915,
2025-03-08 19:17:20.200,9.6300,-1.1700,-0.2100,-0.2500,-0.3750,0.6250,-0.6574,0.2803,-0.6728,-0.1915,
2025-03-08 19:17:20.208,9.6100,-1.2100,-0.1900,-0.2500,-0.3750,0.6250,-0.6573,0.2803,-0.6728,-0.1915,
2025-03-08 19:17:20.223,9.6700,-1.2600,-0.2500,-0.0625,-0.3125,0.6250,-0.6573,0.2803,-0.6728,-0.1914,
2025-03-08 19:17:20.230,9.6700,-1.2600,-0.2600,0.3750,-0.9375,0.6250,-0.6573,0.2803,-0.6729,-0.1914,
2025-03-08 19:17:20.245,9.7200,-1.2400,-0.2300,0.8125,-1.0625,0.6250,-0.6574,0.2804,-0.6728,-0.1913,
2025-03-08 19:17:20.250,9.7300,-1.1600,-0.2200,0.8750,-1.3125,0.6250,-0.6574,0.2804,-0.6728,-0.1912,
2025-03-08 19:17:20.258,9.6800,-1.1700,-0.2300,0.8750,-1.3125,0.6250,-0.6575,0.2804,-0.6727,-0.1911,
2025-03-08 19:17:20.273,9.6400,-1.1900,-0.2300,0.6875,-0.5000,0.6875,-0.6575,0.2804,-0.6727,-0.1910,
2025-03-08 19:17:20.281,9.6300,-1.2200,-0.2300,-0.1250,-0.4375,0.8750,-0.6575,0.2804,-0.6727,-0.1910,
2025-03-08 19:17:20.290,9.6500,-1.2500,-0.2700,-0.6875,0.0000,1.0625,-0.6575,0.2805,-0.6727,-0.1909,
2025-03-08 19:17:20.304,9.6700,-1.2800,-0.1900,-0.5625,0.0000,1.0000,-0.6575,0.2805,-0.6727,-0.1909,
2025-03-08 19:17:20.308,9.7000,-1.3200,-0.2000,-0.5625,0.0000,1.0000,-0.6575,0.2806,-0.6727,-0.1909,
2025-03-08 19:17:20.319,9.6900,-1.2800,-0.1800,0.6250,-0.2500,0.9375,-0.6574,0.2806,-0.6728,-0.1908,
2025-03-08 19:17:20.334,9.7100,-1.2400,-0.2400,1.1875,-0.2500,0.8750,-0.6574,0.2806,-0.6728,-0.1907,
2025-03-08 19:17:20.340,9.6900,-1.2100,-0.2800,1.3125,-0.3750,0.8125,-0.6574,0.2806,-0.6729,-0.1906,
2025-03-08 19:17:20.349,9.6500,-1.1800,-0.2200,0.8750,-0.5625,0.8750,-0.6574,0.2806,-0.6729,-0.1904,
2025-03-08 19:17:20.363,9.6300,-1.2300,-0.2300,0.8750,-0.5625,0.8750,-0.6574,0.2806,-0.6729,-0.1904,
2025-03-08 19:17:20.373,9.6100,-1.2900,-0.1800,0.4375,0.2500,0.7500,-0.6574,0.2806,-0.6729,-0.1903,
2025-03-08 19:17:20.381,9.6800,-1.3400,-0.2100,0.3750,0.5000,0.5000,-0.6574,0.2807,-0.6730,-0.1902,
2025-03-08 19:17:20.393,9.7500,-1.3600,-0.2300,0.8125,0.6250,0.2500,-0.6574,0.2807,-0.6730,-0.1902,
2025-03-08 19:17:20.402,9.7700,-1.3600,-0.2200,0.8125,0.6250,0.2500,-0.6574,0.2806,-0.6730,-0.1903,
2025-03-08 19:17:20.407,9.7400,-1.3000,-0.2400,1.1250,0.9375,-0.3125,-0.6573,0.2806,-0.6731,-0.1902,
2025-03-08 19:17:20.419,9.6700,-1.3100,-0.2600,1.5625,0.5625,-0.8125,-0.6574,0.2805,-0.6731,-0.1901,
2025-03-08 19:17:20.430,9.6300,-1.3000,-0.3200,1.6250,0.0000,-1.2500,-0.6574,0.2803,-0.6731,-0.1901,
2025-03-08 19:17:20.451,9.6100,-1.3300,-0.2900,1.3125,-0.3750,-1.1250,-0.6575,0.2801,-0.6731,-0.1901,
2025-03-08 19:17:20.452,9.6300,-1.3500,-0.2500,0.5000,-0.5000,-0.8125,-0.6575,0.2801,-0.6731,-0.1902,
2025-03-08 19:17:20.459,9.6900,-1.3600,-0.2200,0.5000,-0.3750,-0.5625,-0.6575,0.2801,-0.6731,-0.1902,
2025-03-08 19:17:20.467,9.7000,-1.2800,-0.2700,1.8125,-0.5625,0.0000,-0.6575,0.2800,-0.6732,-0.1901,
2025-03-08 19:17:20.483,9.6500,-1.1900,-0.2600,3.0625,-0.4375,0.4375,-0.6576,0.2798,-0.6732,-0.1899,
2025-03-08 19:17:20.490,9.6000,-1.0700,-0.2800,3.6875,-0.5625,0.6875,-0.6576,0.2796,-0.6734,-0.1896,
2025-03-08 19:17:20.503,9.5300,-1.0500,-0.3100,2.8750,-0.5000,0.7500,-0.6577,0.2795,-0.6734,-0.1895,
2025-03-08 19:17:20.507,9.4700,-1.0500,-0.3300,1.8750,-0.3125,0.4375,-0.6577,0.2794,-0.6735,-0.1893,
2025-03-08 19:17:20.523,9.4700,-1.1300,-0.3300,0.9375,-0.3750,0.2500,-0.6577,0.2794,-0.6735,-0.1893,
2025-03-08 19:17:20.530,9.4900,-1.1500,-0.3200,-0.0625,-0.6875,0.1250,-0.6577,0.2794,-0.6735,-0.1893,
2025-03-08 19:17:20.543,9.6500,-1.2400,-0.2800,-0.9375,-1.1250,0.1250,-0.6578,0.2794,-0.6734,-0.1893,
2025-03-08 19:17:20.551,9.7100,-1.2200,-0.2300,-1.1875,-1.6250,0.2500,-0.6578,0.2795,-0.6732,-0.1893,
2025-03-08 19:17:20.574,9.6900,-1.2100,-0.1300,-0.1250,-1.0000,0.6250,-0.6580,0.2797,-0.6731,-0.1893,
2025-03-08 19:17:20.580,9.6200,-1.2100,-0.1900,0.4375,-0.5000,0.6250,-0.6580,0.2797,-0.6731,-0.1892,
2025-03-08 19:17:20.590,9.6200,-1.2100,-0.2600,0.8750,0.0000,0.7500,-0.6579,0.2797,-0.6731,-0.1891,
2025-03-08 19:17:20.606,9.6300,-1.2400,-0.2700,0.6875,-0.2500,0.8750,-0.6580,0.2797,-0.6732,-0.1890,
2025-03-08 19:17:20.620,9.6800,-1.2300,-0.2600,-0.5000,-0.8750,0.6875,-0.6580,0.2798,-0.6732,-0.1889,
2025-03-08 19:17:20.634,9.7400,-1.2700,-0.3100,-0.5625,-1.0625,0.6875,-0.6580,0.2798,-0.6731,-0.1888,
2025-03-08 19:17:20.640,9.7700,-1.2800,-0.3000,-0.5625,-1.2500,0.8125,-0.6581,0.2799,-0.6730,-0.1888,
2025-03-08 19:17:20.653,9.7400,-1.2500,-0.2200,-0.4375,-1.1875,0.7500,-0.6581,0.2800,-0.6730,-0.1887,
2025-03-08 19:17:20.673,9.6100,-1.2600,-0.2800,-0.0625,-0.4375,0.5000,-0.6581,0.2800,-0.6730,-0.1887,
2025-03-08 19:17:20.680,9.5900,-1.2800,-0.3000,-0.1250,-0.4375,0.2500,-0.6581,0.2800,-0.6730,-0.1887,
2025-03-08 19:17:20.695,9.5600,-1.3200,-0.3100,-0.2500,-0.8750,0.0625,-0.6582,0.2800,-0.6729,-0.1887,
2025-03-08 19:17:20.700,9.6100,-1.3300,-0.3500,-0.3750,-1.3750,-0.0625,-0.6583,0.2800,-0.6728,-0.1887,
2025-03-08 19:17:20.709,9.6500,-1.3200,-0.3000,-0.1875,-1.9375,0.0000,-0.6584,0.2800,-0.6727,-0.1886,
2025-03-08 19:17:20.722,9.6500,-1.2300,-0.1900,0.1250,-1.9375,0.0625,-0.6585,0.2801,-0.6726,-0.1885,
2025-03-08 19:17:20.730,9.6800,-1.1800,-0.2200,0.6875,-1.4375,0.1250,-0.6586,0.2800,-0.6726,-0.1885,
2025-03-08 19:17:20.750,9.6700,-1.2100,-0.2600,1.1875,-0.4375,0.0625,-0.6586,0.2800,-0.6725,-0.1884,
2025-03-08 19:17:20.750,9.7000,-1.2200,-0.3400,1.2500,0.0000,-0.1250,-0.6586,0.2799,-0.6726,-0.1884,
2025-03-08 19:17:20.766,9.7300,-1.2000,-0.4300,0.5000,0.0000,0.1875,-0.6586,0.2799,-0.6726,-0.1884,
2025-03-08 19:17:20.769,9.7400,-1.2500,-0.4300,-0.8750,-0.3125,0.2500,-0.6586,0.2800,-0.6725,-0.1884,
2025-03-08 19:17:20.783,9.7100,-1.3400,-0.3600,-2.1875,-0.4375,0.3750,-0.6586,0.2801,-0.6725,-0.1885,
2025-03-08 19:17:20.790,9.7400,-1.4100,-0.2200,-2.1250,-0.5625,0.1250,-0.6585,0.2802,-0.6725,-0.1887,
2025-03-08 19:17:20.800,9.6800,-1.3900,-0.2100,-1.4375,-0.3750,0.3125,-0.6585,0.2803,-0.6724,-0.1887,
2025-03-08 19:17:20.820,9.6600,-1.3600,-0.1900,-0.2500,0.0000,0.5000,-0.6585,0.2803,-0.6724,-0.1887,
2025-03-08 19:17:20.839,9.6200,-1.3400,-0.2300,0.8125,-0.0625,0.6875,-0.6585,0.2803,-0.6725,-0.1887,
2025-03-08 19:17:20.839,9.6500,-1.2900,-0.2900,1.3750,-0.2500,0.6875,-0.6585,0.2803,-0.6725,-0.1885,
2025-03-08 19:17:20.846,9.6500,-1.2300,-0.3500,1.6250,-0.3125,0.6250,-0.6585,0.2802,-0.6726,-0.1884,
2025-03-08 19:17:20.849,9.6200,-1.2100,-0.4200,1.6250,-0.3750,0.8125,-0.6586,0.2801,-0.6726,-0.1882,
2025-03-08 19:17:20.858,9.6300,-1.2400,-0.3500,0.8750,-0.2500,0.7500,-0.6585,0.2802,-0.6727,-0.1882,
2025-03-08 19:17:20.873,9.6700,-1.2600,-0.3100,-0.4375,-0.1250,1.0625,-0.6585,0.2802,-0.6727,-0.1881,
2025-03-08 19:17:20.879,9.6800,-1.3000,-0.2500,-0.4375,-0.1250,1.0625,-0.6585,0.2803,-0.6727,-0.1880,
2025-03-08 19:17:20.891,9.6700,-1.3200,-0.2300,-0.1875,0.3125,0.9375,-0.6585,0.2803,-0.6727,-0.1880,
2025-03-08 19:17:20.911,9.6900,-1.2800,-0.2300,0.3125,0.5000,1.0000,-0.6584,0.2803,-0.6727,-0.1879,
2025-03-08 19:17:20.911,9.6600,-1.3100,-0.2800,0.8125,0.2500,0.8125,-0.6584,0.2803,-0.6727,-0.1879,
2025-03-08 19:17:20.918,9.6200,-1.2700,-0.2900,1.7500,-0.2500,0.6875,-0.6585,0.2803,-0.6728,-0.1877,
2025-03-08 19:17:20.928,9.6000,-1.2600,-0.3000,1.7500,-0.2500,0.6875,-0.6585,0.2802,-0.6729,-0.1876,
2025-03-08 19:17:20.942,9.6500,-1.2400,-0.3600,1.8125,-0.6250,0.6875,-0.6585,0.2802,-0.6729,-0.1874,
2025-03-08 19:17:20.949,9.6600,-1.2600,-0.3100,0.6875,-0.4375,0.8125,-0.6585,0.2802,-0.6729,-0.1873,
2025-03-08 19:17:20.961,9.7100,-1.2500,-0.2500,0.2500,-0.3125,0.8125,-0.6585,0.2802,-0.6729,-0.1873,
2025-03-08 19:17:20.975,9.6800,-1.2700,-0.2300,0.1875,-0.0625,0.8125,-0.6585,0.2803,-0.6729,-0.1873,
2025-03-08 19:17:20.979,9.7100,-1.2300,-0.2800,0.1250,-0.3125,0.8125,-0.6584,0.2803,-0.6729,-0.1872,
2025-03-08 19:17:20.992,9.6800,-1.2600,-0.3400,-0.0625,-0.6250,0.5625,-0.6584,0.2803,-0.6729,-0.1872,
2025-03-08 19:17:20.999,9.6600,-1.2900,-0.3400,-0.4375,-0.6250,0.3750,-0.6585,0.2803,-0.6729,-0.1871,
2025-03-08 19:17:21.008,9.6400,-1.3600,-0.3100,-0.3125,-1.0625,0.4375,-0.6586,0.2803,-0.6728,-0.1871,
2025-03-08 19:17:21.023,9.6100,-1.3700,-0.2400,0.3125,-1.0625,0.4375,-0.6586,0.2804,-0.6727,-0.1871,
2025-03-08 19:17:21.051,9.6200,-1.3600,-0.2200,1.0625,-0.9375,0.4375,-0.6587,0.2803,-0.6727,-0.1870,
2025-03-08 19:17:21.051,9.6400,-1.2700,-0.2600,1.5625,-0.9375,0.6250,-0.6588,0.2803,-0.6727,-0.1869,
2025-03-08 19:17:21.051,9.6300,-1.2500,-0.3300,1.1875,-0.6250,0.7500,-0.6588,0.2803,-0.6727,-0.1868,
2025-03-08 19:17:21.057,9.6800,-1.2500,-0.3300,0.6250,-0.4375,1.0625,-0.6588,0.2803,-0.6727,-0.1866,
2025-03-08 19:17:21.068,9.6700,-1.2100,-0.3500,-0.0625,-0.1875,0.9375,-0.6588,0.2803,-0.6728,-0.1866,
2025-03-08 19:17:21.078,9.6300,-1.2400,-0.3000,-0.3750,0.1875,0.9375,-0.6587,0.2804,-0.6728,-0.1865,
2025-03-08 19:17:21.088,9.6200,-1.3100,-0.3200,-0.5000,0.1250,0.8125,-0.6587,0.2804,-0.6728,-0.1865,
2025-03-08 19:17:21.099,9.6200,-1.3500,-0.3000,0.0625,-0.2500,1.2500,-0.6587,0.2805,-0.6728,-0.1864,
2025-03-08 19:17:21.107,9.6300,-1.3000,-0.3000,1.4375,0.0625,1.5000,-0.6587,0.2805,-0.6729,-0.1863,
2025-03-08 19:17:21.118,9.6300,-1.2700,-0.3100,3.1250,1.1875,1.7500,-0.6586,0.2804,-0.6730,-0.1860,
2025-03-08 19:17:21.127,9.6200,-1.2700,-0.3200,3.5625,2.5000,1.5625,-0.6585,0.2803,-0.6733,-0.1858,
2025-03-08 19:17:21.138,9.6200,-1.2900,-0.3200,2.3750,3.8125,1.1250,-0.6583,0.2802,-0.6736,-0.1857,
2025-03-08 19:17:21.148,9.6500,-1.3100,-0.2300,0.5000,4.5000,0.6250,-0.6580,0.2801,-0.6738,-0.1857,
2025-03-08 19:17:21.157,9.6300,-1.3100,-0.1700,-0.8750,3.1250,0.5000,-0.6578,0.2801,-0.6740,-0.1858,
2025-03-08 19:17:21.171,9.6600,-1.3000,-0.1800,-1.6250,1.9375,0.6250,-0.6577,0.2802,-0.6741,-0.1860,
2025-03-08 19:17:21.177,9.6600,-1.3300,-0.2300,-1.8125,1.6875,0.6250,-0.6575,0.2803,-0.6741,-0.1861,
2025-03-08 19:17:21.188,9.6200,-1.4000,-0.2800,-1.1250,2.1875,0.3125,-0.6574,0.2803,-0.6742,-0.1862,
2025-03-08 19:17:21.197,9.6400,-1.4200,-0.2900,-0.4375,2.6875,0.0000,-0.6572,0.2803,-0.6744,-0.1863,
2025-03-08 19:17:21.207,9.7100,-1.4100,-0.2700,0.2500,2.0000,0.3125,-0.6571,0.2803,-0.6745,-0.1863,
2025-03-08 19:17:21.219,9.7900,-1.3300,-0.2300,0.3750,0.8750,0.6875,-0.6570,0.2803,-0.6746,-0.1863,
2025-03-08 19:17:21.227,9.7900,-1.2900,-0.2500,0.4375,0.2500,1.1250,-0.6570,0.2803,-0.6746,-0.1862,
2025-03-08 19:17:21.239,9.8300,-1.2100,-0.2400,0.0625,0.0000,0.7500,-0.6570,0.2804,-0.6746,-0.1862,
2025-03-08 19:17:21.248,9.7600,-1.2500,-0.2400,-0.3125,0.5625,0.3750,-0.6570,0.2804,-0.6746,-0.1862,
2025-03-08 19:17:21.260,9.6800,-1.3000,-0.2700,-1.0625,1.4375,0.4375,-0.6569,0.2805,-0.6746,-0.1863,
2025-03-08 19:17:21.269,9.6200,-1.2600,-0.2500,-1.6250,2.3125,0.2500,-0.6567,0.2805,-0.6747,-0.1864,
2025-03-08 19:17:21.279,9.6100,-1.2600,-0.2700,-1.9375,3.0625,0.3125,-0.6565,0.2806,-0.6748,-0.1866,
2025-03-08 19:17:21.288,9.6400,-1.3500,-0.3900,-2.0625,3.0625,0.6875,-0.6563,0.2806,-0.6750,-0.1868,
2025-03-08 19:17:21.298,9.6500,-1.4100,-0.4100,-2.3125,2.3125,1.0625,-0.6561,0.2808,-0.6751,-0.1869,
2025-03-08 19:17:21.307,9.6800,-1.3900,-0.3700,-2.1250,1.2500,1.5000,-0.6560,0.2810,-0.6751,-0.1869,
2025-03-08 19:17:21.318,9.6800,-1.3300,-0.3500,-1.6250,0.2500,1.5000,-0.6559,0.2812,-0.6751,-0.1869,
2025-03-08 19:17:21.328,9.7300,-1.1500,-0.2800,-1.6250,0.1250,1.5000,-0.6558,0.2814,-0.6751,-0.1870,
2025-03-08 19:17:21.351,9.7300,-1.1600,-0.3100,-3.3750,1.0625,1.2500,-0.6557,0.2816,-0.6751,-0.1871,
2025-03-08 19:17:21.351,9.6800,-1.1900,-0.2600,-4.9375,2.5625,1.3125,-0.6555,0.2819,-0.6751,-0.1873,
2025-03-08 19:17:21.362,9.7700,-1.3900,-0.2300,-5.1250,4.2500,1.4375,-0.6551,0.2822,-0.6753,-0.1877,
2025-03-08 19:17:21.367,9.8000,-1.4500,-0.2700,-3.1250,6.6250,1.0625,-0.6546,0.2824,-0.6756,-0.1879,
2025-03-08 19:17:21.384,9.8500,-1.5200,-0.2900,-0.3750,9.3125,0.0000,-0.6541,0.2822,-0.6761,-0.1882,
2025-03-08 19:17:21.387,9.9300,-1.4700,-0.3500,-0.5000,12.3750,-1.5625,-0.6535,0.2820,-0.6767,-0.1885,
2025-03-08 19:17:21.397,10.0600,-0.8000,-0.2700,-2.1250,16.2500,-2.1875,-0.6526,0.2817,-0.6775,-0.1891,
2025-03-08 19:17:21.413,10.1300,-0.5200,-0.2700,-4.7500,20.5625,-1.5625,-0.6514,0.2816,-0.6785,-0.1900,
2025-03-08 19:17:21.417,10.1500,-0.4000,-0.3300,-10.1875,24.0625,-0.3750,-0.6498,0.2817,-0.6796,-0.1912,
2025-03-08 19:17:21.445,10.0600,-0.6600,0.0200,-16.0625,27.8750,0.4375,-0.6479,0.2822,-0.6807,-0.1927,
2025-03-08 19:17:21.448,10.2000,-0.9600,0.3400,-20.0000,30.5625,0.4375,-0.6459,0.2828,-0.6819,-0.1945,
2025-03-08 19:17:21.448,10.4700,-1.3600,0.5500,-20.5000,33.0000,-1.9375,-0.6437,0.2834,-0.6832,-0.1965,
2025-03-08 19:17:21.457,10.1900,-1.8200,0.7500,-18.8750,39.4375,-6.4375,-0.6412,0.2835,-0.6848,-0.1989,
2025-03-08 19:17:21.488,9.5500,-2.0400,1.2500,-16.9375,45.3125,-8.3750,-0.6381,0.2841,-0.6864,-0.2023,
2025-03-08 19:17:21.490,9.8900,-1.6600,1.3200,-15.1250,47.0625,-4.7500,-0.6352,0.2839,-0.6885,-0.2046,
2025-03-08 19:17:21.490,10.3300,-1.2800,1.4400,-13.6875,47.8750,0.0625,-0.6322,0.2839,-0.6907,-0.2064,
2025-03-08 19:17:21.501,10.9100,-1.1600,1.8400,-13.6250,50.3125,1.1250,-0.6290,0.2839,-0.6931,-0.2083,
2025-03-08 19:17:21.520,10.9400,-1.1600,1.9700,-13.6875,54.0000,-1.3125,-0.6256,0.2837,-0.6956,-0.2104,
2025-03-08 19:17:21.526,10.8200,-1.2400,2.0300,-14.2500,59.6875,-5.3125,-0.6220,0.2831,-0.6983,-0.2129,
2025-03-08 19:17:21.528,10.8000,-1.2400,1.9900,-15.0625,66.3750,-8.3125,-0.6180,0.2824,-0.7013,-0.2158,
2025-03-08 19:17:21.537,10.7600,-1.2700,1.8000,-16.3125,73.3125,-9.6250,-0.6136,0.2815,-0.7045,-0.2189,
2025-03-08 19:17:21.547,10.6400,-1.2500,1.8500,-18.1250,79.8750,-10.9375,-0.6087,0.2806,-0.7080,-0.2224,
2025-03-08 19:17:21.557,10.6200,-1.2600,1.9100,-20.7500,85.6875,-10.8125,-0.6035,0.2797,-0.7117,-0.2262,
2025-03-08 19:17:21.567,10.6100,-1.1800,2.0200,-22.5625,91.3750,-9.6875,-0.5975,0.2792,-0.7155,-0.2307,
2025-03-08 19:17:21.580,10.4400,-0.9100,2.4300,-25.6875,98.3750,-9.0000,-0.5912,0.2783,-0.7196,-0.2348,
2025-03-08 19:17:21.596,10.4200,-0.6500,2.5800,-30.0625,106.5000,-7.6250,-0.5843,0.2777,-0.7241,-0.2393,
2025-03-08 19:17:21.598,10.5200,-0.7000,2.6300,-35.8125,114.5625,-5.6875,-0.5767,0.2772,-0.7287,-0.2441,
2025-03-08 19:17:21.608,10.6800,-1.0900,2.7800,-41.8125,122.5625,-4.3125,-0.5683,0.2770,-0.7336,-0.2492,
2025-03-08 19:17:21.618,10.7900,-1.3000,2.9100,-47.2500,128.6875,-2.1875,-0.5683,0.2770,-0.7336,-0.2492,
2025-03-08 19:17:21.652,10.9800,-1.3100,3.0500,-51.6250,132.5625,-0.5000,-0.5592,0.2775,-0.7384,-0.2550,
2025-03-08 19:17:21.652,10.8800,-1.2800,3.1400,-54.6875,135.6250,-1.1250,-0.5401,0.2781,-0.7484,-0.2663,
2025-03-08 19:17:21.657,10.6300,-0.9200,3.5200,-58.1875,138.2500,-2.2500,-0.5300,0.2786,-0.7532,-0.2723,
2025-03-08 19:17:21.658,10.5100,-0.7800,3.6400,-63.3125,140.5625,-3.1875,-0.5196,0.2792,-0.7579,-0.2787,
2025-03-08 19:17:21.667,10.4000,-0.7600,3.7900,-71.0000,144.1250,-2.8125,-0.5196,0.2792,-0.7579,-0.2787,
2025-03-08 19:17:21.681,10.3600,-1.1500,4.0500,-79.6875,147.9375,-1.3125,-0.5087,0.2803,-0.7623,-0.2854,
2025-03-08 19:17:21.689,10.4400,-1.4800,4.1100,-86.7500,151.6250,1.7500,-0.4852,0.2837,-0.7709,-0.2995,
2025-03-08 19:17:21.697,10.5000,-1.7200,4.1600,-91.4375,154.9375,5.1875,-0.4727,0.2859,-0.7752,-0.3066,
2025-03-08 19:17:21.708,10.2500,-1.9500,4.3300,-94.2500,157.3750,7.8750,-0.4727,0.2859,-0.7752,-0.3066,
2025-03-08 19:17:21.717,9.8600,-2.0300,4.7500,-94.0000,159.3125,10.5000,-0.4596,0.2883,-0.7793,-0.3136,
2025-03-08 19:17:21.734,9.6700,-2.1600,5.0100,-93.7500,160.4375,12.8125,-0.4464,0.2907,-0.7833,-0.3204,
2025-03-08 19:17:21.743,9.5800,-2.4500,5.2100,-95.8125,161.9375,13.6250,-0.4328,0.2930,-0.7873,-0.3270,
2025-03-08 19:17:21.751,9.3300,-3.0100,5.8100,-95.2500,163.0000,15.1875,-0.4190,0.2953,-0.7911,-0.3336,
2025-03-08 19:17:21.758,9.2200,-3.1100,5.9800,-86.1250,163.3750,19.6875,-0.4050,0.2976,-0.7949,-0.3400,
2025-03-08 19:17:21.772,9.0900,-3.3500,6.0000,-71.7500,164.0625,25.1875,-0.3910,0.2993,-0.7988,-0.3456,
2025-03-08 19:17:21.781,8.8600,-3.3700,5.8700,-57.1250,164.6250,28.5625,-0.3771,0.3002,-0.8030,-0.3505,
2025-03-08 19:17:21.795,8.4800,-3.0100,5.7000,-44.8750,164.6250,30.1250,-0.3635,0.3001,-0.8075,-0.3545,
2025-03-08 19:17:21.798,8.4200,-2.7600,5.6300,-34.1875,163.2500,31.6250,-0.3501,0.2991,-0.8123,-0.3580,
2025-03-08 19:17:21.813,8.3100,-2.5800,5.6100,-26.6875,162.0625,32.5000,-0.3370,0.2974,-0.8171,-0.3609,
2025-03-08 19:17:21.817,8.2700,-2.4900,5.6700,-22.8750,160.8125,33.6250,-0.3242,0.2952,-0.8220,-0.3635,
2025-03-08 19:17:21.833,8.2200,-2.3900,5.8400,-23.3125,159.0000,34.8750,-0.3115,0.2928,-0.8267,-0.3658,
2025-03-08 19:17:21.840,8.0900,-2.3300,6.0000,-28.1875,157.4375,36.6250,-0.2987,0.2904,-0.8313,-0.3679,
2025-03-08 19:17:21.848,7.9800,-2.3800,6.1200,-35.8750,156.3750,38.3125,-0.2858,0.2884,-0.8357,-0.3698,
2025-03-08 19:17:21.858,7.3700,-2.6200,6.2000,-43.1250,156.9375,38.5000,-0.2728,0.2869,-0.8397,-0.3718,
2025-03-08 19:17:21.868,6.9100,-2.6500,6.2900,-50.7500,157.4375,37.5625,-0.2593,0.2859,-0.8434,-0.3738,
2025-03-08 19:17:21.878,6.9100,-2.6500,6.2900,-56.6875,157.8125,36.1875,-0.2455,0.2854,-0.8467,-0.3760,
2025-03-08 19:17:21.888,6.4300,-2.7200,6.4200,-60.1250,157.8750,35.8750,-0.2316,0.2852,-0.8497,-0.3784,
2025-03-08 19:17:21.898,6.2600,-2.9900,6.3600,-61.5000,156.4375,37.6875,-0.2174,0.2851,-0.8523,-0.3807,
2025-03-08 19:17:21.915,6.0500,-3.2700,6.5000,-63.3750,155.0625,40.1250,-0.2032,0.2852,-0.8549,-0.3829,
2025-03-08 19:17:21.918,5.9100,-3.6600,6.5800,-65.3750,153.5625,41.0000,-0.1890,0.2853,-0.8572,-0.3848,
2025-03-08 19:17:21.927,5.3900,-3.8900,6.9500,-66.5000,151.2500,40.6875,-0.1747,0.2858,-0.8593,-0.3865,
2025-03-08 19:17:21.951,5.1800,-3.9900,7.0600,-65.5000,148.3750,40.8750,-0.1606,0.2862,-0.8612,-0.3882,
2025-03-08 19:17:21.952,4.9100,-4.2500,7.2600,-63.0625,146.1250,40.9375,-0.1466,0.2866,-0.8629,-0.3897,
2025-03-08 19:17:21.958,4.7000,-4.5000,7.2900,-57.8750,143.5000,41.8125,-0.1329,0.2869,-0.8644,-0.3909,
2025-03-08 19:17:21.967,4.7000,-4.5000,7.2900,-50.1875,141.8125,43.0000,-0.1194,0.2868,-0.8659,-0.3920,
2025-03-08 19:17:21.977,4.4200,-4.6200,7.4900,-40.6250,139.5000,44.1875,-0.1064,0.2862,-0.8675,-0.3928,
2025-03-08 19:17:21.988,4.1300,-4.4900,7.6500,-35.0000,138.6875,42.3750,-0.0938,0.2849,-0.8692,-0.3932,
2025-03-08 19:17:21.998,3.9400,-4.3500,7.4700,-31.3125,135.5625,39.5000,-0.0814,0.2832,-0.8707,-0.3937,
2025-03-08 19:17:22.013,3.9500,-4.5000,7.2700,-26.1875,132.9375,41.8750,-0.0694,0.2812,-0.8722,-0.3942,
2025-03-08 19:17:22.019,3.9500,-4.5000,7.2700,-19.2500,130.8125,48.5000,-0.0577,0.2790,-0.8737,-0.3944,
2025-03-08 19:17:22.029,3.7600,-4.7500,7.0600,-11.6875,126.9375,51.8125,-0.0463,0.2762,-0.8754,-0.3940,
2025-03-08 19:17:22.047,3.2400,-3.9300,6.9500,-5.1250,120.7500,52.1875,-0.0353,0.2731,-0.8773,-0.3932,
2025-03-08 19:17:22.049,3.1100,-3.6700,6.9500,-3.3750,118.2500,49.3750,-0.0250,0.2696,-0.8792,-0.3921,
2025-03-08 19:17:22.059,2.8300,-3.5100,7.1000,-8.5625,115.0000,45.4375,-0.0149,0.2661,-0.8809,-0.3911,
2025-03-08 19:17:22.068,2.8300,-3.5100,7.1000,-18.0625,110.8750,41.3125,-0.0051,0.2629,-0.8823,-0.3903,
2025-03-08 19:17:22.077,2.5200,-3.7700,7.4500,-26.1250,107.9375,37.8125,0.0050,0.2606,-0.8829,-0.3906,
2025-03-08 19:17:22.088,2.0400,-4.4100,7.4000,-26.9375,104.1250,37.6250,0.0147,0.2590,-0.8835,-0.3901,
2025-03-08 19:17:22.100,1.8000,-4.3100,7.1500,-21.8125,100.8125,40.6875,0.0242,0.2575,-0.8840,-0.3895,
2025-03-08 19:17:22.109,1.0100,-4.3200,7.1900,-12.2500,97.8750,41.0625,0.0333,0.2557,-0.8846,-0.3886,
2025-03-08 19:17:22.118,1.0100,-4.3200,7.1900,-1.6250,92.7500,41.7500,0.0419,0.2533,-0.8854,-0.3876,
2025-03-08 19:17:22.133,1.0200,-4.6700,7.2100,4.4375,87.5625,42.6875,0.0500,0.2502,-0.8861,-0.3869,
2025-03-08 19:17:22.145,0.7300,-4.9000,7.2200,4.5625,85.3750,41.7500,0.0573,0.2468,-0.8872,-0.3856,
2025-03-08 19:17:22.149,0.9100,-4.1000,7.1400,5.3750,81.8750,41.2500,0.0644,0.2435,-0.8882,-0.3842,
2025-03-08 19:17:22.174,0.8200,-3.7500,7.0200,0.9375,77.4375,39.6250,0.0712,0.2402,-0.8892,-0.3828,
2025-03-08 19:17:22.174,0.8200,-3.7500,7.0200,0.9375,77.4375,39.6250,0.0778,0.2374,-0.8900,-0.3814,
2025-03-08 19:17:22.178,0.3300,-3.4000,7.1200,-11.1875,75.3750,36.1875,0.0846,0.2355,-0.8904,-0.3801,
2025-03-08 19:17:22.202,-0.2700,-4.7600,7.1500,-13.5625,72.3750,33.3750,0.0913,0.2339,-0.8907,-0.3790,
2025-03-08 19:17:22.202,-0.4400,-3.9700,7.1200,-13.5625,67.5000,32.9375,0.0978,0.2324,-0.8909,-0.3779,
2025-03-08 19:17:22.216,-0.5000,-4.4600,7.3900,-17.6250,64.8125,29.0000,0.1040,0.2310,-0.8911,-0.3766,
2025-03-08 19:17:22.226,-0.5000,-4.4600,7.3900,-17.6250,64.8125,29.0000,0.1100,0.2299,-0.8911,-0.3755,
2025-03-08 19:17:22.228,-0.9900,-4.1400,7.4700,-9.2500,63.1250,26.4375,0.1157,0.2283,-0.8909,-0.3752,
2025-03-08 19:17:22.251,-0.4400,-5.2400,7.4200,13.0625,65.0625,27.4375,0.1211,0.2264,-0.8910,-0.3743,
2025-03-08 19:17:22.251,-0.7900,-4.5400,7.2100,19.6250,57.6875,28.5625,0.1261,0.2231,-0.8915,-0.3736,
2025-03-08 19:17:22.265,-0.4700,-4.1100,6.8900,26.6875,49.3125,32.9375,0.1304,0.2195,-0.8921,-0.3727,
2025-03-08 19:17:22.267,-0.4700,-4.1100,6.8900,26.6875,49.3125,32.9375,0.1339,0.2156,-0.8931,-0.3715,
2025-03-08 19:17:22.277,-0.8400,-2.9700,6.9800,27.0625,43.7500,31.2500,0.1369,0.2118,-0.8940,-0.3703,
2025-03-08 19:17:22.292,-1.0900,-3.1700,6.9200,11.8750,40.8750,22.1875,0.1400,0.2086,-0.8948,-0.3691,
2025-03-08 19:17:22.299,-1.2900,-4.3800,6.9800,-1.6250,39.0000,17.3125,0.1431,0.2061,-0.8952,-0.3683,
2025-03-08 19:17:22.311,-1.5000,-4.6300,6.9200,-0.6875,35.8750,14.7500,0.1464,0.2048,-0.8952,-0.3677,
2025-03-08 19:17:22.321,-1.5000,-4.6300,6.9200,-0.6875,35.8750,14.7500,0.1494,0.2036,-0.8952,-0.3672,
2025-03-08 19:17:22.328,-1.7400,-4.4700,7.1000,-1.8750,30.4375,14.6250,0.1520,0.2026,-0.8952,-0.3667,
2025-03-08 19:17:22.349,-1.5300,-4.1100,7.4300,1.8750,21.8750,19.4375,0.1542,0.2015,-0.8955,-0.3657,
2025-03-08 19:17:22.351,-1.3500,-3.9100,7.4100,1.3750,18.3125,17.3125,0.1561,0.2004,-0.8958,-0.3646,
2025-03-08 19:17:22.359,-1.5600,-4.1100,7.3300,1.0000,18.1875,16.5625,0.1577,0.1995,-0.8962,-0.3636,
2025-03-08 19:17:22.367,-1.5600,-4.1100,7.3300,1.0000,18.1875,16.5625,0.1594,0.1987,-0.8964,-0.3627,
2025-03-08 19:17:22.377,-1.7600,-4.1700,7.3100,-0.9375,18.2500,16.1250,0.1609,0.1981,-0.8970,-0.3610,
2025-03-08 19:17:22.389,-1.7300,-4.3100,7.2600,-2.5625,16.6250,12.5000,0.1625,0.1975,-0.8971,-0.3602,
2025-03-08 19:17:22.407,-1.7100,-4.6500,7.5200,-1.1875,13.6875,10.3750,0.1641,0.1970,-0.8972,-0.3594,
2025-03-08 19:17:22.409,-1.7700,-4.7800,7.7900,1.4375,8.8750,8.1875,0.1653,0.1966,-0.8973,-0.3589,
2025-03-08 19:17:22.426,-1.8000,-4.4800,8.0300,1.4375,8.8750,8.1875,0.1661,0.1960,-0.8975,-0.3584,
2025-03-08 19:17:22.427,-1.6000,-4.2500,7.8900,4.1875,4.6875,9.0000,0.1665,0.1954,-0.8977,-0.3580,
2025-03-08 19:17:22.439,-1.8000,-4.0800,7.6600,6.4375,6.2500,10.0000,0.1669,0.1947,-0.8980,-0.3575,
2025-03-08 19:17:22.456,-1.7100,-4.2700,7.4800,4.2500,6.3750,7.4375,0.1674,0.1939,-0.8983,-0.3569,
2025-03-08 19:17:22.463,-1.8800,-4.2000,7.6700,0.4375,4.2500,4.8750,0.1678,0.1932,-0.8985,-0.3566,
2025-03-08 19:17:22.468,-1.9100,-4.5400,7.6700,0.4375,4.2500,4.8750,0.1682,0.1931,-0.8986,-0.3563,
2025-03-08 19:17:22.478,-1.7900,-4.8900,7.9500,-1.6875,2.5625,3.8125,0.1686,0.1930,-0.8986,-0.3563,
2025-03-08 19:17:22.492,-1.5900,-4.8900,7.9700,2.1250,0.5000,3.3750,0.1688,0.1930,-0.8986,-0.3560,
2025-03-08 19:17:22.501,-1.7600,-4.6700,8.2200,5.2500,-1.6875,3.1875,0.1688,0.1928,-0.8988,-0.3558,
2025-03-08 19:17:22.515,-1.7400,-4.2300,8.1100,7.2500,-1.3125,5.1250,0.1685,0.1924,-0.8990,-0.3556,
2025-03-08 19:17:22.524,-1.7700,-4.3300,7.9900,7.2500,-1.3125,5.1250,0.1683,0.1918,-0.8992,-0.3553,
2025-03-08 19:17:22.528,-1.7700,-4.2900,7.9100,5.6250,-0.6875,5.3125,0.1682,0.1913,-0.8994,-0.3552,
2025-03-08 19:17:22.553,-1.7200,-4.3000,7.9200,-4.0000,-0.8750,3.4375,0.1682,0.1912,-0.8996,-0.3548,
2025-03-08 19:17:22.556,-1.6300,-4.7800,8.1300,-7.0000,-0.3125,1.6875,0.1683,0.1914,-0.8997,-0.3544,
2025-03-08 19:17:22.563,-1.6700,-4.9700,8.2000,-4.2500,0.5625,0.0000,0.1685,0.1920,-0.8996,-0.3542,
2025-03-08 19:17:22.570,-1.7700,-5.0500,8.3400,-4.2500,0.5625,0.0000,0.1686,0.1923,-0.8995,-0.3541,
2025-03-08 19:17:22.581,-1.6100,-4.7200,8.2200,1.7500,0.1250,-0.9375,0.1687,0.1920,-0.8992,-0.3550,
2025-03-08 19:17:22.589,-1.6400,-4.6200,8.2300,10.7500,-1.3750,-0.7500,0.1685,0.1914,-0.8994,-0.3551,
2025-03-08 19:17:22.603,-1.6600,-4.6600,8.1600,8.3125,-3.0000,-1.1250,0.1680,0.1906,-0.8996,-0.3553,
2025-03-08 19:17:22.615,-1.5400,-4.7800,8.1300,5.1875,-2.6875,-2.0000,0.1677,0.1903,-0.8996,-0.3555,
2025-03-08 19:17:22.619,-1.5100,-4.9700,8.2100,5.1875,-2.6875,-2.0000,0.1674,0.1904,-0.8996,-0.3556,
2025-03-08 19:17:22.627,-1.5100,-5.0500,8.0400,5.5000,-1.1250,-2.6250,0.1673,0.1907,-0.8995,-0.3557,
2025-03-08 19:17:22.643,-1.5700,-4.9400,8.0100,7.6875,-0.7500,-2.7500,0.1672,0.1907,-0.8994,-0.3560,
2025-03-08 19:17:22.658,-1.4700,-4.5900,7.9200,11.2500,-5.2500,-1.0000,0.1668,0.1905,-0.8994,-0.3563,
2025-03-08 19:17:22.660,-1.5600,-4.7000,8.1000,8.6250,-5.6875,-2.0625,0.1661,0.1902,-0.8995,-0.3564,
2025-03-08 19:17:22.667,-1.5500,-4.7400,8.2100,8.6250,-5.6875,-2.0625,0.1656,0.1900,-0.8996,-0.3566,
2025-03-08 19:17:22.677,-1.5100,-4.8700,8.1800,7.5625,-5.6875,-2.2500,0.1650,0.1900,-0.8996,-0.3569,
2025-03-08 19:17:22.689,-1.3100,-5.1600,8.4800,9.0625,-4.1250,-4.5000,0.1645,0.1896,-0.8997,-0.3572,
2025-03-08 19:17:22.701,-1.2000,-4.8300,8.5500,10.0000,-8.1250,-3.5000,0.1638,0.1890,-0.8997,-0.3576,
2025-03-08 19:17:22.713,-1.1100,-4.6400,8.4500,10.0625,-9.4375,-2.3125,0.1628,0.1886,-0.8999,-0.3579,
2025-03-08 19:17:22.718,-1.4800,-4.4500,8.2800,10.0625,-9.4375,-2.3125,0.1618,0.1881,-0.9001,-0.3580,
2025-03-08 19:17:22.730,-1.5600,-4.3700,8.1600,10.2500,-9.3125,-1.8125,0.1609,0.1876,-0.9001,-0.3588,
2025-03-08 19:17:22.740,-1.4700,-4.4900,8.1300,9.5625,-6.0625,-2.8750,0.1599,0.1870,-0.9003,-0.3590,
2025-03-08 19:17:22.763,-1.6200,-4.5900,8.5600,8.0000,-7.8750,-4.1875,0.1591,0.1865,-0.9005,-0.3592,
2025-03-08 19:17:22.763,-1.2600,-4.8200,8.6500,8.6875,-7.4375,-4.0625,0.1582,0.1862,-0.9006,-0.3595,
2025-03-08 19:17:22.767,-1.3900,-4.8500,8.6700,8.6875,-7.4375,-4.0625,0.1573,0.1859,-0.9007,-0.3598,
2025-03-08 19:17:22.777,-1.5000,-4.6600,8.5600,11.1875,-7.5000,-2.4375,0.1563,0.1853,-0.9010,-0.3597,
2025-03-08 19:17:22.794,-1.4100,-4.4100,8.5000,17.5000,-8.1250,-1.0625,0.1552,0.1844,-0.9014,-0.3598,
2025-03-08 19:17:22.801,-1.3700,-4.2900,8.3100,18.7500,-5.5625,-3.4375,0.1540,0.1833,-0.9017,-0.3600,
2025-03-08 19:17:22.817,-1.6000,-4.1900,8.5600,17.5625,-7.5625,-3.6875,0.1530,0.1821,-0.9020,-0.3604,
2025-03-08 19:17:22.820,-1.3900,-4.0800,8.4900,17.5625,-7.5625,-3.6875,0.1518,0.1811,-0.9022,-0.3608,
2025-03-08 19:17:22.828,-1.5000,-4.3000,8.7100,12.8125,-9.3125,-2.3750,0.1506,0.1804,-0.9025,-0.3610,
2025-03-08 19:17:22.840,-1.6300,-4.3600,8.9200,6.8750,-8.1875,-0.7500,0.1497,0.1801,-0.9027,-0.3610,
2025-03-08 19:17:22.850,-1.5500,-4.3000,8.8400,10.5000,-6.1250,-0.1875,0.1488,0.1799,-0.9029,-0.3610,
2025-03-08 19:17:22.860,-1.6700,-4.2600,8.7100,13.5625,-4.7500,0.2500,0.1480,0.1793,-0.9031,-0.3611,
2025-03-08 19:17:22.870,-1.7800,-4.0300,8.2900,13.5625,-4.7500,0.2500,0.1472,0.1783,-0.9034,-0.3612,
2025-03-08 19:17:22.880,-1.7600,-3.9400,8.3000,14.6250,-4.6875,0.4375,0.1463,0.1775,-0.9039,-0.3607,
2025-03-08 19:17:22.890,-1.5400,-3.9800,8.5400,13.1250,-4.7500,0.6875,0.1455,0.1766,-0.9042,-0.3607,
2025-03-08 19:17:22.900,-1.3300,-3.9600,9.1500,9.0000,-5.6250,0.3125,0.1448,0.1761,-0.9044,-0.3607,
2025-03-08 19:17:22.913,-1.4100,-3.9200,9.1200,5.1250,-7.5000,0.2500,0.1441,0.1759,-0.9046,-0.3607,
2025-03-08 19:17:22.918,-1.5800,-3.9400,8.9200,5.0625,-5.9375,0.9375,0.1435,0.1757,-0.9047,-0.3606,
2025-03-08 19:17:22.928,-1.5900,-3.9400,8.6500,6.0625,-4.1875,1.2500,0.1430,0.1754,-0.9049,-0.3605,
2025-03-08 19:17:22.942,-1.5200,-3.9000,8.3800,6.8125,-2.3125,0.7500,0.1426,0.1749,-0.9050,-0.3605,
2025-03-08 19:17:22.954,-1.4100,-3.8300,8.3600,6.3750,-1.8125,0.4375,0.1423,0.1744,-0.9052,-0.3605,
2025-03-08 19:17:22.965,-1.2900,-3.8600,8.5800,4.0625,-2.8750,1.0625,0.1420,0.1742,-0.9053,-0.3605,
2025-03-08 19:17:22.980,-1.1400,-3.9600,9.0300,-3.3125,-7.0625,0.7500,0.1412,0.1748,-0.9054,-0.3602,
2025-03-08 19:17:22.995,-1.3400,-3.8800,8.9300,-3.8125,-6.8125,1.3750,0.1407,0.1753,-0.9055,-0.3599,
2025-03-08 19:17:23.004,-1.3100,-3.9100,8.6200,-2.9375,-5.1250,2.0000,0.1405,0.1757,-0.9056,-0.3596,
2025-03-08 19:17:23.011,-1.3800,-4.1900,8.2100,-1.1875,-1.8125,2.2500,0.1404,0.1758,-0.9056,-0.3594,
2025-03-08 19:17:23.020,-1.3000,-4.3000,8.2800,0.0625,-0.4375,2.3750,0.1404,0.1758,-0.9057,-0.3593,
2025-03-08 19:17:23.027,-1.0500,-4.3000,8.5700,0.1875,-2.1250,1.8750,0.1403,0.1758,-0.9058,-0.3590,
2025-03-08 19:17:23.067,-0.9900,-4.1900,9.1800,-0.2500,-5.0625,1.1250,0.1400,0.1760,-0.9059,-0.3589,
2025-03-08 19:17:23.068,-0.8700,-4.0400,8.9800,-1.0000,-7.0625,0.3750,0.1395,0.1762,-0.9060,-0.3588,
2025-03-08 19:17:23.068,-1.0900,-4.0100,8.7800,-0.3125,-7.7500,2.6250,0.1389,0.1765,-0.9062,-0.3584,
2025-03-08 19:17:23.069,-1.2200,-3.9700,8.5700,0.4375,-5.1875,3.5625,0.1385,0.1766,-0.9063,-0.3581,
2025-03-08 19:17:23.077,-1.2800,-4.0300,8.3900,-0.3125,-3.0000,2.3750,0.1383,0.1766,-0.9065,-0.3577,
2025-03-08 19:17:23.091,-1.2500,-4.1300,8.4000,-1.6250,-2.2500,0.6875,0.1382,0.1768,-0.9065,-0.3576,
2025-03-08 19:17:23.101,-1.2300,-4.1900,8.4900,-2.4375,-3.4375,0.1875,0.1380,0.1771,-0.9065,-0.3575,
2025-03-08 19:17:23.118,-1.0900,-4.2000,8.6700,-3.1250,-5.5625,0.6875,0.1377,0.1776,-0.9066,-0.3573,
2025-03-08 19:17:23.128,-1.0800,-4.3100,8.9200,-6.0625,-8.1875,1.2500,0.1368,0.1788,-0.9067,-0.3567,
2025-03-08 19:17:23.150,-1.2700,-4.6200,8.7700,-3.6875,-4.5625,0.6875,0.1365,0.1793,-0.9067,-0.3566,
2025-03-08 19:17:23.168,-1.3500,-4.7000,8.4500,2.1250,-1.3750,-0.3125,0.1364,0.1791,-0.9067,-0.3566,
2025-03-08 19:17:23.168,-1.2800,-4.6000,8.3700,9.2500,-2.0000,-0.1250,0.1359,0.1785,-0.9069,-0.3567,
2025-03-08 19:17:23.187,-1.0300,-4.0300,8.5100,13.4375,-8.4375,1.6875,0.1342,0.1768,-0.9074,-0.3569,
2025-03-08 19:17:23.189,-0.9000,-3.9200,8.7100,11.0625,-9.5000,2.9375,0.1332,0.1762,-0.9078,-0.3566,
2025-03-08 19:17:23.200,-0.9600,-4.0200,8.6900,7.5000,-8.5625,1.9375,0.1323,0.1758,-0.9080,-0.3564,
2025-03-08 19:17:23.213,-1.0200,-4.2200,8.6500,6.5000,-6.0625,0.7500,0.1317,0.1755,-0.9082,-0.3564,
2025-03-08 19:17:23.218,-1.3400,-4.4500,8.5900,8.7500,-4.1875,-0.8750,0.1310,0.1750,-0.9084,-0.3565,
2025-03-08 19:17:23.227,-1.3400,-4.3200,8.5300,12.8125,-5.1875,-2.1250,0.1302,0.1742,-0.9086,-0.3567,
2025-03-08 19:17:23.245,-1.2700,-4.1600,8.6100,16.5625,-7.3750,-1.6875,0.1291,0.1732,-0.9088,-0.3569,
2025-03-08 19:17:23.250,-1.1700,-3.9300,8.5700,17.9375,-10.5000,-0.1875,0.1278,0.1721,-0.9092,-0.3569,
2025-03-08 19:17:23.260,-1.1600,-3.7300,8.4000,17.8750,-11.5625,1.5000,0.1264,0.1710,-0.9096,-0.3569,
2025-03-08 19:17:23.271,-1.1500,-3.7000,8.2500,16.9375,-10.1875,2.0625,0.1251,0.1700,-0.9100,-0.3567,
2025-03-08 19:17:23.277,-1.1600,-3.7800,8.3100,17.0000,-8.6250,1.7500,0.1240,0.1690,-0.9104,-0.3566,
2025-03-08 19:17:23.289,-0.8000,-4.1200,8.6400,16.0625,-8.3750,0.0625,0.1229,0.1680,-0.9108,-0.3567,
2025-03-08 19:17:23.303,-0.8000,-4.2500,8.7500,15.5000,-9.0000,-2.1875,0.1216,0.1670,-0.9110,-0.3569,
2025-03-08 19:17:23.309,-0.9300,-4.1100,8.8000,16.6250,-11.0000,-3.9375,0.1202,0.1662,-0.9112,-0.3572,
2025-03-08 19:17:23.318,-0.9100,-3.8000,8.7100,18.8750,-15.0625,-3.8125,0.1185,0.1652,-0.9115,-0.3575,
2025-03-08 19:17:23.333,-1.1100,-3.5100,8.4200,21.4375,-17.4375,-2.4375,0.1165,0.1641,-0.9119,-0.3577,
2025-03-08 19:17:23.338,-1.1800,-3.5100,8.1900,23.3125,-17.1250,-2.4375,0.1144,0.1628,-0.9123,-0.3578,
2025-03-08 19:17:23.352,-1.2100,-3.5900,8.0400,24.1875,-16.5625,-2.4375,0.1123,0.1615,-0.9127,-0.3580,
2025-03-08 19:17:23.376,-1.0900,-3.4900,8.2100,24.1250,-18.1250,-2.7500,0.1102,0.1602,-0.9132,-0.3582,
2025-03-08 19:17:23.376,-0.8600,-3.4000,8.3200,22.8750,-20.6875,-4.3750,0.1078,0.1591,-0.9135,-0.3585,
2025-03-08 19:17:23.378,-0.5900,-3.2600,8.3000,20.5625,-24.6875,-5.4375,0.1052,0.1583,-0.9138,-0.3589,
2025-03-08 19:17:23.391,-0.4100,-3.1900,8.2600,19.5000,-27.8125,-4.9375,0.1024,0.1577,-0.9142,-0.3591,
2025-03-08 19:17:23.399,-0.6200,-3.0400,7.9500,18.6875,-29.5625,-4.4375,0.0995,0.1572,-0.9145,-0.3592,
2025-03-08 19:17:23.409,-0.7200,-3.0900,7.7500,16.6875,-30.9375,-4.8125,0.0966,0.1569,-0.9149,-0.3593,
2025-03-08 19:17:23.423,-0.9300,-3.2200,7.6500,14.8750,-31.9375,-6.4375,0.0935,0.1567,-0.9151,-0.3595,
2025-03-08 19:17:23.430,-1.0200,-3.2200,7.7600,15.7500,-33.3125,-8.7500,0.0903,0.1566,-0.9153,-0.3599,
2025-03-08 19:17:23.461,-0.6500,-3.2000,7.9200,17.8125,-37.6250,-8.9375,0.0868,0.1564,-0.9155,-0.3602,
2025-03-08 19:17:23.478,-0.4500,-3.2700,8.2200,18.3125,-42.1250,-8.0000,0.0829,0.1564,-0.9158,-0.3604,
2025-03-08 19:17:23.478,-0.3700,-3.2100,8.3700,17.6875,-45.7500,-8.6250,0.0787,0.1564,-0.9161,-0.3606,
2025-03-08 19:17:23.478,-0.4200,-2.7100,8.3200,18.0625,-49.5625,-8.8750,0.0742,0.1566,-0.9164,-0.3607,
2025-03-08 19:17:23.492,-0.2200,-2.5600,8.0200,18.3125,-52.5000,-9.5000,0.0694,0.1569,-0.9167,-0.3608,
2025-03-08 19:17:23.492,0.0400,-2.6900,7.6600,16.9375,-56.5625,-10.4375,0.0643,0.1574,-0.9170,-0.3610,
2025-03-08 19:17:23.500,-0.0800,-2.8900,7.4400,15.6875,-57.3125,-12.3125,0.0593,0.1579,-0.9171,-0.3613,
2025-03-08 19:17:23.513,-0.5500,-2.6400,7.4600,14.9375,-60.1250,-14.5000,0.0540,0.1587,-0.9171,-0.3616,
2025-03-08 19:17:23.520,-0.2900,-2.5100,7.6700,12.6875,-65.3750,-13.8750,0.0483,0.1597,-0.9172,-0.3619,
2025-03-08 19:17:23.527,0.1800,-2.6100,7.9400,7.6250,-69.5625,-14.8125,0.0424,0.1614,-0.9172,-0.3619,
2025-03-08 19:17:23.543,0.5100,-2.9900,8.1600,3.8125,-71.9375,-16.5000,0.0366,0.1633,-0.9170,-0.3622,
2025-03-08 19:17:23.549,0.4600,-2.9400,8.2100,0.7500,-73.7500,-16.1875,0.0306,0.1655,-0.9167,-0.3624,
2025-03-08 19:17:23.559,0.5800,-2.8600,8.0400,-1.3125,-78.3125,-14.9375,0.0244,0.1681,-0.9164,-0.3624,
2025-03-08 19:17:23.576,0.4900,-2.8100,8.1700,0.1250,-83.4375,-14.4375,0.0176,0.1707,-0.9161,-0.3624,
2025-03-08 19:17:23.579,1.5300,-3.4300,7.2400,-0.6250,-89.6875,-15.4375,0.0105,0.1735,-0.9158,-0.3620,
2025-03-08 19:17:23.587,1.4700,-3.3900,7.6600,2.2500,-90.5625,-18.1875,0.0031,0.1761,-0.9154,-0.3621,
2025-03-08 19:17:23.598,1.1200,-3.2100,7.9200,12.5625,-89.5625,-19.5000,-0.0045,0.1779,-0.9149,-0.3623,
2025-03-08 19:17:23.608,1.6700,-2.8000,8.1900,16.8750,-93.3750,-21.9375,-0.0126,0.1794,-0.9145,-0.3625,
2025-03-08 19:17:23.623,2.0200,-2.9500,8.2600,16.6875,-96.1875,-25.8750,-0.0209,0.1810,-0.9138,-0.3630,
2025-03-08 19:17:23.628,2.1500,-3.0600,8.1800,16.3750,-98.6250,-26.8750,-0.0294,0.1827,-0.9130,-0.3635,
2025-03-08 19:17:23.640,2.2200,-2.8600,8.2600,16.8125,-102.3750,-25.9375,-0.0383,0.1845,-0.9122,-0.3638,
2025-03-08 19:17:23.654,2.4000,-2.1500,8.5200,16.1250,-110.1875,-25.7500,-0.0476,0.1865,-0.9113,-0.3640,
2025-03-08 19:17:23.671,3.4600,-2.5500,6.9600,11.8750,-122.1875,-24.0625,-0.0578,0.1893,-0.9102,-0.3639,
2025-03-08 19:17:23.679,3.5000,-3.0200,6.8500,12.5000,-121.5000,-23.1875,-0.0679,0.1919,-0.9090,-0.3637,
2025-03-08 19:17:23.685,1.6700,-2.9100,7.2400,21.6875,-113.4375,-20.2500,-0.0776,0.1936,-0.9081,-0.3630,
2025-03-08 19:17:23.687,1.7000,-2.2200,7.4400,22.0625,-117.2500,-18.8750,-0.0876,0.1954,-0.9071,-0.3624,
2025-03-08 19:17:23.698,2.1400,-2.1200,7.7300,15.1250,-123.3750,-25.3750,-0.0980,0.1978,-0.9056,-0.3622,
2025-03-08 19:17:23.707,2.4700,-2.6000,7.5600,12.7500,-122.1250,-31.3125,-0.1082,0.2003,-0.9038,-0.3624,
2025-03-08 19:17:23.718,2.8800,-2.8800,7.3300,16.0000,-120.1875,-28.5000,-0.1183,0.2025,-0.9020,-0.3624,
2025-03-08 19:17:23.728,3.5100,-2.8000,7.0000,15.4375,-125.1875,-24.8125,-0.1290,0.2047,-0.9007,-0.3609,
2025-03-08 19:17:23.769,4.3100,-2.9600,6.6000,15.0625,-131.5000,-24.0000,-0.1399,0.2073,-0.8987,-0.3603,
2025-03-08 19:17:23.769,4.9400,-2.9000,6.6500,18.5625,-132.8125,-26.1250,-0.1510,0.2096,-0.8966,-0.3597,
2025-03-08 19:17:23.769,4.9200,-2.1000,7.1600,25.3125,-133.1250,-26.6875,-0.1623,0.2114,-0.8945,-0.3590,
2025-03-08 19:17:23.770,5.2200,-1.5700,7.2700,25.8750,-133.8125,-26.1250,-0.1736,0.2131,-0.8923,-0.3582,
2025-03-08 19:17:23.785,5.7500,-1.4400,7.4000,20.7500,-135.4375,-29.9375,-0.1851,0.2151,-0.8899,-0.3572,
2025-03-08 19:17:23.788,6.1700,-1.9000,7.1800,16.1875,-134.3125,-31.9375,-0.1963,0.2174,-0.8870,-0.3569,
2025-03-08 19:17:23.799,6.0800,-2.1100,7.2400,10.6875,-133.6875,-28.6875,-0.2071,0.2202,-0.8841,-0.3564,
2025-03-08 19:17:23.808,6.1500,-2.1900,7.1400,4.6875,-136.8125,-25.1875,-0.2180,0.2234,-0.8810,-0.3556,
2025-03-08 19:17:23.817,6.8300,-2.7600,6.0100,1.9375,-142.4375,-23.0000,-0.2290,0.2271,-0.8776,-0.3546,
2025-03-08 19:17:23.829,7.3100,-3.3600,6.0200,15.1875,-137.6250,-21.6250,-0.2404,0.2294,-0.8750,-0.3521,
2025-03-08 19:17:23.843,6.4500,-2.9900,6.1700,15.1875,-137.6250,-21.6250,-0.2514,0.2319,-0.8718,-0.3506,
2025-03-08 19:17:23.849,6.0500,-2.1300,6.2100,21.8125,-140.0625,-24.5625,-0.2628,0.2339,-0.8685,-0.3492,
2025-03-08 19:17:23.859,6.8200,-1.6100,6.5000,15.8750,-148.3125,-32.9375,-0.2748,0.2363,-0.8645,-0.3483,
2025-03-08 19:17:23.868,7.4400,-1.8500,6.4900,11.0625,-145.5000,-27.8750,-0.2863,0.2391,-0.8604,-0.3472,
2025-03-08 19:17:23.886,8.0600,-2.0400,6.6500,7.0000,-144.3125,-24.8750,-0.2977,0.2420,-0.8565,-0.3453,
2025-03-08 19:17:23.887,8.6100,-2.1600,6.8600,7.0000,-144.3125,-24.8750,-0.3088,0.2451,-0.8523,-0.3439,
2025-03-08 19:17:23.897,10.0000,-2.6400,6.0900,19.8125,-146.9375,-25.4375,-0.3204,0.2472,-0.8480,-0.3422,
2025-03-08 19:17:23.908,10.5200,-2.5600,6.2100,33.0000,-146.6875,-22.0000,-0.3323,0.2485,-0.8440,-0.3397,
2025-03-08 19:17:23.918,10.5300,-2.2500,6.4400,47.6875,-147.6875,-19.2500,-0.3446,0.2488,-0.8403,-0.3366,
2025-03-08 19:17:23.930,9.5900,-0.9900,6.6000,58.5000,-149.3750,-21.1875,-0.3575,0.2480,-0.8367,-0.3328,
2025-03-08 19:17:23.937,9.2800,-0.6500,6.5300,62.6875,-152.0000,-25.5625,-0.3705,0.2470,-0.8326,-0.3294,
2025-03-08 19:17:23.948,9.2500,-0.6400,6.4000,61.5625,-155.1875,-26.5625,-0.3836,0.2462,-0.8282,-0.3261,
2025-03-08 19:17:23.962,9.3800,-0.7900,6.0200,56.6250,-155.6875,-21.2500,-0.3965,0.2458,-0.8236,-0.3225,
2025-03-08 19:17:23.967,9.6700,-0.7800,5.4600,51.6250,-156.3125,-15.8750,-0.4091,0.2459,-0.8190,-0.3186,
2025-03-08 19:17:23.985,10.0900,-0.9500,4.4800,49.3125,-154.9375,-9.3125,-0.4213,0.2462,-0.8144,-0.3140,
2025-03-08 19:17:23.987,10.2800,-1.0100,3.9200,46.4375,-148.8750,-6.4375,-0.4329,0.2466,-0.8099,-0.3096,
2025-03-08 19:17:23.997,9.8300,-0.4600,4.3200,38.8125,-144.3750,-7.9375,-0.4439,0.2474,-0.8051,-0.3057,
2025-03-08 19:17:24.008,9.5200,-0.1300,4.5900,29.8750,-144.1250,-13.6875,-0.4548,0.2486,-0.7999,-0.3025,
2025-03-08 19:17:24.026,9.4900,-0.3100,5.0600,26.2500,-146.1875,-25.6875,-0.4658,0.2496,-0.7941,-0.3002,
2025-03-08 19:17:24.027,8.8300,0.7600,4.3300,24.8750,-145.5000,-23.3750,-0.4770,0.2499,-0.7887,-0.2964,
2025-03-08 19:17:24.057,9.6300,-1.1300,4.4300,16.9375,-145.0000,-10.9375,-0.4873,0.2520,-0.7829,-0.2934,
2025-03-08 19:17:24.057,10.3000,-1.3100,4.2900,19.8125,-145.8125,-6.0625,-0.4975,0.2540,-0.7771,-0.2898,
2025-03-08 19:17:24.057,10.6800,-1.3900,3.4200,30.0625,-143.0000,-2.0625,-0.5077,0.2554,-0.7717,-0.2856,
2025-03-08 19:17:24.068,10.3800,-1.4100,3.1400,36.7500,-134.7500,1.8125,-0.5173,0.2563,-0.7667,-0.2810,
2025-03-08 19:17:24.078,10.3900,-0.6400,3.3800,41.5000,-128.5625,-1.8750,-0.5173,0.2563,-0.7667,-0.2810,
2025-03-08 19:17:24.088,10.1800,0.0400,3.4000,45.6250,-126.6875,-10.2500,-0.5269,0.2560,-0.7622,-0.2757,
2025-03-08 19:17:24.100,10.1600,0.2400,3.3600,48.6250,-126.3750,-11.5625,-0.5457,0.2548,-0.7522,-0.2673,
2025-03-08 19:17:24.113,10.1600,-0.1300,3.3000,49.0000,-127.4375,-9.2500,-0.5551,0.2541,-0.7471,-0.2629,
2025-03-08 19:17:24.118,10.0800,-0.5000,3.3200,46.4375,-128.4375,-7.2500,-0.5643,0.2537,-0.7419,-0.2584,
2025-03-08 19:17:24.127,10.3300,-0.6600,3.1800,46.4375,-128.3750,-2.3750,-0.5643,0.2537,-0.7419,-0.2584,
2025-03-08 19:17:24.137,10.5500,-0.5300,2.9500,49.0000,-128.1875,0.4375,-0.5737,0.2528,-0.7369,-0.2528,
2025-03-08 19:17:24.148,11.1500,-0.4400,1.7700,52.4375,-125.6250,0.6875,-0.5826,0.2524,-0.7317,-0.2477,
2025-03-08 19:17:24.161,10.8700,-0.6600,1.7600,53.8750,-120.6250,-2.2500,-0.5915,0.2518,-0.7266,-0.2424,
2025-03-08 19:17:24.173,10.7000,-0.8500,1.9100,53.7500,-114.8750,-7.5000,-0.6000,0.2509,-0.7217,-0.2372,
2025-03-08 19:17:24.179,10.5700,-0.7200,1.3600,50.8125,-108.5625,-12.1250,-0.6082,0.2495,-0.7168,-0.2325,
2025-03-08 19:17:24.189,10.5300,-0.6100,1.5600,49.6875,-101.6250,-9.1875,-0.6163,0.2471,-0.7123,-0.2274,
2025-03-08 19:17:24.198,10.4100,-0.6900,1.9000,52.4375,-99.2500,-3.0625,-0.6235,0.2456,-0.7078,-0.2232,
2025-03-08 19:17:24.209,10.3900,-0.7100,2.0900,53.5625,-98.3125,-1.1250,-0.6305,0.2442,-0.7036,-0.2186,
2025-03-08 19:17:24.221,10.7600,-0.8200,1.5500,50.4375,-93.8125,-0.6250,-0.6373,0.2427,-0.6994,-0.2137,
2025-03-08 19:17:24.227,10.8600,-0.9300,0.6800,37.8125,-81.0625,-0.3125,-0.6438,0.2414,-0.6954,-0.2092,
2025-03-08 19:17:24.237,10.5800,-0.8100,0.2500,18.3125,-59.7500,1.3750,-0.6492,0.2405,-0.6917,-0.2053,
2025-03-08 19:17:24.255,9.6000,0.0400,0.6100,5.4375,-41.7500,6.3750,-0.6530,0.2405,-0.6888,-0.2030,
2025-03-08 19:17:24.258,9.8200,0.5200,0.9500,-4.1250,-34.3125,10.0625,-0.6554,0.2413,-0.6868,-0.2015,
2025-03-08 19:17:24.268,10.4200,0.5700,1.0500,-11.5625,-31.1250,12.3750,-0.6571,0.2427,-0.6849,-0.2004,
2025-03-08 19:17:24.278,11.2400,0.2600,0.5900,-20.1875,-25.0625,12.5000,-0.6585,0.2446,-0.6832,-0.1997,
2025-03-08 19:17:24.293,11.8400,-0.5400,0.0200,-28.5000,-17.8125,10.4375,-0.6596,0.2460,-0.6818,-0.1987,
2025-03-08 19:17:24.313,11.5800,-0.8000,-0.4200,-32.8750,-11.1250,9.1250,-0.6599,0.2485,-0.6804,-0.1993,
2025-03-08 19:17:24.316,11.0000,-1.1000,-0.7300,-31.8125,-3.8750,10.0000,-0.6598,0.2511,-0.6793,-0.2004,
2025-03-08 19:17:24.320,9.9000,-1.1500,-0.6800,-29.6875,-1.9375,10.9375,-0.6593,0.2535,-0.6785,-0.2015,
2025-03-08 19:17:24.328,9.9200,-0.8300,-0.2800,-26.9375,-3.8750,11.5000,-0.6587,0.2559,-0.6780,-0.2025,
2025-03-08 19:17:24.348,9.9500,-0.5400,0.0700,-22.9375,-3.3125,10.7500,-0.6580,0.2586,-0.6772,-0.2037,
2025-03-08 19:17:24.352,9.7800,-0.4200,0.0500,-17.6250,0.0000,8.7500,-0.6576,0.2606,-0.6767,-0.2043,
2025-03-08 19:17:24.358,9.3200,-0.4700,-0.3800,-14.7500,2.3750,6.1250,-0.6570,0.2621,-0.6765,-0.2048,
2025-03-08 19:17:24.368,9.3100,-0.6100,-0.6300,-15.3125,2.7500,5.2500,-0.6565,0.2632,-0.6764,-0.2053,
2025-03-08 19:17:24.377,9.3100,-0.6100,-0.6300,-18.6250,4.6250,5.6250,-0.6560,0.2643,-0.6763,-0.2059,
2025-03-08 19:17:24.388,9.3600,-0.7700,-0.6800,-20.5625,5.4375,7.3750,-0.6553,0.2656,-0.6763,-0.2067,
2025-03-08 19:17:24.399,9.5400,-1.0300,-0.2300,-19.8750,4.5000,8.1875,-0.6545,0.2670,-0.6763,-0.2075,
2025-03-08 19:17:24.413,9.5600,-1.1300,-0.1600,-15.3125,3.6875,8.4375,-0.6537,0.2685,-0.6762,-0.2082,
2025-03-08 19:17:24.419,9.4800,-1.2200,-0.2200,-8.5625,0.8750,7.9375,-0.6530,0.2698,-0.6762,-0.2087,
2025-03-08 19:17:24.428,9.4800,-1.2200,-0.2200,-1.3750,-2.6875,6.5625,-0.6526,0.2708,-0.6762,-0.2087,
2025-03-08 19:17:24.440,9.3600,-1.1500,-0.3700,4.1250,-5.3750,4.9375,-0.6526,0.2712,-0.6762,-0.2083,
2025-03-08 19:17:24.449,9.5200,-1.0800,-0.5200,7.3750,-5.5625,3.0625,-0.6529,0.2714,-0.6760,-0.2077,
2025-03-08 19:17:24.459,9.5900,-1.0100,-0.5400,8.8125,-5.0625,2.2500,-0.6533,0.2712,-0.6759,-0.2070,
2025-03-08 19:17:24.475,9.7500,-0.7200,-0.4900,8.8750,-5.5625,2.8750,-0.6539,0.2711,-0.6756,-0.2061,
2025-03-08 19:17:24.478,9.7500,-0.7200,-0.4900,7.1250,-5.8750,2.9375,-0.6546,0.2709,-0.6753,-0.2052,
2025-03-08 19:17:24.488,9.8800,-0.4500,-0.4100,3.8750,-5.6250,2.3750,-0.6557,0.2692,-0.6757,-0.2028,
2025-03-08 19:17:24.503,10.1700,-0.2200,-0.2800,0.6875,-4.6250,1.0000,-0.6560,0.2692,-0.6755,-0.2024,
2025-03-08 19:17:24.509,10.1300,-0.3800,-0.3200,-2.5625,-2.6250,-1.0000,-0.6563,0.2693,-0.6752,-0.2022,
2025-03-08 19:17:24.518,10.0000,-0.5900,-0.3100,-6.1875,-0.8125,-2.5000,-0.6564,0.2694,-0.6750,-0.2023,
2025-03-08 19:17:24.534,10.0000,-0.5900,-0.3100,-6.1875,-0.8125,-2.5000,-0.6564,0.2697,-0.6748,-0.2028,
2025-03-08 19:17:24.539,9.8400,-0.7100,-0.2600,-5.1875,1.1875,-3.3750,-0.6563,0.2699,-0.6746,-0.2034,
2025-03-08 19:17:24.549,9.7000,-0.8400,-0.3000,-5.1250,2.3125,-2.4375,-0.6562,0.2700,-0.6745,-0.2039,
2025-03-08 19:17:24.563,9.7300,-0.7800,-0.2200,-6.8750,4.9375,-1.1250,-0.6561,0.2701,-0.6744,-0.2043,
2025-03-08 19:17:24.571,9.6400,-0.7000,-0.3300,-9.3125,7.8750,0.0625,-0.6557,0.2703,-0.6745,-0.2049,
2025-03-08 19:17:24.577,9.6400,-0.7000,-0.3300,-9.3125,7.8750,0.0625,-0.6551,0.2707,-0.6748,-0.2056,
2025-03-08 19:17:24.593,9.7000,-0.6900,-0.2900,-12.3125,9.5000,1.0625,-0.6544,0.2710,-0.6751,-0.2061,
2025-03-08 19:17:24.598,9.8900,-0.9100,-0.2000,-14.6875,9.7500,1.3750,-0.6537,0.2717,-0.6752,-0.2071,
2025-03-08 19:17:24.609,9.7300,-1.2300,-0.2900,-13.0625,11.2500,1.0625,-0.6529,0.2725,-0.6754,-0.2081,
2025-03-08 19:17:24.623,9.6500,-1.2600,-0.2900,-12.0000,12.0000,1.1875,-0.6520,0.2731,-0.6757,-0.2090,
2025-03-08 19:17:24.627,9.6500,-1.2600,-0.2900,-12.0000,12.0000,1.1875,-0.6511,0.2736,-0.6762,-0.2098,
2025-03-08 19:17:24.647,9.6700,-1.1700,-0.2800,-12.5000,11.9375,1.5625,-0.6500,0.2745,-0.6765,-0.2110,
2025-03-08 19:17:24.653,10.1400,-0.7800,-0.3600,-15.3125,9.7500,2.3125,-0.6491,0.2752,-0.6768,-0.2119,
2025-03-08 19:17:24.659,10.1300,-0.7400,-0.3200,-15.5625,10.5625,2.6875,-0.6483,0.2759,-0.6770,-0.2128,
2025-03-08 19:17:24.668,10.0000,-0.7500,-0.3600,-13.4375,11.0625,2.1875,-0.6473,0.2768,-0.6773,-0.2138,
2025-03-08 19:17:24.677,10.0000,-0.7500,-0.3600,-13.4375,11.0625,2.1875,-0.6464,0.2775,-0.6776,-0.2146,
2025-03-08 19:17:24.687,9.8200,-1.1000,-0.4900,-12.0000,11.2500,1.3750,-0.6455,0.2780,-0.6780,-0.2154,
2025-03-08 19:17:24.703,9.7100,-1.2500,-0.3600,-17.9375,12.9375,1.3125,-0.6445,0.2787,-0.6783,-0.2164,
2025-03-08 19:17:24.713,9.7200,-1.2400,-0.2800,-23.5000,13.1875,2.1250,-0.6434,0.2795,-0.6786,-0.2176,
2025-03-08 19:17:24.721,9.8300,-1.0900,-0.1700,-25.2500,13.8125,3.0000,-0.6422,0.2808,-0.6788,-0.2191,
2025-03-08 19:17:24.728,9.8300,-1.0900,-0.1700,-25.2500,13.8125,3.0000,-0.6408,0.2821,-0.6790,-0.2206,
2025-03-08 19:17:24.738,9.8000,-1.1200,-0.0700,-21.1250,13.3125,3.3125,-0.6396,0.2832,-0.6793,-0.2219,
2025-03-08 19:17:24.753,9.5700,-1.3300,-0.2100,-6.0000,8.6250,1.7500,-0.6387,0.2839,-0.6796,-0.2227,
2025-03-08 19:17:24.763,9.5200,-1.2400,-0.1000,-2.8750,7.1875,2.4375,-0.6380,0.2842,-0.6800,-0.2231,
2025-03-08 19:17:24.783,9.5800,-1.0400,-0.0700,-2.0000,6.4375,3.5625,-0.6375,0.2844,-0.6804,-0.2233,
2025-03-08 19:17:24.783,9.5800,-1.0400,-0.0700,-2.0000,6.4375,3.5625,-0.6371,0.2847,-0.6806,-0.2233,
2025-03-08 19:17:24.788,9.6300,-0.9200,-0.1000,-3.0000,5.6875,4.2500,-0.6368,0.2851,-0.6807,-0.2233,
2025-03-08 19:17:24.805,9.5800,-0.7900,-0.1700,-3.7500,4.8125,3.3125,-0.6362,0.2855,-0.6810,-0.2234,
2025-03-08 19:17:24.809,9.5100,-0.7900,-0.1900,-1.1875,3.5625,2.0625,-0.6358,0.2858,-0.6812,-0.2235,
2025-03-08 19:17:24.819,9.4500,-0.9100,-0.1800,3.3125,2.8750,1.3750,-0.6355,0.2859,-0.6814,-0.2236,
2025-03-08 19:17:24.827,9.4900,-1.0600,0.0200,3.3125,2.8750,1.3750,-0.6354,0.2857,-0.6817,-0.2234,
2025-03-08 19:17:24.837,9.5000,-1.0800,0.1000,7.9375,3.0625,0.9375,-0.6353,0.2853,-0.6821,-0.2230,
2025-03-08 19:17:24.849,9.6000,-1.0900,0.1000,11.0000,14.4375,0.8750,-0.6352,0.2847,-0.6826,-0.2225,
2025-03-08 19:17:24.866,9.5800,-0.9500,0.0200,4.0625,22.0000,1.9375,-0.6347,0.2838,-0.6835,-0.2222,
2025-03-08 19:17:24.870,9.4900,-0.8100,0.3600,-1.9375,23.3125,2.6875,-0.6335,0.2833,-0.6849,-0.2223,
2025-03-08 19:17:24.877,9.7500,-0.7900,0.5600,-1.9375,23.3125,2.6875,-0.6320,0.2831,-0.6861,-0.2229,
2025-03-08 19:17:24.893,10.0800,-0.8300,0.6500,-3.5625,22.9375,3.5625,-0.6305,0.2831,-0.6873,-0.2234,
2025-03-08 19:17:24.899,10.5400,-1.0500,0.7500,1.8750,38.3125,5.8750,-0.6287,0.2829,-0.6889,-0.2238,
2025-03-08 19:17:24.909,10.5800,-1.0500,1.0000,1.5000,48.0000,6.0625,-0.6264,0.2823,-0.6911,-0.2243,
2025-03-08 19:17:24.926,10.6500,-0.9000,1.4500,0.3125,53.9375,8.0625,-0.6235,0.2817,-0.6938,-0.2250,
2025-03-08 19:17:24.928,10.7600,-0.6500,1.9200,0.3125,53.9375,8.0625,-0.6201,0.2811,-0.6968,-0.2258,
2025-03-08 19:17:24.948,11.4500,-0.7800,2.3600,-2.7500,57.2500,11.2500,-0.6164,0.2808,-0.6999,-0.2266,
2025-03-08 19:17:24.956,11.5500,-0.9000,2.5100,-18.5000,72.3125,16.5625,-0.6122,0.2808,-0.7032,-0.2278,
2025-03-08 19:17:24.965,11.7500,-0.7600,2.5900,-25.7500,84.9375,19.1875,-0.6071,0.2814,-0.7068,-0.2295,
2025-03-08 19:17:24.973,12.2700,-0.6000,2.8300,-31.3125,97.6875,20.3125,-0.6011,0.2823,-0.7109,-0.2317,
2025-03-08 19:17:24.977,12.4900,-0.6700,2.9100,-31.3125,97.6875,20.3125,-0.5941,0.2833,-0.7154,-0.2344,
2025-03-08 19:17:24.991,12.7000,-0.7600,3.0200,-36.8750,110.4375,22.0625,-0.5859,0.2848,-0.7203,-0.2380,
2025-03-08 19:17:25.013,12.4500,-0.7900,3.3800,-58.8750,136.1875,24.3750,-0.5769,0.2862,-0.7258,-0.2418,
2025-03-08 19:17:25.014,11.5600,-0.9800,3.9400,-75.0625,146.6875,25.5625,-0.5668,0.2882,-0.7314,-0.2465,
2025-03-08 19:17:25.020,11.2000,-1.1500,4.2200,-87.6875,154.1250,26.2500,-0.5554,0.2910,-0.7371,-0.2520,
2025-03-08 19:17:25.031,11.0900,-1.5200,4.3700,-87.6875,154.1250,26.2500,-0.5433,0.2944,-0.7427,-0.2582,
2025-03-08 19:17:25.038,11.1000,-1.9600,4.4000,-92.6875,160.7500,26.5625,-0.5304,0.2978,-0.7482,-0.2648,
2025-03-08 19:17:25.050,10.7700,-2.4000,4.4900,-87.1250,178.3125,27.8750,-0.5169,0.3010,-0.7540,-0.2714,
2025-03-08 19:17:25.072,10.6800,-2.6000,4.6200,-81.6875,185.1250,29.9375,-0.5028,0.3036,-0.7601,-0.2779,
2025-03-08 19:17:25.072,10.6900,-2.9700,4.7600,-75.3750,191.8125,32.1250,-0.4882,0.3057,-0.7665,-0.2842,
2025-03-08 19:17:25.080,10.3500,-3.7800,5.0800,-75.3750,191.8125,32.1250,-0.4730,0.3073,-0.7731,-0.2901,
2025-03-08 19:17:25.087,10.3700,-3.6800,5.1800,-64.5000,199.0000,34.4375,-0.4575,0.3079,-0.7801,-0.2956,
2025-03-08 19:17:25.102,10.5100,-3.4300,5.2800,-37.1875,207.2500,40.2500,-0.4417,0.3076,-0.7875,-0.3003,
2025-03-08 19:17:25.112,10.5200,-3.1500,5.2600,-30.8125,211.2500,38.8125,-0.4259,0.3063,-0.7951,-0.3043,
2025-03-08 19:17:25.126,10.4400,-2.6000,5.1900,-30.1875,215.7500,39.1875,-0.4098,0.3043,-0.8028,-0.3082,
2025-03-08 19:17:25.130,10.4100,-2.4000,5.1200,-30.1875,215.7500,39.1875,-0.3933,0.3020,-0.8104,-0.3121,
2025-03-08 19:17:25.139,10.2800,-2.4900,5.1200,-33.8750,218.5625,42.0625,-0.3764,0.2999,-0.8177,-0.3159,
2025-03-08 19:17:25.155,10.1900,-2.7700,5.1400,-45.7500,220.8125,48.6875,-0.3588,0.2982,-0.8248,-0.3195,
2025-03-08 19:17:25.169,10.1000,-2.9600,5.1500,-50.5000,221.3125,52.0000,-0.3409,0.2968,-0.8315,-0.3230,
2025-03-08 19:17:25.171,9.9200,-3.0000,5.2300,-51.4375,221.8125,54.1250,-0.3226,0.2957,-0.8378,-0.3263,
2025-03-08 19:17:25.179,9.6900,-3.0600,5.3500,-51.4375,221.8125,54.1250,-0.3041,0.2947,-0.8439,-0.3293,
2025-03-08 19:17:25.193,9.0300,-3.2000,5.5300,-50.3750,221.5625,54.9375,-0.2855,0.2935,-0.8497,-0.3322,
2025-03-08 19:17:25.201,8.5500,-3.3400,5.7900,-49.5000,217.8750,54.0625,-0.2669,0.2922,-0.8552,-0.3348,
2025-03-08 19:17:25.217,8.2300,-3.4600,5.9200,-45.6875,214.8750,54.7500,-0.2484,0.2907,-0.8602,-0.3373,
2025-03-08 19:17:25.223,7.7400,-3.9700,6.0300,-39.0625,212.1875,56.9375,-0.2300,0.2890,-0.8650,-0.3395,
2025-03-08 19:17:25.227,7.3300,-4.1900,6.0600,-39.0625,212.1875,56.9375,-0.2120,0.2869,-0.8697,-0.3412,
2025-03-08 19:17:25.247,6.8500,-4.2300,6.3000,-32.3125,208.6250,57.5625,-0.1943,0.2842,-0.8741,-0.3426,
2025-03-08 19:17:25.265,6.4900,-4.3300,6.4200,-13.6250,197.4375,61.2500,-0.1772,0.2810,-0.8784,-0.3435,
2025-03-08 19:17:25.265,6.1400,-3.8800,6.4800,-5.0625,192.7500,62.1250,-0.1607,0.2772,-0.8827,-0.3438,
2025-03-08 19:17:25.274,5.9600,-3.8300,6.5800,1.6875,188.5000,61.8125,-0.1447,0.2728,-0.8869,-0.3437,
2025-03-08 19:17:25.278,5.6700,-3.6900,6.6100,1.6875,188.5000,61.8125,-0.1292,0.2679,-0.8909,-0.3433,
2025-03-08 19:17:25.290,4.9500,-3.7200,6.2800,4.8750,184.9375,62.4375,-0.1139,0.2628,-0.8947,-0.3428,
2025-03-08 19:17:25.300,4.6400,-3.6100,6.1500,3.8750,179.3125,62.6875,-0.0991,0.2579,-0.8982,-0.3419,
2025-03-08 19:17:25.315,4.3600,-3.2600,6.3100,2.0000,172.4375,62.8125,-0.0847,0.2532,-0.9014,-0.3408,
2025-03-08 19:17:25.320,4.0700,-2.9400,6.4100,1.6250,164.0000,61.6875,-0.0709,0.2488,-0.9043,-0.3396,
2025-03-08 19:17:25.327,3.9000,-3.1200,6.3800,4.3750,157.6875,60.4375,-0.0577,0.2443,-0.9070,-0.3383,
2025-03-08 19:17:25.337,3.4500,-3.3600,6.4200,5.1875,153.0625,56.3750,-0.0450,0.2398,-0.9093,-0.3370,
2025-03-08 19:17:25.350,3.1700,-3.4900,6.5300,4.7500,147.6250,52.8750,-0.0327,0.2353,-0.9114,-0.3359,
2025-03-08 19:17:25.365,2.7800,-3.0800,6.7300,5.6250,140.7500,53.0625,-0.0210,0.2311,-0.9133,-0.3346,
2025-03-08 19:17:25.376,2.4400,-2.9600,6.7100,6.2500,135.7500,55.3750,-0.0096,0.2268,-0.9152,-0.3329,
2025-03-08 19:17:25.378,2.0800,-3.0400,6.8800,5.8125,133.0000,53.4375,0.0015,0.2227,-0.9169,-0.3314,
2025-03-08 19:17:25.388,1.6600,-3.2400,7.0400,8.8750,126.8125,49.7500,0.0120,0.2184,-0.9184,-0.3298,
2025-03-08 19:17:25.404,1.5300,-3.7000,6.5600,12.3125,117.8750,48.1250,0.0217,0.2141,-0.9197,-0.3283,
2025-03-08 19:17:25.411,1.0200,-3.5200,6.8200,13.5625,112.5000,46.0000,0.0309,0.2098,-0.9210,-0.3267,
2025-03-08 19:17:25.423,0.8000,-3.3400,6.5900,18.1250,106.3750,42.1875,0.0394,0.2054,-0.9222,-0.3254,
2025-03-08 19:17:25.438,0.5000,-2.9000,6.9600,17.8125,98.5625,43.2500,0.0555,0.1966,-0.9244,-0.3222,
2025-03-08 19:17:25.450,0.2700,-2.7100,6.8500,16.1250,92.7500,38.6875,0.0629,0.1926,-0.9252,-0.3208,
2025-03-08 19:17:25.467,0.2200,-2.6300,6.5300,13.3750,86.0625,36.2500,0.0698,0.1890,-0.9260,-0.3194,
2025-03-08 19:17:25.477,-0.4500,-2.2900,6.7400,7.4375,80.0625,35.4375,0.0765,0.1861,-0.9265,-0.3179,
2025-03-08 19:17:25.488,-0.2200,-2.1300,6.9300,-15.3750,68.1875,36.5625,0.0890,0.1832,-0.9272,-0.3144,
2025-03-08 19:17:25.500,-0.4400,-2.4600,7.0700,-24.1875,69.2500,34.3125,0.0956,0.1830,-0.9272,-0.3126,
2025-03-08 19:17:25.511,-0.9500,-3.3100,6.9500,-30.7500,67.1250,28.6875,0.1021,0.1834,-0.9269,-0.3111,
2025-03-08 19:17:25.530,-1.6400,-3.9200,6.9500,-27.3125,57.5625,24.3125,0.1140,0.1843,-0.9262,-0.3085,
2025-03-08 19:17:25.549,-0.9000,-3.8300,7.3800,-21.8750,49.9375,25.4375,0.1188,0.1845,-0.9261,-0.3068,
2025-03-08 19:17:25.552,-0.8900,-3.6400,7.5600,-15.8750,44.0000,25.6875,0.1230,0.1843,-0.9261,-0.3054,
2025-03-08 19:17:25.561,-1.2400,-3.1900,7.5800,-9.4375,39.5625,23.8750,0.1267,0.1838,-0.9261,-0.3040,
2025-03-08 19:17:25.581,-1.4800,-3.0200,7.1100,-7.3750,27.8125,22.3750,0.1326,0.1830,-0.9264,-0.3012,
2025-03-08 19:17:25.587,-1.9500,-3.3300,7.5700,-13.2500,30.2500,19.2500,0.1356,0.1830,-0.9263,-0.3000,
2025-03-08 19:17:25.599,-1.9300,-4.0700,7.3100,-13.1250,29.6875,16.6875,0.1385,0.1831,-0.9262,-0.2990,
2025-03-08 19:17:25.614,-1.7800,-4.7500,7.3000,-8.0625,26.1875,13.7500,0.1409,0.1829,-0.9261,-0.2982,
2025-03-08 19:17:25.622,-1.3900,-4.6000,8.0900,-0.2500,19.6250,11.3750,0.1426,0.1823,-0.9262,-0.2976,
2025-03-08 19:17:25.627,-1.3100,-3.8400,8.2200,10.8750,10.1250,11.3750,0.1434,0.1810,-0.9265,-0.2971,
2025-03-08 19:17:25.637,-1.2900,-3.1000,7.7800,17.3750,4.1875,12.8750,0.1434,0.1794,-0.9271,-0.2963,
2025-03-08 19:17:25.650,-1.4700,-3.1800,7.2700,13.5000,5.5000,16.0000,0.1438,0.1780,-0.9276,-0.2953,
2025-03-08 19:17:25.659,-1.9200,-3.1100,7.3200,2.3750,8.1250,13.3750,0.1446,0.1775,-0.9279,-0.2944,
2025-03-08 19:17:25.673,-2.2300,-3.7600,7.5200,-7.6875,10.0625,10.6250,0.1457,0.1777,-0.9279,-0.2936,
2025-03-08 19:17:25.677,-2.4000,-4.3100,7.7200,-12.5625,10.8125,7.8125,0.1470,0.1783,-0.9278,-0.2930,
2025-03-08 19:17:25.688,-1.8300,-4.8300,8.2100,-9.8750,7.6250,7.3125,0.1479,0.1788,-0.9277,-0.2924,
2025-03-08 19:17:25.710,-1.6300,-4.5600,8.5100,-2.8750,3.3750,7.7500,0.1484,0.1788,-0.9278,-0.2918,
2025-03-08 19:17:25.711,-1.4800,-4.0800,8.4900,3.0000,-1.7500,8.6875,0.1483,0.1785,-0.9281,-0.2911,
2025-03-08 19:17:25.730,-1.6300,-3.4000,8.3300,5.5625,-3.8125,10.2500,0.1480,0.1781,-0.9285,-0.2903,
2025-03-08 19:17:25.730,-1.4000,-3.6100,8.4800,4.1875,-3.0625,10.3125,0.1478,0.1777,-0.9289,-0.2895,
2025-03-08 19:17:25.738,-1.4700,-3.8100,8.6300,0.4375,1.1875,8.5000,0.1481,0.1776,-0.9290,-0.2889,
2025-03-08 19:17:25.749,-1.7600,-4.0500,8.4900,-2.7500,3.5625,5.0000,0.1485,0.1776,-0.9291,-0.2885,
2025-03-08 19:17:25.760,-2.0200,-4.3000,8.1100,-1.0000,3.8125,3.8750,0.1489,0.1776,-0.9291,-0.2883,
2025-03-08 19:17:25.771,-1.9100,-4.1500,8.1600,3.9375,1.4375,4.5000,0.1490,0.1771,-0.9293,-0.2880,
2025-03-08 19:17:25.779,-1.7800,-3.8600,8.3300,8.3750,-2.2500,5.9375,0.1487,0.1765,-0.9296,-0.2875,
2025-03-08 19:17:25.793,-1.1900,-3.5300,8.5100,9.2500,-6.4375,7.0000,0.1481,0.1758,-0.9299,-0.2872,
2025-03-08 19:17:25.798,-1.3600,-3.5100,8.6700,8.0000,-7.0625,7.5000,0.1475,0.1752,-0.9303,-0.2866,
2025-03-08 19:17:25.815,-1.2700,-3.5900,8.4500,4.1250,-6.7500,5.6875,0.1469,0.1750,-0.9305,-0.2861,
2025-03-08 19:17:25.827,-1.4700,-4.0700,8.5200,1.5625,-4.5625,2.5000,0.1465,0.1749,-0.9307,-0.2859,
2025-03-08 19:17:25.832,-1.6100,-4.4200,8.5300,-1.0625,-2.1875,1.0625,0.1464,0.1751,-0.9307,-0.2858,
2025-03-08 19:17:25.859,-1.6400,-4.4700,8.3900,1.9375,-2.5000,-0.3125,0.1461,0.1750,-0.9308,-0.2857,
2025-03-08 19:17:25.859,-1.7800,-4.3900,8.3000,6.5625,-4.2500,0.5625,0.1456,0.1746,-0.9309,-0.2858,
2025-03-08 19:17:25.866,-1.5900,-3.5800,8.1900,7.5000,-8.0000,2.9375,0.1449,0.1741,-0.9312,-0.2855,
2025-03-08 19:17:25.882,-1.3900,-3.4400,8.3500,5.8125,-11.6875,6.1875,0.1439,0.1739,-0.9316,-0.2849,
2025-03-08 19:17:25.882,-1.3400,-3.6200,8.5500,-0.1875,-11.5625,6.0625,0.1431,0.1741,-0.9319,-0.2842,
2025-03-08 19:17:25.888,-1.4600,-3.8500,8.7900,-7.2500,-9.8125,3.0000,0.1425,0.1749,-0.9320,-0.2837,
2025-03-08 19:17:25.898,-1.5200,-4.5600,8.8800,-9.9375,-7.2500,0.2500,0.1422,0.1758,-0.9319,-0.2835,
2025-03-08 19:17:25.912,-1.6400,-4.7800,8.6300,-6.1250,-3.6250,-1.0000,0.1420,0.1764,-0.9319,-0.2834,
2025-03-08 19:17:25.919,-1.5700,-4.6500,8.5300,1.1250,-4.5000,0.0000,0.1417,0.1764,-0.9319,-0.2834,
2025-03-08 19:17:25.935,-1.2800,-3.7800,8.6100,7.5625,-8.2500,1.2500,0.1408,0.1760,-0.9322,-0.2833,
2025-03-08 19:17:25.936,-1.1400,-3.3700,8.5000,9.6250,-11.4375,2.0000,0.1397,0.1755,-0.9325,-0.2830,
2025-03-08 19:17:25.950,-1.1400,-3.2100,8.4400,8.1250,-11.8750,3.2500,0.1386,0.1751,-0.9329,-0.2827,
2025-03-08 19:17:25.958,-1.1400,-3.3000,8.5400,0.6875,-10.8125,2.3750,0.1378,0.1753,-0.9330,-0.2823,
2025-03-08 19:17:25.974,-1.1000,-3.7800,8.6800,-8.1875,-10.3750,0.7500,0.1372,0.1762,-0.9330,-0.2820,
2025-03-08 19:17:25.979,-1.2100,-4.1800,8.7200,-12.1875,-8.6875,-0.7500,0.1368,0.1774,-0.9330,-0.2818,
2025-03-08 19:17:25.991,-1.3700,-4.4500,8.5600,-10.5000,-6.6250,-1.6875,0.1364,0.1785,-0.9330,-0.2812,
2025-03-08 19:17:26.013,-1.4100,-4.5500,8.6000,-5.9375,-7.6875,-1.7500,0.1359,0.1791,-0.9329,-0.2812,
2025-03-08 19:17:26.013,-1.2600,-4.3400,8.4200,0.9375,-10.3125,-0.8750,0.1351,0.1793,-0.9330,-0.2811,
2025-03-08 19:17:26.019,-1.0800,-4.0000,8.4800,7.3125,-13.6250,0.0625,0.1338,0.1790,-0.9333,-0.2810,
2025-03-08 19:17:26.041,-0.9300,-3.4800,8.4300,9.5625,-16.3125,0.9375,0.1323,0.1787,-0.9337,-0.2808,
2025-03-08 19:17:26.041,-0.8400,-3.1000,8.2600,8.3750,-17.4375,1.8750,0.1307,0.1785,-0.9341,-0.2801,
2025-03-08 19:17:26.064,-0.7800,-3.1700,8.3100,3.3750,-16.8750,1.0000,0.1293,0.1785,-0.9344,-0.2798,
2025-03-08 19:17:26.064,-0.8500,-3.4900,8.4500,-3.7500,-16.6875,-1.7500,0.1281,0.1793,-0.9345,-0.2797,
2025-03-08 19:17:26.069,-1.1100,-3.9400,8.3600,-7.9375,-15.5000,-5.3125,0.1269,0.1803,-0.9344,-0.2798,
2025-03-08 19:17:26.082,-1.3800,-4.2200,8.0700,-7.2500,-15.6250,-7.6250,0.1257,0.1813,-0.9343,-0.2801,
2025-03-08 19:17:26.088,-1.3700,-4.1000,8.0600,-2.5625,-18.9375,-8.1875,0.1241,0.1821,-0.9343,-0.2801,
2025-03-08 19:17:26.098,-1.4500,-3.8200,8.1300,2.7500,-24.0625,-7.6250,0.1220,0.1826,-0.9344,-0.2804,
2025-03-08 19:17:26.117,-0.7000,-3.2600,7.4400,3.3125,-30.6250,-7.2500,0.1194,0.1831,-0.9346,-0.2805,
2025-03-08 19:17:26.122,-0.8600,-3.2100,7.3700,1.8125,-33.5625,-4.9375,0.1166,0.1838,-0.9349,-0.2804,
2025-03-08 19:17:26.158,-0.9800,-3.2100,7.4800,-1.0000,-31.7500,-4.5000,0.1141,0.1847,-0.9351,-0.2803,
2025-03-08 19:17:26.158,-0.8300,-3.2100,7.6400,-7.0000,-32.2500,-6.8125,0.1115,0.1861,-0.9352,-0.2800,
2025-03-08 19:17:26.158,-0.8200,-3.6200,7.8700,-13.0000,-32.1875,-10.0000,0.1091,0.1880,-0.9350,-0.2801,
2025-03-08 19:17:26.160,-0.9900,-4.0100,7.8400,-15.9375,-32.5000,-12.9375,0.1068,0.1901,-0.9348,-0.2805,
2025-03-08 19:17:26.168,-1.0600,-4.1800,7.9200,-12.3750,-34.8750,-14.2500,0.1041,0.1921,-0.9345,-0.2810,
2025-03-08 19:17:26.180,-0.5300,-3.9800,7.7000,-7.3750,-40.6875,-14.5625,0.1008,0.1937,-0.9344,-0.2814,
2025-03-08 19:17:26.188,-0.4700,-3.7200,7.3700,0.1250,-44.3125,-14.2500,0.0970,0.1949,-0.9345,-0.2817,
2025-03-08 19:17:26.197,-0.5000,-3.3900,7.3100,6.5625,-46.1875,-14.3125,0.0930,0.1956,-0.9346,-0.2821,
2025-03-08 19:17:26.213,-0.4200,-2.9800,7.5300,9.5625,-48.1250,-14.3750,0.0887,0.1961,-0.9348,-0.2825,
2025-03-08 19:17:26.217,-0.0700,-3.3300,7.8400,8.2500,-49.6250,-15.3750,0.0844,0.1968,-0.9349,-0.2830,
2025-03-08 19:17:26.228,-0.3100,-3.9500,7.5500,7.6250,-46.5000,-17.6250,0.0802,0.1974,-0.9350,-0.2836,
2025-03-08 19:17:26.243,-0.5200,-4.3900,7.4300,4.5625,-45.0000,-18.3750,0.0762,0.1982,-0.9349,-0.2844,
2025-03-08 19:17:26.251,-0.6400,-4.4000,7.3600,3.8750,-50.5625,-18.3125,0.0718,0.1992,-0.9348,-0.2850,
2025-03-08 19:17:26.257,-0.3400,-3.5100,7.5500,4.6875,-58.4375,-17.9375,0.0668,0.2004,-0.9348,-0.2855,
2025-03-08 19:17:26.273,0.0100,-2.9300,7.6300,4.6875,-64.3125,-19.8750,0.0613,0.2017,-0.9348,-0.2860,
2025-03-08 19:17:26.277,0.4200,-2.5500,7.7000,1.3750,-67.0625,-21.6875,0.0555,0.2033,-0.9346,-0.2866,
2025-03-08 19:17:26.295,0.8300,-2.8800,8.2500,-6.6250,-67.4375,-22.8125,0.0500,0.2056,-0.9342,-0.2871,
2025-03-08 19:17:26.302,0.9300,-3.3500,8.5600,-17.8125,-70.1250,-24.7500,0.0444,0.2087,-0.9336,-0.2878,
2025-03-08 19:17:26.307,0.8500,-4.0000,8.6000,-26.1875,-71.6875,-28.5625,0.0389,0.2127,-0.9327,-0.2886,
2025-03-08 19:17:26.318,0.5700,-4.5700,8.4700,-27.5625,-69.8125,-32.5000,0.0335,0.2167,-0.9316,-0.2898,
2025-03-08 19:17:26.328,0.4200,-4.7000,8.2800,-21.1250,-70.8750,-34.8125,0.0278,0.2202,-0.9305,-0.2913,
2025-03-08 19:17:26.344,0.9100,-4.6400,7.9000,-9.6250,-77.3125,-36.1875,0.0213,0.2229,-0.9296,-0.2926,
2025-03-08 19:17:26.348,1.3900,-4.2500,7.6800,4.0625,-80.6875,-33.6250,0.0142,0.2246,-0.9290,-0.2938,
2025-03-08 19:17:26.363,1.7700,-3.7200,7.8000,15.6875,-81.5000,-32.2500,0.0068,0.2255,-0.9286,-0.2947,
2025-03-08 19:17:26.367,1.9300,-3.5200,8.0300,19.1875,-83.5000,-32.3125,-0.0008,0.2260,-0.9282,-0.2957,
2025-03-08 19:17:26.377,1.9900,-3.4900,8.1200,16.1250,-87.4375,-33.1875,-0.0087,0.2269,-0.9276,-0.2966,
2025-03-08 19:17:26.393,1.9500,-3.6100,8.0600,10.6875,-91.2500,-33.0625,-0.0169,0.2283,-0.9271,-0.2969,
2025-03-08 19:17:26.401,2.1600,-3.5200,7.9100,6.0625,-95.7500,-31.5000,-0.0251,0.2302,-0.9262,-0.2975,
2025-03-08 19:17:26.407,2.6500,-3.6200,7.3800,2.8125,-101.1250,-30.1875,-0.0338,0.2325,-0.9253,-0.2979,
2025-03-08 19:17:26.417,3.1500,-3.7700,7.0300,-0.9375,-104.0000,-31.5625,-0.0425,0.2350,-0.9241,-0.2983,
2025-03-08 19:17:26.427,2.7200,-3.6600,7.3700,0.3750,-98.3125,-35.1250,-0.0508,0.2374,-0.9228,-0.2991,
2025-03-08 19:17:26.450,2.6300,-3.5500,7.4400,2.3125,-97.1250,-37.8750,-0.0508,0.2374,-0.9228,-0.2991,
2025-03-08 19:17:26.450,2.7300,-3.6500,7.6400,2.0000,-101.2500,-38.1875,-0.0594,0.2394,-0.9217,-0.2993,
2025-03-08 19:17:26.461,2.8400,-3.8700,7.8400,-1.2500,-106.0000,-35.5000,-0.0770,0.2442,-0.9187,-0.3008,
2025-03-08 19:17:26.468,2.9100,-3.8200,8.0000,-2.3750,-110.3125,-30.0625,-0.0862,0.2470,-0.9171,-0.3008,
2025-03-08 19:17:26.478,3.3200,-3.5100,7.9500,-1.3750,-115.8750,-25.4375,-0.0956,0.2499,-0.9155,-0.3004,
2025-03-08 19:17:26.487,4.4000,-3.6900,7.0900,-3.5000,-122.1250,-23.8125,-0.1059,0.2529,-0.9143,-0.2981,
2025-03-08 19:17:26.497,5.1700,-4.2200,6.5200,-7.1875,-116.1250,-27.4375,-0.1153,0.2560,-0.9124,-0.2978,
2025-03-08 19:17:26.508,4.6000,-4.4900,7.0500,-5.0000,-100.4375,-31.5000,-0.1236,0.2587,-0.9105,-0.2981,
2025-03-08 19:17:26.519,3.8600,-3.9400,7.3200,2.3750,-96.1250,-35.5000,-0.1318,0.2605,-0.9086,-0.2987,
2025-03-08 19:17:26.533,3.7600,-3.9000,7.6600,2.7500,-106.3750,-41.8750,-0.1410,0.2625,-0.9064,-0.2995,
2025-03-08 19:17:26.537,4.2000,-4.9400,7.6300,2.6875,-113.5000,-44.0625,-0.1508,0.2646,-0.9040,-0.2999,
2025-03-08 19:17:26.548,4.5400,-4.8900,7.4800,10.6250,-115.8125,-38.6250,-0.1608,0.2662,-0.9018,-0.3001,
2025-03-08 19:17:26.557,4.8700,-4.2600,7.3700,19.7500,-120.9375,-31.6250,-0.1712,0.2673,-0.8997,-0.2995,
2025-03-08 19:17:26.567,5.4200,-3.3100,7.3000,26.4375,-127.6250,-27.6250,-0.1822,0.2681,-0.8977,-0.2983,
2025-03-08 19:17:26.579,7.5700,-2.7400,5.9800,29.5625,-131.6250,-27.2500,-0.1935,0.2687,-0.8956,-0.2969,
2025-03-08 19:17:26.595,8.1700,-2.9000,6.0600,27.2500,-126.8125,-32.3125,-0.2050,0.2690,-0.8937,-0.2947,
2025-03-08 19:17:26.606,8.1200,-3.1200,6.2900,23.0000,-118.5000,-40.0000,-0.2153,0.2695,-0.8912,-0.2946,
2025-03-08 19:17:26.607,7.1100,-3.3400,6.2500,20.6875,-118.6250,-44.5000,-0.2258,0.2701,-0.8883,-0.2949,
2025-03-08 19:17:26.618,6.9100,-3.3400,6.3500,22.1875,-126.2500,-48.3125,-0.2369,0.2706,-0.8852,-0.2952,
2025-03-08 19:17:26.628,6.8800,-3.3400,6.3500,28.2500,-135.6875,-53.5000,-0.2490,0.2707,-0.8817,-0.2955,
2025-03-08 19:17:26.636,6.9800,-3.1200,6.2500,35.7500,-143.6250,-54.3125,-0.2490,0.2707,-0.8817,-0.2955,
2025-03-08 19:17:26.653,7.1900,-2.6000,5.7600,39.1875,-150.2500,-51.4375,-0.2620,0.2703,-0.8783,-0.2949,
2025-03-08 19:17:26.657,7.4200,-2.8100,4.8200,36.6875,-152.6250,-48.6250,-0.2753,0.2700,-0.8745,-0.2943,
2025-03-08 19:17:26.668,7.1400,-2.6700,4.7900,30.8125,-145.5000,-48.5625,-0.2885,0.2700,-0.8705,-0.2936,
2025-03-08 19:17:26.691,6.5000,-2.2400,5.1000,26.4375,-135.3750,-44.6875,-0.3011,0.2701,-0.8663,-0.2930,
2025-03-08 19:17:26.691,6.6300,-1.9700,5.3700,19.3750,-135.6250,-38.1875,-0.3126,0.2703,-0.8623,-0.2925,
2025-03-08 19:17:26.701,7.1500,-2.0700,5.5700,11.3750,-143.3750,-37.3125,-0.3240,0.2710,-0.8584,-0.2910,
2025-03-08 19:17:26.709,7.8100,-2.3900,5.5600,9.3750,-146.9375,-37.0625,-0.3356,0.2726,-0.8538,-0.2901,
2025-03-08 19:17:26.723,9.3000,-2.5300,5.4200,11.8750,-147.3125,-32.3750,-0.3472,0.2745,-0.8489,-0.2891,
2025-03-08 19:17:26.731,9.9600,-2.3400,5.3400,12.8750,-146.6250,-27.3125,-0.3588,0.2763,-0.8440,-0.2876,
2025-03-08 19:17:26.749,10.5500,-2.4300,4.5500,11.1875,-143.3750,-24.8750,-0.3702,0.2780,-0.8391,-0.2857,
2025-03-08 19:17:26.752,10.1200,-3.0400,3.9300,10.5000,-136.8125,-24.3750,-0.3815,0.2794,-0.8346,-0.2826,
2025-03-08 19:17:26.758,9.6500,-3.0600,4.2200,12.1250,-129.3750,-25.9375,-0.3920,0.2811,-0.8298,-0.2808,
2025-03-08 19:17:26.769,9.3400,-2.7300,4.3500,17.0000,-128.0625,-29.3750,-0.4019,0.2824,-0.8251,-0.2791,
2025-03-08 19:17:26.778,9.5000,-2.2700,4.3300,27.5000,-134.4375,-36.1250,-0.4119,0.2833,-0.8204,-0.2775,
2025-03-08 19:17:26.787,10.2600,-1.8200,4.3600,41.2500,-141.5000,-41.0000,-0.4227,0.2832,-0.8155,-0.2758,
2025-03-08 19:17:26.799,10.4300,-1.3600,4.5300,52.5625,-145.0000,-38.2500,-0.4345,0.2820,-0.8105,-0.2734,
2025-03-08 19:17:26.810,10.3400,-0.8500,4.8300,55.3750,-143.8125,-30.4375,-0.4465,0.2803,-0.8055,-0.2706,
2025-03-08 19:17:26.820,10.1900,-0.4100,5.1600,53.1250,-139.8125,-25.5625,-0.4583,0.2786,-0.8006,-0.2672,
2025-03-08 19:17:26.828,10.1300,-0.6500,4.7900,46.0625,-136.2500,-23.1250,-0.4695,0.2772,-0.7958,-0.2635,
2025-03-08 19:17:26.837,10.1100,-1.1100,4.5100,34.7500,-133.2500,-21.5625,-0.4802,0.2762,-0.7909,-0.2600,
2025-03-08 19:17:26.856,10.3300,-1.7300,4.2500,22.0625,-131.3125,-20.1875,-0.4905,0.2755,-0.7860,-0.2563,
2025-03-08 19:17:26.858,10.8700,-2.1700,3.4900,13.3750,-133.0000,-18.0625,-0.5002,0.2761,-0.7806,-0.2537,
2025-03-08 19:17:26.870,10.9400,-2.1400,3.2800,12.1875,-135.9375,-16.1250,-0.5096,0.2772,-0.7748,-0.2512,
2025-03-08 19:17:26.879,11.0100,-2.2200,3.2300,19.8125,-136.5000,-15.8750,-0.5191,0.2786,-0.7689,-0.2485,
2025-03-08 19:17:26.887,11.0100,-2.2200,3.2300,45.5625,-132.1250,-11.6250,-0.5287,0.2795,-0.7629,-0.2454,
2025-03-08 19:17:26.898,11.0100,-2.0500,3.1900,45.5625,-132.1250,-11.6250,-0.5386,0.2784,-0.7580,-0.2406,
2025-03-08 19:17:26.911,10.3700,-2.0100,2.6300,54.9375,-129.2500,-9.8750,-0.5482,0.2776,-0.7527,-0.2361,
2025-03-08 19:17:26.918,10.0200,-2.1600,2.6600,60.8125,-118.1250,-8.1875,-0.5577,0.2762,-0.7478,-0.2312,
2025-03-08 19:17:26.930,9.7100,-2.0100,2.3000,60.8125,-118.1250,-8.1875,-0.5665,0.2743,-0.7435,-0.2261,
2025-03-08 19:17:26.937,10.0600,-1.6900,2.0900,52.3750,-116.3750,0.9375,-0.5753,0.2723,-0.7390,-0.2209,
2025-03-08 19:17:26.948,10.0600,-1.6900,2.0900,49.3750,-115.0000,3.0000,-0.5838,0.2705,-0.7348,-0.2147,
2025-03-08 19:17:26.959,10.7600,-1.0200,1.8800,51.1250,-109.6250,2.5625,-0.5917,0.2696,-0.7303,-0.2094,
2025-03-08 19:17:26.969,10.7100,-0.7200,1.7300,54.9375,-102.3125,1.9375,-0.5993,0.2686,-0.7260,-0.2042,
2025-03-08 19:17:26.979,10.8100,-0.8700,1.4800,55.3125,-94.2500,1.3750,-0.6064,0.2671,-0.7220,-0.1990,
2025-03-08 19:17:26.993,10.8100,-0.8700,1.4800,49.6875,-85.2500,0.3750,-0.6131,0.2653,-0.7184,-0.1939,
2025-03-08 19:17:26.999,10.7900,-1.0400,1.1600,39.1875,-74.9375,1.8125,-0.6194,0.2628,-0.7154,-0.1883,
2025-03-08 19:17:27.008,10.3000,-0.8200,0.6900,25.5625,-65.6250,3.5000,-0.6245,0.2617,-0.7123,-0.1846,
2025-03-08 19:17:27.019,10.4200,-0.5000,0.7400,11.1875,-58.8750,3.5000,-0.6288,0.2614,-0.7095,-0.1815,
2025-03-08 19:17:27.029,10.5100,-0.4200,0.8100,-1.2500,-52.3125,2.6875,-0.6324,0.2618,-0.7067,-0.1794,
2025-03-08 19:17:27.051,10.5100,-0.4200,0.8100,-9.3750,-44.9375,1.2500,-0.6354,0.2628,-0.7039,-0.1782,
2025-03-08 19:17:27.061,10.2900,-0.9400,0.8000,-13.0625,-38.1250,0.5000,-0.6380,0.2640,-0.7013,-0.1775,
2025-03-08 19:17:27.061,10.1400,-2.0400,0.6000,-11.1875,-32.8750,0.1250,-0.6400,0.2653,-0.6989,-0.1774,
2025-03-08 19:17:27.069,9.9400,-2.7200,0.1900,-4.3125,-26.8750,0.9375,-0.6418,0.2665,-0.6969,-0.1772,
2025-03-08 19:17:27.083,9.8300,-2.5900,0.0000,2.9375,-20.8125,2.3125,-0.6433,0.2672,-0.6954,-0.1768,
2025-03-08 19:17:27.086,9.8300,-2.5900,0.0000,6.0625,-16.4375,1.9375,-0.6445,0.2675,-0.6943,-0.1760,
2025-03-08 19:17:27.098,9.7400,-2.0300,0.0000,6.0625,-16.4375,1.9375,-0.6456,0.2674,-0.6936,-0.1751,
2025-03-08 19:17:27.115,10.1100,-0.6500,0.3600,-3.1250,-7.9375,1.3750,-0.6462,0.2675,-0.6931,-0.1746,
2025-03-08 19:17:27.119,10.0600,-0.5500,0.2400,-6.5000,-3.8750,-0.1875,-0.6467,0.2679,-0.6926,-0.1745,
2025-03-08 19:17:27.129,9.9100,-0.5800,-0.0300,-7.0000,-0.8125,-2.3125,-0.6468,0.2683,-0.6922,-0.1748,
2025-03-08 19:17:27.137,9.9100,-0.5800,-0.0300,-7.0000,-0.8125,-2.3125,-0.6468,0.2686,-0.6919,-0.1753,
2025-03-08 19:17:27.147,9.7200,-0.8200,-0.4200,-5.6875,0.8750,-4.4375,-0.6467,0.2687,-0.6918,-0.1759,
2025-03-08 19:17:27.160,9.5300,-1.5300,-1.0200,-6.8125,0.9375,-4.3125,-0.6467,0.2687,-0.6917,-0.1765,
2025-03-08 19:17:27.173,9.6200,-1.3700,-0.8300,-11.1250,1.4375,-2.5000,-0.6467,0.2688,-0.6915,-0.1772,
2025-03-08 19:17:27.178,9.7900,-0.9100,-0.4900,-14.0625,2.0000,-1.6875,-0.6465,0.2693,-0.6913,-0.1780,
2025-03-08 19:17:27.187,9.7900,-0.9100,-0.4900,-14.0625,2.0000,-1.6875,-0.6462,0.2700,-0.6910,-0.1789,
2025-03-08 19:17:27.198,9.7400,-0.8500,-0.4800,-14.8750,2.0625,-2.0000,-0.6459,0.2708,-0.6908,-0.1799,
2025-03-08 19:17:27.210,9.5000,-1.1200,-0.6300,-15.5000,1.0000,-3.2500,-0.6456,0.2714,-0.6905,-0.1808,
2025-03-08 19:17:27.220,9.3500,-1.6000,-0.7700,-14.4375,-0.2500,-3.1875,-0.6454,0.2722,-0.6901,-0.1819,
2025-03-08 19:17:27.232,9.3900,-1.7300,-0.7000,-11.6875,-1.6250,-1.9375,-0.6453,0.2728,-0.6897,-0.1829,
2025-03-08 19:17:27.238,9.3900,-1.7300,-0.7000,-11.6875,-1.6250,-1.9375,-0.6452,0.2734,-0.6894,-0.1836,
2025-03-08 19:17:27.274,9.5400,-1.7500,-0.6500,-9.2500,-3.1250,-0.3750,-0.6451,0.2744,-0.6889,-0.1844,
2025-03-08 19:17:27.274,10.1100,-1.1300,-0.4400,-9.4375,-2.1875,0.6250,-0.6451,0.2750,-0.6885,-0.1848,
2025-03-08 19:17:27.274,10.0900,-1.0100,-0.4200,-9.1250,-1.2500,-1.2500,-0.6451,0.2756,-0.6882,-0.1852,
2025-03-08 19:17:27.282,9.9600,-1.1100,-0.4500,-8.7500,-0.6875,-3.5000,-0.6450,0.2761,-0.6879,-0.1858,
2025-03-08 19:17:27.288,9.9600,-1.1100,-0.4500,-8.7500,-0.6875,-3.5000,-0.6450,0.2764,-0.6876,-0.1865,
2025-03-08 19:17:27.308,9.5800,-1.5400,-0.4000,-7.8750,-1.2500,-4.7500,-0.6454,0.2759,-0.6875,-0.1863,
2025-03-08 19:17:27.312,9.4000,-1.8400,-0.3200,-1.8125,-4.2500,-3.8750,-0.6456,0.2760,-0.6871,-0.1868,
2025-03-08 19:17:27.359,9.6800,-1.4200,-0.3000,2.1875,-5.9375,-2.5625,-0.6459,0.2759,-0.6868,-0.1871,
2025-03-08 19:17:27.370,9.6800,-1.4200,-0.3000,5.1250,-6.5625,-2.2500,-0.6463,0.2758,-0.6865,-0.1870,
2025-03-08 19:17:27.370,9.8100,-1.0800,-0.2600,5.1250,-6.5625,-2.2500,-0.6468,0.2754,-0.6862,-0.1866,
2025-03-08 19:17:27.370,9.8600,-0.7700,-0.2600,7.1875,-6.1875,-2.9375,-0.6474,0.2749,-0.6860,-0.1862,
2025-03-08 19:17:27.370,9.8200,-0.5700,-0.3000,2.8750,-4.2500,-5.6875,-0.6479,0.2744,-0.6858,-0.1860,
2025-03-08 19:17:27.370,9.6500,-0.5300,-0.3300,-1.4375,-3.5000,-6.6875,-0.6484,0.2740,-0.6855,-0.1861,
2025-03-08 19:17:27.384,9.5300,-0.6600,-0.2500,-3.7500,-3.0625,-7.1875,-0.6487,0.2737,-0.6852,-0.1865,
2025-03-08 19:17:27.387,9.4300,-0.8300,-0.1500,-3.7500,-3.0625,-7.1875,-0.6490,0.2736,-0.6848,-0.1870,
2025-03-08 19:17:27.397,9.3500,-0.9400,-0.0800,-4.1875,-3.4375,-7.0000,-0.6493,0.2736,-0.6844,-0.1876,
2025-03-08 19:17:27.413,9.4500,-0.9000,-0.2300,-0.8750,-4.7500,-6.1250,-0.6497,0.2734,-0.6840,-0.1880,
2025-03-08 19:17:27.419,9.5000,-0.8400,-0.4100,-0.4375,-4.3125,-6.2500,-0.6500,0.2732,-0.6837,-0.1883,
2025-03-08 19:17:27.430,9.5800,-0.7000,-0.4400,-1.8125,-3.1250,-6.8125,-0.6505,0.2729,-0.6833,-0.1885,
2025-03-08 19:17:27.453,9.6000,-0.4400,-0.3700,-1.8125,-3.1250,-6.8125,-0.6513,0.2723,-0.6825,-0.1893,
2025-03-08 19:17:27.454,9.6100,-0.5600,-0.2300,-4.3750,-1.9375,-7.8750,-0.6515,0.2722,-0.6822,-0.1899,
2025-03-08 19:17:27.459,9.6200,-0.7200,-0.1700,-8.1250,0.0000,-8.4375,-0.6516,0.2721,-0.6819,-0.1909,
2025-03-08 19:17:27.473,9.6100,-0.9300,-0.1600,-8.1875,-0.6250,-8.0000,-0.6517,0.2721,-0.6816,-0.1918,
2025-03-08 19:17:27.479,9.7000,-1.2200,-0.2300,-5.8125,-2.0625,-7.5000,-0.6517,0.2722,-0.6812,-0.1927,
2025-03-08 19:17:27.487,9.7800,-1.2000,-0.3000,-5.8125,-2.0625,-7.5000,-0.6519,0.2721,-0.6809,-0.1934,
2025-03-08 19:17:27.498,9.8200,-1.1200,-0.3300,-2.1250,-2.8125,-7.0625,-0.6523,0.2718,-0.6805,-0.1938,
2025-03-08 19:17:27.511,9.8000,-0.8100,-0.3400,0.0000,-1.9375,-7.7500,-0.6526,0.2715,-0.6802,-0.1941,
2025-03-08 19:17:27.520,9.7800,-0.7300,-0.3300,-1.6875,-1.3125,-7.8750,-0.6529,0.2711,-0.6800,-0.1945,
2025-03-08 19:17:27.533,9.7300,-0.7500,-0.3200,-4.3750,-0.6250,-7.4375,-0.6531,0.2707,-0.6798,-0.1950,
2025-03-08 19:17:27.537,9.6800,-0.8700,-0.3500,-4.3750,-0.6250,-7.4375,-0.6533,0.2706,-0.6795,-0.1957,
2025-03-08 19:17:27.548,9.6400,-1.1300,-0.3300,-6.6875,-0.1250,-6.7500,-0.6533,0.2706,-0.6793,-0.1964,
2025-03-08 19:17:27.574,9.6400,-1.2000,-0.3300,-4.8750,-1.5000,-5.6250,-0.6534,0.2706,-0.6790,-0.1971,
2025-03-08 19:17:27.574,9.6900,-1.2100,-0.3800,-1.4375,-2.6875,-5.1875,-0.6535,0.2706,-0.6787,-0.1976,
2025-03-08 19:17:27.588,9.7500,-1.1400,-0.4300,0.8125,-3.0625,-4.7500,-0.6538,0.2705,-0.6784,-0.1980,
2025-03-08 19:17:27.588,9.7600,-1.0700,-0.4400,0.8125,-3.0625,-4.7500,-0.6541,0.2702,-0.6782,-0.1981,
2025-03-08 19:17:27.597,9.7900,-0.9400,-0.3900,1.0625,-2.4375,-4.1250,-0.6544,0.2698,-0.6781,-0.1981,
2025-03-08 19:17:27.609,9.7300,-0.9100,-0.3700,0.2500,-1.4375,-4.0000,-0.6547,0.2696,-0.6777,-0.1982,
2025-03-08 19:17:27.623,9.6500,-1.0200,-0.3400,-2.3125,0.0625,-2.8750,-0.6550,0.2695,-0.6775,-0.1985,
2025-03-08 19:17:27.631,9.6900,-1.1300,-0.4300,-3.7500,0.0625,-2.1250,-0.6551,0.2696,-0.6772,-0.1987,
2025-03-08 19:17:27.647,9.7300,-1.2500,-0.4000,-3.7500,0.0625,-2.1250,-0.6553,0.2698,-0.6769,-0.1989,
2025-03-08 19:17:27.653,9.7900,-1.3600,-0.3500,-2.6250,-0.6250,-1.1875,-0.6552,0.2700,-0.6768,-0.1992,
2025-03-08 19:17:27.660,9.7400,-1.3400,-0.3300,2.8750,-0.9375,-0.7500,-0.6553,0.2700,-0.6768,-0.1993,
2025-03-08 19:17:27.670,9.6800,-1.3000,-0.3400,3.8125,-0.6875,-0.8750,-0.6554,0.2698,-0.6768,-0.1991,
2025-03-08 19:17:27.685,9.6200,-1.2600,-0.3200,3.8125,-0.4375,-0.5625,-0.6556,0.2695,-0.6768,-0.1989,
2025-03-08 19:17:27.690,9.5400,-1.3600,-0.3300,3.8125,-0.4375,-0.5625,-0.6557,0.2695,-0.6768,-0.1985,
2025-03-08 19:17:27.700,9.5800,-1.3300,-0.3600,3.8750,-0.5625,0.0000,-0.6560,0.2689,-0.6769,-0.1977,
2025-03-08 19:17:27.708,9.6500,-1.3000,-0.3900,4.6250,-1.5625,0.8750,-0.6562,0.2689,-0.6769,-0.1971,
2025-03-08 19:17:27.720,9.7300,-1.1900,-0.4500,10.3750,-3.1875,1.7500,-0.6566,0.2688,-0.6768,-0.1965,
2025-03-08 19:17:27.733,9.7200,-0.9400,-0.4400,12.5625,-3.1875,2.1250,-0.6571,0.2685,-0.6767,-0.1956,
2025-03-08 19:17:27.738,9.6700,-0.8500,-0.4200,12.5625,-3.1875,2.1250,-0.6574,0.2679,-0.6768,-0.1947,
2025-03-08 19:17:27.747,9.6200,-0.7700,-0.4600,12.3125,-2.7500,2.6250,-0.6576,0.2676,-0.6770,-0.1940,
2025-03-08 19:17:27.774,9.4300,-0.8000,-0.4900,7.7500,-0.6250,3.1250,-0.6579,0.2672,-0.6771,-0.1932,
2025-03-08 19:17:27.787,9.4000,-0.8400,-0.5100,5.0000,-0.6875,3.8125,-0.6579,0.2669,-0.6773,-0.1926,
2025-03-08 19:17:27.788,9.4700,-0.9100,-0.4800,4.1250,-1.3750,4.4375,-0.6580,0.2668,-0.6775,-0.1921,
2025-03-08 19:17:27.788,9.5500,-1.0400,-0.4600,4.1250,-1.3750,4.4375,-0.6580,0.2669,-0.6775,-0.1916,
2025-03-08 19:17:27.797,9.6300,-1.1200,-0.4800,5.1250,-2.7500,5.0000,-0.6584,0.2668,-0.6774,-0.1907,
2025-03-08 19:17:27.808,9.6700,-1.1200,-0.5000,7.1875,-3.5625,5.0625,-0.6588,0.2668,-0.6773,-0.1899,
2025-03-08 19:17:27.825,9.6600,-1.0400,-0.5200,6.8750,-3.8750,4.5000,-0.6592,0.2668,-0.6771,-0.1891,
2025-03-08 19:17:27.836,9.5800,-1.0500,-0.5000,6.1250,-3.3750,4.0625,-0.6596,0.2668,-0.6769,-0.1883,
2025-03-08 19:17:27.837,9.5300,-1.1800,-0.4700,6.1250,-3.3750,4.0625,-0.6600,0.2668,-0.6768,-0.1876,
2025-03-08 19:17:27.847,9.5100,-1.3200,-0.4400,5.3125,-2.5625,4.0000,-0.6603,0.2669,-0.6766,-0.1870,
2025-03-08 19:17:27.858,9.4900,-1.4000,-0.4200,5.3125,-2.3750,4.5625,-0.6605,0.2670,-0.6766,-0.1863,
2025-03-08 19:17:27.875,9.6700,-1.3600,-0.5000,5.9375,-3.1250,5.3750,-0.6606,0.2670,-0.6766,-0.1855,
2025-03-08 19:17:27.881,9.7500,-1.2600,-0.4700,8.1875,-4.4375,5.4375,-0.6609,0.2670,-0.6766,-0.1847,
2025-03-08 19:17:27.887,9.8200,-1.1700,-0.4800,10.8125,-5.4375,4.9375,-0.6612,0.2667,-0.6767,-0.1837,
2025-03-08 19:17:27.898,9.7600,-1.1200,-0.5400,11.8750,-5.6875,4.2500,-0.6617,0.2666,-0.6765,-0.1828,
2025-03-08 19:17:27.907,9.6700,-1.2100,-0.5600,11.1250,-4.9375,3.4375,-0.6622,0.2663,-0.6764,-0.1818,
2025-03-08 19:17:27.920,9.6000,-1.2900,-0.5700,9.1250,-4.2500,2.8750,-0.6627,0.2661,-0.6762,-0.1809,
2025-03-08 19:17:27.931,9.5400,-1.4300,-0.5500,7.3750,-4.5625,2.6250,-0.6631,0.2661,-0.6760,-0.1801,
2025-03-08 19:17:27.948,9.6100,-1.4300,-0.5900,8.1875,-5.6250,3.0625,-0.6636,0.2660,-0.6758,-0.1793,
2025-03-08 19:17:27.956,9.6900,-1.3100,-0.6600,10.5625,-7.0625,3.5000,-0.6643,0.2659,-0.6755,-0.1782,
2025-03-08 19:17:27.958,9.7400,-1.1400,-0.6800,12.3125,-7.5625,3.5625,-0.6650,0.2656,-0.6752,-0.1770,
2025-03-08 19:17:27.970,9.7900,-0.9500,-0.6900,13.0625,-7.3750,3.1250,-0.6658,0.2651,-0.6749,-0.1759,
2025-03-08 19:17:27.989,9.8500,-1.0100,-0.6800,11.8750,-6.5000,2.1875,-0.6663,0.2646,-0.6749,-0.1750,
2025-03-08 19:17:27.998,9.7200,-1.3000,-0.6800,7.3750,-4.3125,0.6875,-0.6670,0.2640,-0.6747,-0.1737,
2025-03-08 19:17:28.012,9.7200,-1.5600,-0.8900,6.0000,-4.8125,-0.1250,-0.6676,0.2639,-0.6743,-0.1731,
2025-03-08 19:17:28.021,9.7500,-1.6200,-1.0600,7.5000,-6.3750,-0.3750,-0.6681,0.2635,-0.6741,-0.1725,
2025-03-08 19:17:28.033,9.8200,-1.5800,-1.1900,10.5625,-7.9375,-0.5000,-0.6687,0.2631,-0.6739,-0.1718,
2025-03-08 19:17:28.047,9.7700,-1.0800,-1.2900,14.5000,-7.7500,-0.1250,-0.6700,0.2618,-0.6736,-0.1699,
2025-03-08 19:17:28.061,9.7400,-0.9600,-1.2600,14.1250,-6.3125,-0.1250,-0.6706,0.2610,-0.6736,-0.1689,
2025-03-08 19:17:28.074,9.7000,-0.9100,-1.3000,12.6250,-5.4375,0.0000,-0.6711,0.2604,-0.6735,-0.1680,
2025-03-08 19:17:28.081,9.7400,-0.9300,-1.4900,10.7500,-4.6875,-0.2500,-0.6715,0.2598,-0.6735,-0.1674,
2025-03-08 19:17:28.100,9.7200,-0.9400,-1.5600,8.0625,-3.6250,-0.1875,-0.6720,0.2595,-0.6733,-0.1667,
2025-03-08 19:17:28.111,9.7600,-0.9300,-1.6200,7.0000,-3.0000,-0.2500,-0.6722,0.2592,-0.6733,-0.1663,
2025-03-08 19:17:28.124,9.9100,-0.9100,-1.6400,4.8750,-2.4375,-0.1875,-0.6725,0.2589,-0.6732,-0.1659,
2025-03-08 19:17:28.141,9.8700,-1.0500,-1.5700,2.6875,-0.9375,-0.5625,-0.6739,0.2588,-0.6719,-0.1655,
2025-03-08 19:17:28.157,9.7900,-1.2200,-1.5000,2.3750,-0.4375,-0.7500,-0.6751,0.2590,-0.6707,-0.1653,
2025-03-08 19:17:28.158,9.7500,-1.2600,-1.4800,2.6250,-0.2500,-0.6875,-0.6762,0.2591,-0.6696,-0.1649,
2025-03-08 19:17:28.171,9.7000,-1.2900,-1.4400,3.8750,-0.1875,-0.2500,-0.6763,0.2589,-0.6697,-0.1647,
2025-03-08 19:17:28.185,9.6500,-1.2500,-1.4300,5.3125,-0.3750,0.2500,-0.6763,0.2586,-0.6698,-0.1644,
2025-03-08 19:17:28.187,9.6100,-0.9600,-1.3700,5.5625,-0.3750,0.8125,-0.6764,0.2583,-0.6700,-0.1641,
2025-03-08 19:17:28.198,9.5600,-0.8200,-1.3600,4.2500,0.0000,1.0000,-0.6774,0.2583,-0.6690,-0.1638,
2025-03-08 19:17:28.209,9.4900,-0.8000,-1.4000,2.3750,0.9375,0.9375,-0.6774,0.2582,-0.6691,-0.1636,
2025-03-08 19:17:28.224,9.3400,-0.9200,-1.5400,0.1875,1.9375,0.4375,-0.6773,0.2582,-0.6692,-0.1636,
2025-03-08 19:17:28.233,9.3100,-1.0700,-1.5600,-1.7500,2.3750,0.1875,-0.6771,0.2582,-0.6693,-0.1638,
2025-03-08 19:17:28.251,9.2800,-1.1300,-1.5900,-2.4375,2.1875,0.0625,-0.6770,0.2584,-0.6694,-0.1639,
2025-03-08 19:17:28.254,9.2900,-1.1800,-1.6500,-2.5000,1.8125,0.2500,-0.6768,0.2585,-0.6694,-0.1642,
2025-03-08 19:17:28.258,9.4500,-1.1200,-1.6500,-2.5625,1.7500,0.5625,-0.6767,0.2586,-0.6695,-0.1644,
2025-03-08 19:17:28.269,9.5700,-1.0800,-1.6300,-2.7500,2.1250,0.8750,-0.6777,0.2592,-0.6683,-0.1643,
2025-03-08 19:17:28.287,9.6800,-1.0900,-1.6400,-3.0000,2.6875,1.0000,-0.6786,0.2597,-0.6671,-0.1643,
2025-03-08 19:17:28.287,9.7400,-1.1700,-1.5900,-3.8125,3.3750,1.1250,-0.6783,0.2599,-0.6672,-0.1646,
2025-03-08 19:17:28.308,9.7200,-1.1900,-1.5000,-4.7500,3.8750,1.3750,-0.6780,0.2603,-0.6674,-0.1649,
2025-03-08 19:17:28.313,9.7100,-1.2300,-1.4700,-4.6250,4.4375,1.3750,-0.6777,0.2606,-0.6675,-0.1652,
2025-03-08 19:17:28.322,9.7100,-1.2700,-1.4600,-3.6250,4.3125,1.4375,-0.6773,0.2608,-0.6677,-0.1654,
2025-03-08 19:17:28.330,9.6500,-1.1600,-1.4400,-2.1875,4.3125,1.3125,-0.6779,0.2613,-0.6669,-0.1653,
2025-03-08 19:17:28.337,9.7000,-1.0300,-1.4800,-0.8125,4.3750,1.2500,-0.6786,0.2616,-0.6662,-0.1652,
2025-03-08 19:17:28.347,9.7400,-0.9100,-1.5200,-0.7500,4.5625,1.1875,-0.6793,0.2618,-0.6653,-0.1652,
2025-03-08 19:17:28.357,9.7900,-0.8300,-1.5900,-1.6250,4.6250,1.3750,-0.6790,0.2618,-0.6656,-0.1653,
2025-03-08 19:17:28.373,9.8200,-0.6800,-1.6900,-2.5000,5.8750,1.3125,-0.6786,0.2620,-0.6659,-0.1655,
2025-03-08 19:17:28.379,9.8200,-0.6600,-1.7000,-3.3125,7.1250,1.7500,-0.6781,0.2622,-0.6663,-0.1658,
2025-03-08 19:17:28.393,9.8200,-0.6800,-1.6700,-3.3750,7.6250,2.0000,-0.6776,0.2624,-0.6667,-0.1660,
2025-03-08 19:17:28.398,9.9400,-0.6400,-1.6900,-2.3750,7.7500,2.7500,-0.6770,0.2627,-0.6671,-0.1663,
2025-03-08 19:17:28.408,9.9500,-0.5400,-1.6700,-1.7500,7.5625,3.7500,-0.6765,0.2629,-0.6675,-0.1663,
2025-03-08 19:17:28.420,10.0200,-0.3500,-1.7000,-3.0000,8.1250,4.9375,-0.6759,0.2632,-0.6680,-0.1664,
2025-03-08 19:17:28.431,10.0800,-0.2400,-1.6900,-6.3125,9.4375,5.5625,-0.6751,0.2637,-0.6685,-0.1666,
2025-03-08 19:17:28.437,9.9600,-0.3700,-1.6000,-11.3750,11.1875,5.5000,-0.6742,0.2646,-0.6689,-0.1672,
2025-03-08 19:17:28.448,9.8700,-0.6100,-1.5600,-16.1875,12.9375,4.8750,-0.6731,0.2656,-0.6694,-0.1682,
2025-03-08 19:17:28.457,9.7300,-0.8900,-1.4700,-19.8750,14.8125,4.4375,-0.6719,0.2669,-0.6698,-0.1694,
2025-03-08 19:17:28.470,9.5000,-1.3800,-1.3200,-21.3125,15.1875,4.1875,-0.6706,0.2681,-0.6703,-0.1708,
2025-03-08 19:17:28.479,9.4400,-1.5200,-1.3100,-20.8750,14.8125,4.1250,-0.6694,0.2692,-0.6707,-0.1721,
2025-03-08 19:17:28.490,9.4200,-1.5700,-1.2700,-20.0000,13.6875,3.8125,-0.6682,0.2704,-0.6711,-0.1733,
2025-03-08 19:17:28.499,9.4200,-1.5300,-1.2400,-18.3750,12.7500,3.4375,-0.6672,0.2715,-0.6714,-0.1744,
2025-03-08 19:17:28.510,9.3400,-1.4500,-1.2500,-17.1875,12.4375,2.8750,-0.6661,0.2724,-0.6718,-0.1755,
2025-03-08 19:17:28.522,9.3100,-1.4500,-1.2900,-16.2500,12.6250,2.1250,-0.6651,0.2733,-0.6721,-0.1766,
2025-03-08 19:17:28.528,9.3100,-1.4900,-1.2700,-15.9375,12.9375,1.7500,-0.6641,0.2741,-0.6725,-0.1777,
2025-03-08 19:17:28.553,9.2600,-1.6500,-1.1100,-16.4375,13.3125,1.9375,-0.6638,0.2756,-0.6720,-0.1782,
2025-03-08 19:17:28.555,9.3100,-1.7300,-0.9800,-16.6875,13.2500,2.1875,-0.6634,0.2772,-0.6716,-0.1787,
2025-03-08 19:17:28.558,9.4800,-1.7500,-0.8900,-15.6250,12.5000,2.4375,-0.6624,0.2780,-0.6720,-0.1798,
2025-03-08 19:17:28.571,9.7000,-1.8300,-0.8800,-14.5625,11.1875,2.6875,-0.6615,0.2789,-0.6723,-0.1807,
2025-03-08 19:17:28.578,10.4500,-1.8500,-0.7000,-13.4375,10.0625,2.8750,-0.6607,0.2796,-0.6726,-0.1815,
2025-03-08 19:17:28.591,10.7000,-1.7800,-0.5800,-11.8125,9.8125,2.7500,-0.6599,0.2803,-0.6729,-0.1822,
2025-03-08 19:17:28.597,10.8000,-1.6600,-0.4200,-9.5000,10.3750,2.1250,-0.6591,0.2808,-0.6733,-0.1829,
2025-03-08 19:17:28.623,10.4800,-1.5300,-0.1100,-8.0625,10.6875,0.2500,-0.6583,0.2811,-0.6737,-0.1836,
2025-03-08 19:17:28.624,10.1500,-1.5700,0.0300,-6.3125,10.3750,-2.1875,-0.6577,0.2812,-0.6741,-0.1843,
2025-03-08 19:17:28.628,9.8600,-1.5800,0.0900,-4.2500,8.8750,-4.1875,-0.6572,0.2811,-0.6744,-0.1850,
2025-03-08 19:17:28.638,9.6000,-1.6200,0.1100,-2.3750,6.9375,-5.6875,-0.6569,0.2808,-0.6747,-0.1856,
2025-03-08 19:17:28.656,9.1100,-1.5400,-0.0400,-1.0000,5.5000,-6.2500,-0.6567,0.2804,-0.6749,-0.1862,
2025-03-08 19:17:28.659,8.9600,-1.3500,-0.1500,0.1250,4.4375,-5.8125,-0.6566,0.2800,-0.6750,-0.1866,
2025-03-08 19:17:28.668,8.8400,-1.0600,-0.2500,0.2500,3.5625,-4.9375,-0.6566,0.2797,-0.6751,-0.1870,
2025-03-08 19:17:28.678,8.7800,-0.7700,-0.2800,0.6250,3.1875,-4.3750,-0.6565,0.2793,-0.6752,-0.1873,
2025-03-08 19:17:28.689,8.7200,-0.3200,-0.3400,1.0625,3.3125,-4.1875,-0.6564,0.2790,-0.6754,-0.1875,
2025-03-08 19:17:28.698,8.7600,-0.2000,-0.3200,1.0000,3.6250,-4.4375,-0.6563,0.2786,-0.6755,-0.1878,
2025-03-08 19:17:28.707,8.9100,-0.2600,-0.2800,-1.0000,3.6875,-4.6875,-0.6562,0.2783,-0.6757,-0.1882,
2025-03-08 19:17:28.717,9.2800,-0.5600,-0.2800,-4.4375,3.5625,-4.6250,-0.6560,0.2783,-0.6757,-0.1888,
2025-03-08 19:17:28.728,9.5500,-0.7300,-0.1800,-8.3750,3.9375,-4.2500,-0.6558,0.2784,-0.6756,-0.1896,
2025-03-08 19:17:28.737,9.8200,-0.8300,-0.1300,-11.0000,4.0000,-3.5000,-0.6555,0.2788,-0.6755,-0.1906,
2025-03-08 19:17:28.748,10.1000,-0.8800,-0.1000,-12.6875,4.4375,-2.8125,-0.6550,0.2793,-0.6754,-0.1915,
2025-03-08 19:17:28.757,10.1600,-0.9500,0.0900,-13.0000,5.5000,-2.9375,-0.6546,0.2798,-0.6754,-0.1925,
2025-03-08 19:17:28.768,10.0800,-1.1300,0.2000,-12.6250,6.7500,-3.9375,-0.6541,0.2802,-0.6754,-0.1936,
2025-03-08 19:17:28.778,10.0100,-1.3100,0.3300,-12.6250,6.8750,-4.9375,-0.6536,0.2805,-0.6754,-0.1948,
2025-03-08 19:17:28.788,10.0300,-1.5700,0.5000,-12.9375,6.4375,-5.1250,-0.6531,0.2809,-0.6754,-0.1959,
2025-03-08 19:17:28.798,10.1100,-1.5500,0.5400,-11.8750,5.9375,-4.1250,-0.6527,0.2812,-0.6753,-0.1970,
2025-03-08 19:17:28.808,10.1700,-1.4600,0.5300,-11.3125,6.5000,-2.8125,-0.6522,0.2816,-0.6754,-0.1979,
2025-03-08 19:17:28.823,10.1300,-1.3900,0.5000,-10.8125,7.8125,-1.8750,-0.6516,0.2820,-0.6755,-0.1988,
2025-03-08 19:17:28.851,9.9300,-1.3000,0.5500,-10.3750,8.8750,-1.8125,-0.6510,0.2823,-0.6757,-0.1997,
2025-03-08 19:17:28.858,9.8500,-1.3000,0.5400,-10.0000,9.1250,-2.0000,-0.6503,0.2827,-0.6760,-0.2006,
2025-03-08 19:17:28.858,9.7600,-1.3700,0.5400,-10.6875,9.6250,-1.7500,-0.6492,0.2830,-0.6766,-0.2015,
2025-03-08 19:17:28.859,9.5600,-1.4800,0.6100,-11.8750,10.0625,-1.1250,-0.6485,0.2834,-0.6769,-0.2025,
2025-03-08 19:17:28.868,9.5100,-1.4800,0.6600,-12.7500,10.8125,-0.5000,-0.6476,0.2839,-0.6772,-0.2034,
2025-03-08 19:17:28.883,9.5400,-1.4500,0.6200,-12.5000,10.8750,0.5000,-0.6468,0.2845,-0.6774,-0.2044,
2025-03-08 19:17:28.887,9.6300,-1.4300,0.6000,-11.7500,10.3750,1.3125,-0.6460,0.2850,-0.6777,-0.2052,
2025-03-08 19:17:28.901,9.7300,-1.2200,0.5200,-10.9375,9.6250,1.6875,-0.6452,0.2856,-0.6780,-0.2059,
2025-03-08 19:17:28.907,9.7600,-1.1300,0.5500,-10.6875,9.7500,1.8750,-0.6444,0.2861,-0.6783,-0.2067,
2025-03-08 19:17:28.919,9.7400,-1.1300,0.6300,-11.6250,10.0625,1.2500,-0.6433,0.2866,-0.6790,-0.2075,
2025-03-08 19:17:28.928,9.6600,-1.3300,0.7400,-12.7500,10.1875,1.2500,-0.6420,0.2871,-0.6796,-0.2085,
2025-03-08 19:17:28.937,9.6300,-1.4500,0.7600,-13.5000,10.0000,1.3125,-0.6408,0.2877,-0.6803,-0.2094,
2025-03-08 19:17:28.948,9.5900,-1.5800,0.7500,-14.1875,9.4375,1.2500,-0.6395,0.2883,-0.6810,-0.2103,
2025-03-08 19:17:28.960,9.5900,-1.6800,0.7200,-14.8125,8.7500,1.3125,-0.6387,0.2891,-0.6811,-0.2112,
2025-03-08 19:17:28.967,9.6200,-1.7600,0.6000,-15.0000,7.7500,1.1250,-0.6379,0.2899,-0.6812,-0.2122,
2025-03-08 19:17:28.977,9.6700,-1.7100,0.6400,-14.0625,6.5625,1.3750,-0.6373,0.2906,-0.6812,-0.2130,
2025-03-08 19:17:28.987,9.6900,-1.6600,0.7000,-12.3125,5.6875,1.4375,-0.6366,0.2914,-0.6813,-0.2137,
2025-03-08 19:17:29.003,9.6700,-1.5700,0.7000,-10.1875,5.3125,1.4375,-0.6361,0.2919,-0.6813,-0.2143,
2025-03-08 19:17:29.007,9.5400,-1.5100,0.7000,-8.3750,5.1875,1.3125,-0.6353,0.2925,-0.6818,-0.2147,
2025-03-08 19:17:29.018,9.4500,-1.5500,0.6600,-8.1875,5.0625,1.2500,-0.6345,0.2930,-0.6822,-0.2151,
2025-03-08 19:17:29.027,9.3700,-1.6500,0.6900,-8.8750,4.6875,1.3750,-0.6336,0.2936,-0.6826,-0.2155,
2025-03-08 19:17:29.038,9.2800,-1.9200,0.7500,-10.1250,4.4375,1.4375,-0.6332,0.2942,-0.6825,-0.2161,
2025-03-08 19:17:29.049,9.2400,-1.9800,0.8200,-10.4375,4.1875,1.4375,-0.6327,0.2948,-0.6826,-0.2166,
2025-03-08 19:17:29.058,9.2300,-2.0200,0.8000,-9.5625,3.5000,1.6250,-0.6323,0.2953,-0.6826,-0.2171,
2025-03-08 19:17:29.067,9.2600,-2.0100,0.7500,-8.3125,2.8125,1.7500,-0.6319,0.2958,-0.6825,-0.2175,
2025-03-08 19:17:29.081,9.3000,-1.9700,0.7500,-6.8125,2.1875,1.8750,-0.6316,0.2963,-0.6825,-0.2178,
2025-03-08 19:17:29.103,9.2400,-1.9100,0.7100,-5.1250,1.5000,1.7500,-0.6314,0.2967,-0.6825,-0.2181,
2025-03-08 19:17:29.117,9.2400,-1.8800,0.7400,-2.1875,0.9375,1.3125,-0.6314,0.2967,-0.6825,-0.2181,
2025-03-08 19:17:29.117,9.1700,-1.7000,0.7300,0.4375,0.3750,1.3125,-0.6305,0.2973,-0.6832,-0.2176,
2025-03-08 19:17:29.117,9.1700,-1.5700,0.7300,1.8750,-0.1250,1.1875,-0.6299,0.2976,-0.6838,-0.2170,
2025-03-08 19:17:29.127,9.1600,-1.4500,0.7100,2.8125,-0.7500,0.8750,-0.6300,0.2975,-0.6839,-0.2168,
2025-03-08 19:17:29.146,9.2000,-1.3000,0.6800,3.6250,-1.3750,0.6250,-0.6301,0.2974,-0.6839,-0.2166,
2025-03-08 19:17:29.155,9.3300,-1.0600,0.6200,4.0625,-1.6875,0.0625,-0.6301,0.2974,-0.6839,-0.2166,
2025-03-08 19:17:29.158,9.4400,-1.0500,0.5500,3.7500,-2.0625,0.1250,-0.6305,0.2969,-0.6839,-0.2160,
2025-03-08 19:17:29.167,9.4400,-1.0200,0.5500,2.4375,-2.1250,-0.2500,-0.6306,0.2969,-0.6838,-0.2158,
2025-03-08 19:17:29.177,9.3000,-1.1700,0.5700,0.9375,-1.3125,-0.5000,-0.6307,0.2968,-0.6838,-0.2158,
2025-03-08 19:17:29.188,9.2300,-1.2500,0.5600,-0.1250,-1.0000,-0.8125,-0.6308,0.2968,-0.6837,-0.2158,
2025-03-08 19:17:29.197,9.2200,-1.3500,0.5400,-0.4375,-1.6875,-1.4375,-0.6309,0.2968,-0.6836,-0.2158,
2025-03-08 19:17:29.213,9.3000,-1.3900,0.5000,-0.1875,-3.1875,-1.2500,-0.6310,0.2968,-0.6835,-0.2158,
2025-03-08 19:17:29.218,9.5900,-1.2800,0.5700,-0.1250,-4.6875,-1.0000,-0.6310,0.2968,-0.6835,-0.2158,
2025-03-08 19:17:29.228,9.6900,-1.1300,0.6500,0.0625,-5.3750,-1.1250,-0.6312,0.2967,-0.6833,-0.2158,
2025-03-08 19:17:29.238,9.6900,-0.9900,0.7400,1.3125,-5.8125,-1.8750,-0.6314,0.2967,-0.6832,-0.2158,
2025-03-08 19:17:29.249,9.6100,-0.9200,0.7800,3.3125,-6.3750,-2.8750,-0.6318,0.2966,-0.6829,-0.2156,
2025-03-08 19:17:29.258,9.5500,-0.7700,0.6900,6.0625,-6.8750,-3.8125,-0.6323,0.2964,-0.6826,-0.2155,
2025-03-08 19:17:29.271,9.5700,-0.6800,0.6200,8.0625,-7.8125,-4.6875,-0.6329,0.2960,-0.6823,-0.2152,
2025-03-08 19:17:29.278,9.6500,-0.5800,0.5700,8.1875,-8.0625,-5.1250,-0.6337,0.2954,-0.6820,-0.2148,
2025-03-08 19:17:29.287,9.8100,-0.3500,0.4200,7.5000,-7.8125,-5.6250,-0.6344,0.2947,-0.6816,-0.2145,
2025-03-08 19:17:29.298,9.8500,-0.2600,0.3400,7.0625,-7.3125,-5.8125,-0.6351,0.2942,-0.6813,-0.2142,
2025-03-08 19:17:29.314,9.8700,-0.2700,0.2600,4.7500,-6.1875,-5.3750,-0.6358,0.2936,-0.6810,-0.2141,
2025-03-08 19:17:29.318,9.8400,-0.3900,0.2100,0.8125,-5.0625,-4.0000,-0.6364,0.2931,-0.6807,-0.2139,
2025-03-08 19:17:29.333,9.7400,-0.9600,0.2100,-3.8125,-4.0625,-2.3125,-0.6368,0.2930,-0.6804,-0.2140,
2025-03-08 19:17:29.338,9.6400,-1.3000,0.2000,-8.2500,-3.6250,-0.6250,-0.6370,0.2931,-0.6800,-0.2142,
2025-03-08 19:17:29.347,9.5600,-1.5900,0.2100,-10.5625,-3.9375,0.8125,-0.6371,0.2936,-0.6796,-0.2146,
2025-03-08 19:17:29.363,9.4100,-2.0200,0.1800,-11.0625,-4.7500,2.0625,-0.6371,0.2944,-0.6791,-0.2150,
2025-03-08 19:17:29.370,9.4200,-2.0400,0.1800,-9.8750,-5.9375,3.2500,-0.6372,0.2952,-0.6786,-0.2154,
2025-03-08 19:17:29.378,9.5100,-1.9500,0.2500,-7.0000,-7.6875,4.4375,-0.6372,0.2960,-0.6781,-0.2156,
2025-03-08 19:17:29.390,9.6400,-1.7600,0.2700,-2.8125,-8.6250,5.0625,-0.6374,0.2968,-0.6776,-0.2155,
2025-03-08 19:17:29.398,9.7600,-1.5500,0.0700,0.9375,-9.5000,5.2500,-0.6377,0.2974,-0.6772,-0.2151,
2025-03-08 19:17:29.411,9.7500,-1.5000,0.0000,3.0000,-9.1875,5.3750,-0.6382,0.2978,-0.6768,-0.2146,
2025-03-08 19:17:29.418,9.7100,-1.5500,-0.0600,3.2500,-8.3750,5.6250,-0.6386,0.2981,-0.6764,-0.2139,
2025-03-08 19:17:29.450,9.6500,-1.7300,-0.0600,2.7500,-7.2500,5.6875,-0.6390,0.2984,-0.6762,-0.2131,
2025-03-08 19:17:29.450,9.6200,-1.8200,-0.0600,3.3125,-6.6250,6.0000,-0.6393,0.2986,-0.6760,-0.2125,
2025-03-08 19:17:29.450,9.6300,-1.8200,-0.1100,4.6875,-7.1250,5.8750,-0.6396,0.2989,-0.6758,-0.2118,
2025-03-08 19:17:29.458,9.6700,-1.7400,-0.1100,5.8125,-8.0000,6.1875,-0.6400,0.2991,-0.6756,-0.2110,
2025-03-08 19:17:29.470,9.7400,-1.4700,-0.2100,6.5625,-8.5000,6.4375,-0.6403,0.2995,-0.6755,-0.2099,
2025-03-08 19:17:29.481,9.7500,-1.3500,-0.2700,8.6250,-8.3750,6.7500,-0.6407,0.2997,-0.6753,-0.2089,
2025-03-08 19:17:29.489,9.7400,-1.2200,-0.3900,11.1250,-8.3125,6.8750,-0.6412,0.2998,-0.6751,-0.2077,
2025-03-08 19:17:29.498,9.7400,-1.2200,-0.3900,11.8750,-8.4375,7.0000,-0.6417,0.2997,-0.6751,-0.2065,
2025-03-08 19:17:29.508,9.7300,-1.1100,-0.4800,11.3125,-8.4375,7.1875,-0.6422,0.2996,-0.6751,-0.2053,
2025-03-08 19:17:29.520,9.7200,-1.1600,-0.6000,9.8125,-7.8750,6.8750,-0.6428,0.2994,-0.6750,-0.2040,
2025-03-08 19:17:29.529,9.6900,-1.2200,-0.6200,8.3125,-6.3750,6.8750,-0.6432,0.2994,-0.6749,-0.2029,
2025-03-08 19:17:29.540,9.7500,-1.2800,-0.7100,6.1875,-5.7500,6.5625,-0.6435,0.2994,-0.6749,-0.2018,
2025-03-08 19:17:29.548,9.7500,-1.2800,-0.7100,5.1875,-6.0625,6.3750,-0.6438,0.2995,-0.6749,-0.2010,
2025-03-08 19:17:29.559,9.7300,-1.3300,-0.6800,5.7500,-6.5000,6.0000,-0.6440,0.2996,-0.6748,-0.2002,
2025-03-08 19:17:29.576,9.6400,-1.3600,-0.6700,7.2500,-6.8125,5.0625,-0.6444,0.2997,-0.6747,-0.1994,
2025-03-08 19:17:29.578,9.5800,-1.4700,-0.6900,8.5625,-7.3125,4.7500,-0.6452,0.2998,-0.6742,-0.1985,
2025-03-08 19:17:29.589,9.5100,-1.5400,-0.6500,9.4375,-7.4375,4.8125,-0.6459,0.2999,-0.6737,-0.1975,
2025-03-08 19:17:29.597,9.5100,-1.5400,-0.6500,10.5625,-7.1875,4.8125,-0.6467,0.2999,-0.6732,-0.1964,
2025-03-08 19:17:29.607,9.5100,-1.6100,-0.6200,11.6250,-6.6875,4.9375,-0.6475,0.2998,-0.6729,-0.1952,
2025-03-08 19:17:29.621,9.5000,-1.8000,-0.7000,12.0625,-6.3750,5.1875,-0.6479,0.2996,-0.6729,-0.1942,
2025-03-08 19:17:29.631,9.5400,-1.8000,-0.7000,12.6875,-5.9375,5.3750,-0.6483,0.2993,-0.6730,-0.1930,
2025-03-08 19:17:29.639,9.6300,-1.8300,-0.6800,12.6875,-5.8125,6.0625,-0.6487,0.2989,-0.6730,-0.1918,
2025-03-08 19:17:29.647,9.6300,-1.8300,-0.6800,12.6875,-5.8125,6.0625,-0.6491,0.2986,-0.6732,-0.1907,
2025-03-08 19:17:29.662,9.7400,-2.0000,-0.5700,15.0625,-3.8750,7.4375,-0.6495,0.2983,-0.6733,-0.1895,
2025-03-08 19:17:29.670,9.7300,-2.0100,-0.5900,19.1250,-1.7500,7.8750,-0.6497,0.2980,-0.6736,-0.1880,
2025-03-08 19:17:29.680,9.7300,-1.5900,-0.4900,24.3750,0.8750,8.1875,-0.6500,0.2973,-0.6741,-0.1865,
2025-03-08 19:17:29.693,9.6600,-1.3700,-0.4600,27.8750,4.0625,7.5625,-0.6501,0.2964,-0.6749,-0.1848,
2025-03-08 19:17:29.697,9.6600,-1.3700,-0.4600,27.8750,4.0625,7.5625,-0.6501,0.2951,-0.6759,-0.1829,
2025-03-08 19:17:29.707,9.6100,-1.3100,-0.5100,28.0000,6.4375,6.6250,-0.6500,0.2938,-0.6771,-0.1812,
2025-03-08 19:17:29.723,9.5700,-2.0300,-0.5600,21.4375,5.3750,4.7500,-0.6499,0.2925,-0.6781,-0.1796,
2025-03-08 19:17:29.729,9.5900,-2.2200,-0.5500,19.4375,6.1250,5.5000,-0.6498,0.2915,-0.6790,-0.1783,
