A1,,,,,,,,,,,
time,accx,accy,accz,gyrox,gyroy,gyroz,w1,w2,w3,w4,
2025-03-13 20:40:36.042,10.2300,0.8700,-0.6200,-6.4375,5.5000,-2.0625,0.6907,-0.2580,0.6086,0.2933,
2025-03-13 20:40:36.044,10.0400,0.8100,-0.7200,-5.0625,6.8750,-0.7500,0.6902,-0.2581,0.6089,0.2938,
2025-03-13 20:40:36.044,9.8800,0.8700,-0.7400,-2.8125,6.4375,0.1250,0.6897,-0.2581,0.6093,0.2941,
2025-03-13 20:40:36.044,9.7000,0.9300,-0.7500,-0.6875,4.7500,0.6875,0.6894,-0.2580,0.6096,0.2942,
2025-03-13 20:40:36.051,9.6500,0.9500,-0.7700,0.0000,1.4375,0.2500,0.6894,-0.2579,0.6096,0.2942,
2025-03-13 20:40:36.063,9.9800,1.0300,-0.5900,1.0000,-1.3125,-1.1250,0.6895,-0.2579,0.6095,0.2942,
2025-03-13 20:40:36.074,10.0900,1.0400,-0.4500,1.3125,-2.0625,-0.9375,0.6896,-0.2578,0.6094,0.2941,
2025-03-13 20:40:36.081,10.2600,1.1300,-0.3400,0.8750,-1.3750,-0.6250,0.6896,-0.2576,0.6095,0.2942,
2025-03-13 20:40:36.098,10.2400,1.0800,-0.3300,0.8750,0.9375,-0.5625,0.6896,-0.2576,0.6096,0.2942,
2025-03-13 20:40:36.103,9.9100,1.0400,-0.5300,0.9375,2.0000,-0.0625,0.6895,-0.2575,0.6097,0.2942,
2025-03-13 20:40:36.112,9.9500,0.9800,-0.5100,1.1250,1.6875,-0.4375,0.6894,-0.2574,0.6099,0.2941,
2025-03-13 20:40:36.121,10.0500,0.9800,-0.5500,0.8750,1.4375,-0.8125,0.6893,-0.2572,0.6100,0.2942,
2025-03-13 20:40:36.143,10.0800,0.9300,-0.5600,0.8750,1.5000,0.3125,0.6892,-0.2570,0.6102,0.2943,
2025-03-13 20:40:36.143,9.9400,1.0100,-0.4700,1.7500,1.8750,1.0625,0.6890,-0.2569,0.6105,0.2943,
2025-03-13 20:40:36.150,9.9000,1.0100,-0.4600,1.5625,0.8125,1.0000,0.6889,-0.2568,0.6107,0.2942,
2025-03-13 20:40:36.164,9.8400,1.0400,-0.6100,0.6250,-1.2500,1.1875,0.6889,-0.2568,0.6107,0.2942,
2025-03-13 20:40:36.171,9.8000,1.0800,-0.5400,2.0000,-2.1250,0.0625,0.6890,-0.2567,0.6107,0.2941,
2025-03-13 20:40:36.179,10.0000,1.1200,-0.4300,2.1875,-3.5625,-1.5000,0.6891,-0.2565,0.6106,0.2941,
2025-03-13 20:40:36.192,10.1300,1.1100,-0.3500,1.6250,-4.1250,-2.1250,0.6893,-0.2562,0.6105,0.2941,
2025-03-13 20:40:36.201,10.3200,1.1400,-0.3600,0.8750,-3.3750,-2.0625,0.6895,-0.2562,0.6103,0.2941,
2025-03-13 20:40:36.211,10.2100,1.0400,-0.4100,1.1250,-2.0000,-2.0000,0.6897,-0.2560,0.6101,0.2941,
2025-03-13 20:40:36.223,10.1200,0.9700,-0.4200,1.5000,-0.5000,-1.6875,0.6898,-0.2559,0.6101,0.2941,
2025-03-13 20:40:36.233,10.1400,1.0200,-0.4100,1.0000,-1.5625,0.0000,0.6899,-0.2558,0.6100,0.2941,
2025-03-13 20:40:36.239,9.9700,1.0600,-0.3400,1.6875,-1.6875,0.5000,0.6898,-0.2557,0.6102,0.2941,
2025-03-13 20:40:36.253,9.9500,1.0300,-0.4700,1.3125,-2.5000,0.8750,0.6898,-0.2556,0.6103,0.2940,
2025-03-13 20:40:36.261,9.9500,1.0600,-0.5600,1.0625,-4.1875,1.1875,0.6899,-0.2556,0.6102,0.2939,
2025-03-13 20:40:36.270,9.9300,1.0700,-0.4800,1.5625,-4.9375,0.7500,0.6901,-0.2556,0.6100,0.2938,
2025-03-13 20:40:36.283,9.9200,1.0500,-0.4700,1.8125,-5.6250,0.2500,0.6902,-0.2556,0.6099,0.2937,
2025-03-13 20:40:36.294,9.9700,1.0000,-0.5100,1.5625,-5.8750,-0.6250,0.6905,-0.2555,0.6097,0.2936,
2025-03-13 20:40:36.346,10.0900,0.9700,-0.4800,0.8125,-6.5000,-0.6250,0.6907,-0.2555,0.6095,0.2936,
2025-03-13 20:40:36.346,10.1800,0.9700,-0.4900,0.3125,-5.8750,0.3125,0.6909,-0.2556,0.6093,0.2935,
2025-03-13 20:40:36.346,10.1200,1.0700,-0.5100,-0.0625,-4.3750,1.2500,0.6909,-0.2557,0.6092,0.2935,
2025-03-13 20:40:36.346,10.0100,1.0800,-0.5200,-0.2500,-1.9375,1.8125,0.6909,-0.2557,0.6093,0.2935,
2025-03-13 20:40:36.346,9.9400,1.0100,-0.6900,-0.5000,-0.5625,1.0000,0.6908,-0.2557,0.6093,0.2935,
2025-03-13 20:40:36.349,9.8600,0.9600,-0.7100,-0.2500,0.5625,0.3125,0.6907,-0.2557,0.6094,0.2935,
2025-03-13 20:40:36.359,9.9300,0.9400,-0.8000,-0.5000,0.0000,0.2500,0.6907,-0.2557,0.6094,0.2935,
2025-03-13 20:40:36.369,10.0200,0.9700,-0.7300,-0.3750,-1.2500,0.5000,0.6908,-0.2557,0.6093,0.2935,
2025-03-13 20:40:36.383,9.9300,0.9800,-0.7000,0.6250,-1.6875,1.0000,0.6908,-0.2557,0.6093,0.2934,
2025-03-13 20:40:36.389,9.9200,0.9700,-0.7100,1.0625,-2.8125,0.8750,0.6910,-0.2558,0.6092,0.2932,
2025-03-13 20:40:36.409,9.9800,1.0000,-0.5700,1.7500,-3.0625,0.3750,0.6911,-0.2558,0.6091,0.2931,
2025-03-13 20:40:36.413,10.0100,1.0100,-0.5700,1.2500,-2.5000,0.4375,0.6912,-0.2557,0.6091,0.2930,
2025-03-13 20:40:36.419,9.8900,1.0100,-0.6000,0.3750,-1.7500,1.0625,0.6912,-0.2558,0.6090,0.2930,
2025-03-13 20:40:36.433,9.8800,1.0600,-0.5300,0.1875,-1.3125,0.8125,0.6912,-0.2558,0.6091,0.2930,
2025-03-13 20:40:36.440,9.7100,1.1100,-0.6200,0.0000,-2.1875,0.1250,0.6912,-0.2558,0.6090,0.2930,
2025-03-13 20:40:36.449,9.9100,0.9700,-0.5800,0.0000,-3.4375,-1.9375,0.6914,-0.2557,0.6088,0.2931,
2025-03-13 20:40:36.463,10.1200,0.9700,-0.5700,-0.6250,-3.9375,-2.6875,0.6916,-0.2556,0.6086,0.2933,
2025-03-13 20:40:36.473,10.2300,0.9000,-0.6600,-1.1875,-3.4375,-2.4375,0.6917,-0.2556,0.6084,0.2935,
2025-03-13 20:40:36.484,10.2500,0.9400,-0.5900,-0.6250,-1.6250,-1.0625,0.6918,-0.2556,0.6083,0.2935,
2025-03-13 20:40:36.493,9.9000,1.0800,-0.6500,-0.6875,-0.7500,0.1875,0.6918,-0.2557,0.6082,0.2935,
2025-03-13 20:40:36.499,9.8600,1.1200,-0.5800,-1.0625,-2.5625,-0.1875,0.6919,-0.2558,0.6080,0.2935,
2025-03-13 20:40:36.511,10.0200,1.1200,-0.5600,-0.4375,-2.6250,-2.0000,0.6920,-0.2557,0.6079,0.2937,
2025-03-13 20:40:36.523,10.2400,0.9700,-0.7100,-1.8125,-2.1875,-2.0625,0.6920,-0.2556,0.6077,0.2939,
2025-03-13 20:40:36.533,10.2800,0.9500,-0.7300,-2.3125,-1.3750,-0.6875,0.6920,-0.2557,0.6077,0.2941,
2025-03-13 20:40:36.540,10.2700,0.9300,-0.7100,-1.1875,-0.8125,0.0000,0.6920,-0.2558,0.6076,0.2941,
2025-03-13 20:40:36.593,10.2600,1.0100,-0.7500,-1.2500,-1.1250,2.1875,0.6920,-0.2560,0.6075,0.2941,
2025-03-13 20:40:36.593,9.9900,1.1400,-0.6900,-0.1250,-0.8125,2.8750,0.6920,-0.2562,0.6076,0.2939,
2025-03-13 20:40:36.594,9.9300,1.1600,-0.5800,1.9375,-0.1250,1.8125,0.6920,-0.2562,0.6076,0.2937,
2025-03-13 20:40:36.594,9.8500,1.0700,-0.6600,2.3125,0.7500,0.6875,0.6920,-0.2561,0.6078,0.2935,
2025-03-13 20:40:36.614,9.9700,1.0000,-0.7900,1.0625,0.6250,0.3750,0.6920,-0.2560,0.6078,0.2935,
2025-03-13 20:40:36.614,9.9700,0.9900,-0.8000,0.8750,-0.0625,0.0000,0.6920,-0.2560,0.6078,0.2935,
2025-03-13 20:40:36.663,9.9500,0.9500,-0.7800,1.6250,-0.1875,-0.1250,0.6921,-0.2559,0.6079,0.2933,
2025-03-13 20:40:36.672,9.9800,0.9500,-0.7900,1.7500,-0.8750,0.0625,0.6921,-0.2559,0.6079,0.2932,
2025-03-13 20:40:36.672,10.0000,0.9300,-0.6900,1.5000,-1.0000,0.5625,0.6922,-0.2558,0.6079,0.2931,
2025-03-13 20:40:36.672,10.1000,0.9500,-0.6400,1.5000,-1.3750,0.6875,0.6922,-0.2558,0.6079,0.2931,
2025-03-13 20:40:36.673,10.0800,0.9700,-0.6100,1.1250,-0.4375,1.0000,0.6923,-0.2557,0.6079,0.2930,
2025-03-13 20:40:36.673,9.9400,0.9900,-0.6900,0.8750,0.3125,1.5000,0.6922,-0.2557,0.6080,0.2929,
2025-03-13 20:40:36.673,9.9400,0.9700,-0.7200,1.0625,-0.6875,1.6875,0.6921,-0.2557,0.6081,0.2928,
2025-03-13 20:40:36.687,9.9400,1.0800,-0.6300,1.3750,-1.8125,1.7500,0.6921,-0.2558,0.6082,0.2927,
2025-03-13 20:40:36.694,9.8600,1.1400,-0.5800,1.6875,-1.6250,1.1250,0.6921,-0.2559,0.6082,0.2925,
2025-03-13 20:40:36.703,9.9300,1.0900,-0.5600,1.0625,-1.5000,0.0625,0.6922,-0.2558,0.6082,0.2924,
2025-03-13 20:40:36.713,10.0300,1.0100,-0.6200,0.4375,-1.3125,-0.5000,0.6922,-0.2557,0.6083,0.2924,
2025-03-13 20:40:36.723,10.1700,0.9600,-0.6200,-0.5625,-1.0625,-0.5625,0.6922,-0.2556,0.6083,0.2925,
2025-03-13 20:40:36.733,10.1300,1.0200,-0.6100,-0.8125,0.1250,0.3125,0.6922,-0.2556,0.6083,0.2925,
2025-03-13 20:40:36.747,10.0300,1.0100,-0.6000,-0.8750,0.8125,0.7500,0.6921,-0.2556,0.6083,0.2926,
2025-03-13 20:40:36.763,10.0100,1.0000,-0.6500,-0.9375,1.2500,1.0000,0.6919,-0.2556,0.6085,0.2927,
2025-03-13 20:40:36.764,9.9800,0.9800,-0.6900,-0.9375,1.5625,0.6875,0.6917,-0.2557,0.6086,0.2928,
2025-03-13 20:40:36.773,9.7500,0.8700,-0.8100,-0.1250,1.5000,0.5000,0.6916,-0.2557,0.6087,0.2929,
2025-03-13 20:40:36.779,9.8300,0.9100,-0.7300,0.8125,0.6875,0.1250,0.6915,-0.2556,0.6089,0.2930,
2025-03-13 20:40:36.799,9.9400,0.8800,-0.7000,0.8125,-0.6875,-0.1875,0.6914,-0.2556,0.6090,0.2929,
2025-03-13 20:40:36.803,9.9800,0.9400,-0.6500,0.8125,-1.1250,0.2500,0.6915,-0.2556,0.6089,0.2928,
2025-03-13 20:40:36.812,10.0500,0.9100,-0.5900,0.5625,-1.0000,0.6250,0.6915,-0.2555,0.6089,0.2928,
2025-03-13 20:40:36.822,10.0400,0.9200,-0.5600,0.1250,-0.4375,1.0000,0.6915,-0.2556,0.6090,0.2928,
2025-03-13 20:40:36.833,9.9700,0.9200,-0.6500,-0.8750,0.3125,1.5000,0.6914,-0.2556,0.6091,0.2927,
2025-03-13 20:40:36.843,9.9700,0.9200,-0.6500,-1.3750,0.7500,1.6875,0.6913,-0.2557,0.6091,0.2928,
2025-03-13 20:40:36.853,9.7400,0.9800,-0.6700,-0.3750,1.0625,1.0000,0.6911,-0.2559,0.6093,0.2928,
2025-03-13 20:40:36.869,9.7900,0.9500,-0.6300,-0.3750,-0.1875,-0.1250,0.6910,-0.2559,0.6094,0.2928,
2025-03-13 20:40:36.873,9.9500,0.9500,-0.5800,-0.5000,-1.4375,-1.0625,0.6910,-0.2558,0.6094,0.2928,
2025-03-13 20:40:36.883,10.0700,1.0000,-0.6300,-0.6875,-1.3750,-1.3750,0.6910,-0.2557,0.6094,0.2929,
2025-03-13 20:40:36.889,10.0700,1.0000,-0.6300,-1.3750,-1.0625,-0.5000,0.6910,-0.2557,0.6093,0.2930,
2025-03-13 20:40:36.902,10.1100,0.9800,-0.6500,-2.0625,-1.3125,0.0000,0.6910,-0.2558,0.6093,0.2931,
2025-03-13 20:40:36.940,10.0700,1.0400,-0.6800,-2.0000,-0.3750,0.1250,0.6910,-0.2559,0.6091,0.2932,
2025-03-13 20:40:36.948,10.0800,1.0100,-0.7300,-2.1250,0.1875,-0.0625,0.6910,-0.2560,0.6091,0.2933,
2025-03-13 20:40:36.948,10.0400,1.0200,-0.7200,-2.5000,-0.2500,0.2500,0.6909,-0.2561,0.6091,0.2935,
2025-03-13 20:40:36.948,10.0400,1.0200,-0.7200,-1.8750,-0.5625,-0.1875,0.6908,-0.2562,0.6090,0.2936,
2025-03-13 20:40:36.952,10.0100,1.0600,-0.6700,-1.8125,-1.0000,-0.6250,0.6907,-0.2563,0.6090,0.2938,
2025-03-13 20:40:36.962,10.1100,1.0100,-0.7100,-1.5000,-0.5625,-0.1875,0.6907,-0.2564,0.6089,0.2939,
2025-03-13 20:40:36.973,10.0400,1.0400,-0.6300,-0.5000,0.2500,0.3750,0.6907,-0.2564,0.6089,0.2941,
2025-03-13 20:40:36.983,10.0200,1.0100,-0.6500,-0.9375,0.2500,0.5000,0.6906,-0.2564,0.6090,0.2941,
2025-03-13 20:40:36.992,10.0200,1.0100,-0.6500,-1.4375,-0.0625,1.0625,0.6906,-0.2564,0.6090,0.2942,
2025-03-13 20:40:37.003,9.9200,1.0600,-0.6900,-1.6875,-0.1250,0.6250,0.6905,-0.2565,0.6090,0.2942,
2025-03-13 20:40:37.014,10.0200,1.0600,-0.6300,-1.6250,0.0000,0.1250,0.6904,-0.2566,0.6090,0.2943,
2025-03-13 20:40:37.023,10.0700,0.9700,-0.7200,-1.8750,0.3750,-0.3750,0.6903,-0.2567,0.6090,0.2945,
2025-03-13 20:40:37.033,9.9900,0.9900,-0.7200,-2.1250,0.3125,0.2500,0.6903,-0.2567,0.6090,0.2946,
2025-03-13 20:40:37.040,9.9900,0.9900,-0.7200,-1.5625,0.2500,0.6875,0.6902,-0.2568,0.6089,0.2947,
2025-03-13 20:40:37.050,9.9800,0.9200,-0.7900,-1.5625,0.2500,0.6875,0.6901,-0.2570,0.6089,0.2948,
2025-03-13 20:40:37.064,9.9800,1.0200,-0.6700,0.0000,0.2500,0.4375,0.6901,-0.2570,0.6089,0.2949,
2025-03-13 20:40:37.089,10.0200,1.0400,-0.6600,-0.1250,0.3125,-0.4375,0.6901,-0.2570,0.6089,0.2949,
2025-03-13 20:40:37.089,10.0000,1.0000,-0.6300,0.1250,1.4375,-0.6875,0.6900,-0.2570,0.6090,0.2949,
2025-03-13 20:40:37.091,10.0000,1.0000,-0.6300,-0.3125,2.2500,-1.0000,0.6899,-0.2569,0.6091,0.2950,
2025-03-13 20:40:37.103,9.9100,1.0100,-0.6700,-0.4375,2.8125,-1.1875,0.6898,-0.2567,0.6092,0.2951,
2025-03-13 20:40:37.113,9.8700,1.0200,-0.7000,-0.5625,2.5625,-2.0000,0.6896,-0.2566,0.6094,0.2953,
2025-03-13 20:40:37.123,9.8700,0.9700,-0.7200,-0.4375,1.8125,-2.5000,0.6896,-0.2563,0.6095,0.2955,
2025-03-13 20:40:37.133,10.0300,1.0000,-0.7600,-0.3750,0.3125,-2.0625,0.6895,-0.2562,0.6096,0.2957,
2025-03-13 20:40:37.139,10.0300,1.0000,-0.7600,-0.3750,0.3125,-2.0625,0.6896,-0.2560,0.6095,0.2958,
2025-03-13 20:40:37.157,10.1200,1.0100,-0.7400,0.0625,-1.1250,-1.6250,0.6896,-0.2560,0.6094,0.2958,
2025-03-13 20:40:37.164,10.0100,1.1000,-0.6700,1.4375,-1.0625,-0.5000,0.6898,-0.2559,0.6093,0.2958,
2025-03-13 20:40:37.172,10.0300,1.0700,-0.6600,1.2500,-0.4375,-0.6250,0.6898,-0.2559,0.6093,0.2957,
2025-03-13 20:40:37.183,10.0400,1.0500,-0.6000,0.5625,-0.1250,-0.5625,0.6898,-0.2557,0.6093,0.2957,
2025-03-13 20:40:37.192,10.0400,1.0500,-0.6000,0.7500,0.8750,-0.8750,0.6898,-0.2557,0.6094,0.2957,
2025-03-13 20:40:37.202,9.9800,0.9700,-0.7200,0.6875,1.3750,-0.3750,0.6898,-0.2556,0.6094,0.2958,
2025-03-13 20:40:37.243,9.9800,0.9700,-0.7200,0.2500,0.3750,0.1250,0.6897,-0.2554,0.6096,0.2958,
2025-03-13 20:40:37.243,9.9800,1.0000,-0.7000,1.0625,-0.1875,-0.1875,0.6897,-0.2554,0.6096,0.2958,
2025-03-13 20:40:37.243,10.0600,1.0100,-0.6000,1.0625,-0.0625,-0.2500,0.6897,-0.2554,0.6096,0.2958,
2025-03-13 20:40:37.243,10.1000,1.0500,-0.5400,0.6250,0.1250,-0.2500,0.6896,-0.2552,0.6097,0.2958,
2025-03-13 20:40:37.252,10.0600,1.0200,-0.6200,0.1875,0.3750,-0.0625,0.6896,-0.2552,0.6098,0.2958,
2025-03-13 20:40:37.263,9.9500,1.0300,-0.6200,0.1875,0.5625,-0.3125,0.6896,-0.2552,0.6098,0.2958,
2025-03-13 20:40:37.273,9.8900,1.0100,-0.6700,-0.1250,-0.3125,-0.4375,0.6895,-0.2552,0.6098,0.2958,
2025-03-13 20:40:37.283,9.9500,0.9600,-0.6400,0.1875,-0.4375,-0.6875,0.6895,-0.2551,0.6099,0.2958,
2025-03-13 20:40:37.289,10.0400,0.9700,-0.6300,-0.0625,-0.4375,-0.3125,0.6895,-0.2551,0.6099,0.2959,
2025-03-13 20:40:37.303,10.0400,0.9400,-0.6600,0.0625,0.1250,0.3125,0.6895,-0.2551,0.6099,0.2959,
2025-03-13 20:40:37.312,10.0500,0.9800,-0.6000,-0.2500,0.1875,0.7500,0.6894,-0.2551,0.6100,0.2959,
2025-03-13 20:40:37.323,9.9500,1.0100,-0.6700,-0.7500,-0.3750,1.1250,0.6894,-0.2551,0.6100,0.2959,
2025-03-13 20:40:37.333,9.9100,1.0000,-0.6700,-0.9375,-0.3750,0.8125,0.6893,-0.2552,0.6100,0.2959,
2025-03-13 20:40:37.344,9.8900,1.0700,-0.6700,-1.0625,-0.1250,0.3750,0.6893,-0.2552,0.6100,0.2960,
2025-03-13 20:40:37.353,9.8500,1.0400,-0.6700,-0.5625,-0.7500,-0.2500,0.6892,-0.2553,0.6101,0.2960,
2025-03-13 20:40:37.364,9.9600,1.0400,-0.6200,-0.4375,-1.3750,-1.0625,0.6892,-0.2553,0.6101,0.2960,
2025-03-13 20:40:37.374,10.0600,1.0500,-0.5600,-0.8125,-1.6250,-0.8125,0.6893,-0.2553,0.6100,0.2961,
2025-03-13 20:40:37.382,10.1400,1.0200,-0.5800,-1.0000,-0.8125,-0.6875,0.6893,-0.2552,0.6099,0.2962,
2025-03-13 20:40:37.393,10.0900,1.0000,-0.6100,-1.0000,-0.8125,-0.6875,0.6893,-0.2552,0.6098,0.2963,
2025-03-13 20:40:37.403,10.0300,1.0500,-0.6800,-1.3125,0.0625,0.7500,0.6893,-0.2552,0.6099,0.2964,
2025-03-13 20:40:37.413,9.8800,1.0000,-0.7700,-0.9375,-0.3125,0.3750,0.6892,-0.2554,0.6099,0.2964,
2025-03-13 20:40:37.429,9.8700,1.0400,-0.6900,-0.7500,-1.1250,-0.5000,0.6891,-0.2554,0.6099,0.2965,
2025-03-13 20:40:37.433,10.0200,1.0200,-0.7000,-1.1250,-1.7500,-0.7500,0.6892,-0.2555,0.6097,0.2966,
2025-03-13 20:40:37.439,10.1300,1.0100,-0.6900,-1.1250,-1.7500,-0.7500,0.6893,-0.2555,0.6096,0.2966,
2025-03-13 20:40:37.453,10.2300,0.9700,-0.7300,-1.1250,-2.1250,-0.5625,0.6893,-0.2556,0.6095,0.2967,
2025-03-13 20:40:37.463,10.1300,1.0500,-0.7000,-0.1875,0.3125,1.0625,0.6894,-0.2557,0.6094,0.2966,
2025-03-13 20:40:37.473,10.0000,1.0400,-0.7200,-0.5000,0.6250,1.0625,0.6893,-0.2557,0.6095,0.2966,
2025-03-13 20:40:37.483,10.0100,0.9800,-0.7500,-0.6875,0.1875,1.1875,0.6893,-0.2557,0.6096,0.2966,
2025-03-13 20:40:37.490,9.9800,1.0100,-0.7400,-0.6875,0.1875,1.1875,0.6892,-0.2559,0.6096,0.2966,
2025-03-13 20:40:37.499,9.8600,0.9600,-0.8500,-0.3750,0.1875,1.3125,0.6892,-0.2559,0.6096,0.2965,
2025-03-13 20:40:37.539,9.9200,1.0100,-0.7700,0.9375,-1.4375,-0.0625,0.6892,-0.2559,0.6096,0.2964,
2025-03-13 20:40:37.548,9.9900,1.0100,-0.7200,1.0000,-2.3125,0.0625,0.6893,-0.2559,0.6095,0.2964,
2025-03-13 20:40:37.548,10.0000,1.0300,-0.5900,0.8125,-1.6875,-0.3125,0.6895,-0.2559,0.6094,0.2963,
2025-03-13 20:40:37.548,9.9700,1.0500,-0.5400,0.8125,-1.6875,-0.3125,0.6895,-0.2558,0.6094,0.2962,
2025-03-13 20:40:37.553,9.9600,1.0000,-0.5500,-0.1250,-0.4375,-0.0625,0.6895,-0.2558,0.6094,0.2963,
2025-03-13 20:40:37.563,9.9700,0.9500,-0.6000,-0.1250,0.6250,0.1250,0.6894,-0.2558,0.6095,0.2963,
2025-03-13 20:40:37.573,9.9900,0.9500,-0.6200,-0.2500,1.3750,1.0625,0.6893,-0.2557,0.6096,0.2963,
2025-03-13 20:40:37.584,9.8800,0.9000,-0.6400,-0.2500,2.4375,1.9375,0.6892,-0.2558,0.6097,0.2963,
2025-03-13 20:40:37.594,9.8600,1.0100,-0.6400,-0.2500,2.4375,1.9375,0.6890,-0.2558,0.6099,0.2963,
2025-03-13 20:40:37.603,9.7700,0.9300,-0.8300,-0.5000,3.1875,1.6250,0.6888,-0.2558,0.6102,0.2963,
2025-03-13 20:40:37.614,9.8300,0.9800,-0.8400,-0.9375,0.5000,0.6875,0.6888,-0.2559,0.6102,0.2963,
2025-03-13 20:40:37.623,9.9600,1.0500,-0.7700,0.8125,-2.0625,-0.2500,0.6888,-0.2559,0.6101,0.2963,
2025-03-13 20:40:37.634,9.9900,1.0900,-0.6700,1.4375,-1.6875,-0.7500,0.6890,-0.2559,0.6100,0.2962,
2025-03-13 20:40:37.641,10.0700,1.1600,-0.5400,1.4375,-1.6875,-0.7500,0.6891,-0.2558,0.6099,0.2961,
2025-03-13 20:40:37.654,10.0700,1.1300,-0.6200,-0.6875,-0.4375,-1.9375,0.6891,-0.2557,0.6099,0.2962,
2025-03-13 20:40:37.667,9.9900,1.1000,-0.6200,-0.6875,-0.4375,-1.9375,0.6891,-0.2556,0.6099,0.2964,
2025-03-13 20:40:37.673,9.9500,0.9700,-0.7900,-1.1875,0.6250,-2.0000,0.6891,-0.2555,0.6098,0.2966,
2025-03-13 20:40:37.685,10.0500,0.9600,-0.7700,-0.8750,0.0625,-2.4375,0.6891,-0.2554,0.6097,0.2968,
2025-03-13 20:40:37.704,10.2000,0.9000,-0.7500,-0.6875,-1.8125,-1.7500,0.6893,-0.2554,0.6096,0.2969,
2025-03-13 20:40:37.713,10.2400,0.9900,-0.6800,-0.1875,-2.6250,-1.0000,0.6894,-0.2554,0.6094,0.2969,
2025-03-13 20:40:37.713,10.0800,1.1300,-0.6000,0.7500,-1.6875,0.3125,0.6895,-0.2554,0.6094,0.2968,
2025-03-13 20:40:37.729,9.9400,1.1400,-0.6800,1.0000,-0.7500,1.0625,0.6895,-0.2554,0.6094,0.2967,
2025-03-13 20:40:37.733,9.8500,1.0500,-0.7200,1.3125,0.8125,0.5625,0.6895,-0.2553,0.6095,0.2966,
2025-03-13 20:40:37.739,9.8800,1.0600,-0.7400,0.6875,0.3750,-0.3750,0.6895,-0.2552,0.6095,0.2966,
2025-03-13 20:40:37.753,10.0600,1.0000,-0.7900,0.2500,-1.7500,-1.1250,0.6896,-0.2552,0.6094,0.2966,
2025-03-13 20:40:37.782,10.1200,1.0500,-0.7800,0.2500,-1.7500,-1.1250,0.6897,-0.2552,0.6092,0.2967,
2025-03-13 20:40:37.783,10.1700,1.0500,-0.7100,0.3125,-2.2500,-0.6875,0.6898,-0.2552,0.6091,0.2967,
2025-03-13 20:40:37.790,10.0400,1.0600,-0.7100,0.7500,-0.6250,-0.3750,0.6899,-0.2551,0.6091,0.2966,
2025-03-13 20:40:37.790,10.0200,1.0300,-0.7600,0.6250,-0.2500,0.0625,0.6899,-0.2551,0.6091,0.2966,
2025-03-13 20:40:37.842,10.0400,0.9900,-0.7900,0.4375,-0.9375,0.3750,0.6899,-0.2551,0.6091,0.2966,
2025-03-13 20:40:37.842,10.0200,0.9900,-0.7600,0.5000,-1.1250,0.9375,0.6900,-0.2552,0.6090,0.2965,
2025-03-13 20:40:37.843,9.9700,1.0300,-0.6700,0.3750,-1.0625,1.3125,0.6900,-0.2553,0.6090,0.2964,
2025-03-13 20:40:37.843,9.8800,1.1000,-0.6800,0.6875,-0.2500,1.1250,0.6899,-0.2553,0.6091,0.2964,
2025-03-13 20:40:37.843,9.8200,1.0600,-0.6700,0.7500,-0.1875,0.0000,0.6900,-0.2553,0.6091,0.2963,
2025-03-13 20:40:37.863,9.8500,0.9900,-0.7800,0.1250,-0.8125,-0.4375,0.6900,-0.2553,0.6090,0.2963,
2025-03-13 20:40:37.869,9.9000,1.0100,-0.7900,-0.1250,-1.7500,-0.6875,0.6901,-0.2553,0.6089,0.2963,
2025-03-13 20:40:37.873,9.8900,1.0200,-0.7800,0.1875,-2.1250,-1.0625,0.6902,-0.2552,0.6088,0.2963,
2025-03-13 20:40:37.883,9.9100,0.9900,-0.8200,0.6250,-2.0000,-1.0625,0.6904,-0.2552,0.6086,0.2963,
2025-03-13 20:40:37.889,10.0100,0.9900,-0.7900,0.5625,-1.6250,-1.1250,0.6905,-0.2552,0.6085,0.2963,
2025-03-13 20:40:37.903,9.9300,1.0300,-0.7600,1.0625,-0.8125,-0.7500,0.6906,-0.2551,0.6085,0.2963,
2025-03-13 20:40:37.913,9.9000,0.9800,-0.7900,1.5000,-0.3750,-1.0625,0.6906,-0.2550,0.6085,0.2963,
2025-03-13 20:40:37.923,9.9500,0.9700,-0.7400,1.4375,-0.3750,-1.3750,0.6907,-0.2548,0.6085,0.2963,
2025-03-13 20:40:37.943,9.9900,0.9500,-0.7400,1.8125,-0.6250,-1.4375,0.6908,-0.2546,0.6085,0.2962,
2025-03-13 20:40:37.943,10.0500,0.9600,-0.7100,1.6875,-0.8125,-1.5000,0.6909,-0.2545,0.6084,0.2962,
2025-03-13 20:40:37.973,10.0100,1.0000,-0.6400,1.6875,-0.6875,-1.1875,0.6910,-0.2543,0.6084,0.2961,
2025-03-13 20:40:37.974,10.0700,1.0700,-0.5900,1.2500,-0.8125,-0.9375,0.6910,-0.2542,0.6084,0.2961,
2025-03-13 20:40:37.974,10.0900,1.0100,-0.6300,0.8125,-1.2500,-0.5625,0.6910,-0.2542,0.6084,0.2961,
2025-03-13 20:40:37.989,10.0900,1.1000,-0.6200,0.4375,-0.8125,-0.1250,0.6911,-0.2542,0.6084,0.2961,
2025-03-13 20:40:37.989,10.0400,1.1100,-0.6700,0.3125,-0.6250,-0.3750,0.6910,-0.2541,0.6084,0.2961,
2025-03-13 20:40:38.000,9.9800,1.1000,-0.7400,0.4375,-1.5000,-0.5000,0.6911,-0.2542,0.6083,0.2961,
2025-03-13 20:40:38.012,9.9500,1.1300,-0.6700,0.5000,-1.8125,-0.8125,0.6912,-0.2542,0.6083,0.2961,
2025-03-13 20:40:38.022,10.0000,1.1300,-0.6600,-0.1875,-2.3125,-1.1875,0.6913,-0.2541,0.6081,0.2962,
2025-03-13 20:40:38.033,10.1800,1.0800,-0.6800,-1.0000,-1.6250,-1.2500,0.6913,-0.2541,0.6080,0.2963,
2025-03-13 20:40:38.043,10.1200,1.0300,-0.7400,-0.7500,-0.1875,-0.9375,0.6913,-0.2540,0.6080,0.2964,
2025-03-13 20:40:38.053,10.0400,0.9500,-0.8400,-0.3125,0.7500,-0.4375,0.6913,-0.2540,0.6080,0.2964,
2025-03-13 20:40:38.063,9.9500,0.9800,-0.8700,0.0000,0.5625,0.5625,0.6913,-0.2540,0.6080,0.2964,
2025-03-13 20:40:38.073,9.8800,0.9200,-0.9600,0.7500,-0.1250,0.8125,0.6913,-0.2540,0.6081,0.2964,
2025-03-13 20:40:38.085,9.8900,1.0100,-0.8400,1.6250,-0.1875,0.5000,0.6913,-0.2540,0.6081,0.2963,
2025-03-13 20:40:38.093,9.9300,1.0300,-0.7900,1.9375,-0.3125,0.1875,0.6914,-0.2538,0.6082,0.2962,
2025-03-13 20:40:38.100,9.9400,1.0500,-0.6900,1.7500,0.0625,0.0000,0.6914,-0.2538,0.6082,0.2961,
2025-03-13 20:40:38.142,9.9000,1.0500,-0.6400,1.4375,0.7500,-0.6875,0.6914,-0.2536,0.6083,0.2961,
2025-03-13 20:40:38.143,9.8800,1.0200,-0.7300,0.5625,1.1875,-1.3125,0.6914,-0.2535,0.6083,0.2961,
2025-03-13 20:40:38.143,9.9400,1.0400,-0.7500,0.1875,0.6875,-0.7500,0.6913,-0.2534,0.6084,0.2962,
2025-03-13 20:40:38.143,10.0100,1.0100,-0.7800,-0.1250,0.0625,-0.3125,0.6913,-0.2534,0.6084,0.2963,
2025-03-13 20:40:38.162,9.9400,1.1000,-0.7900,-0.0625,-0.2500,0.2500,0.6913,-0.2534,0.6084,0.2963,
2025-03-13 20:40:38.162,9.9500,1.1100,-0.7600,0.3125,-0.1875,0.1875,0.6913,-0.2534,0.6084,0.2963,
2025-03-13 20:40:38.172,10.0200,0.9800,-0.7900,0.5625,0.5000,-0.5625,0.6913,-0.2534,0.6084,0.2963,
2025-03-13 20:40:38.182,10.0300,1.0400,-0.7800,0.6875,0.8125,-0.5625,0.6913,-0.2533,0.6084,0.2963,
2025-03-13 20:40:38.192,10.0000,0.9700,-0.8100,1.0000,0.4375,-0.3750,0.6913,-0.2533,0.6085,0.2962,
2025-03-13 20:40:38.204,9.9700,0.9900,-0.7500,1.8125,0.5625,0.1250,0.6913,-0.2532,0.6085,0.2961,
2025-03-13 20:40:38.213,9.9600,1.1100,-0.6500,1.3125,0.1875,0.0000,0.6913,-0.2531,0.6086,0.2960,
2025-03-13 20:40:38.223,9.9900,1.0900,-0.6500,0.5625,0.4375,-0.2500,0.6913,-0.2531,0.6086,0.2960,
2025-03-13 20:40:38.233,10.0200,1.0800,-0.6900,-0.1875,1.1250,-0.3125,0.6912,-0.2531,0.6087,0.2961,
2025-03-13 20:40:38.243,10.0300,1.0100,-0.7900,-0.1875,1.1250,-0.4375,0.6912,-0.2530,0.6088,0.2961,
2025-03-13 20:40:38.249,9.9800,0.9800,-0.8200,0.5625,1.1250,-0.1875,0.6911,-0.2530,0.6088,0.2961,
2025-03-13 20:40:38.262,9.9200,1.0400,-0.8200,0.5625,0.3125,0.0000,0.6911,-0.2530,0.6088,0.2961,
2025-03-13 20:40:38.269,9.8700,1.1600,-0.7300,0.7500,-0.7500,0.0000,0.6911,-0.2530,0.6088,0.2961,
2025-03-13 20:40:38.283,10.0600,1.1100,-0.6400,0.5625,-1.6250,-0.4375,0.6912,-0.2530,0.6087,0.2961,
2025-03-13 20:40:38.293,10.1300,1.1000,-0.6700,0.3750,-0.7500,-0.1875,0.6912,-0.2530,0.6087,0.2961,
2025-03-13 20:40:38.300,10.1200,1.1100,-0.6700,0.1250,0.0625,0.3750,0.6912,-0.2529,0.6087,0.2961,
2025-03-13 20:40:38.309,10.1200,1.0700,-0.6900,0.1250,0.2500,1.1250,0.6912,-0.2530,0.6088,0.2961,
2025-03-13 20:40:38.322,9.8800,1.1200,-0.7400,0.0000,0.1250,1.0625,0.6911,-0.2530,0.6088,0.2961,
2025-03-13 20:40:38.333,9.8400,1.1400,-0.7200,-0.6250,-1.0625,0.8750,0.6912,-0.2531,0.6088,0.2960,
2025-03-13 20:40:38.342,9.8100,1.2100,-0.6300,-0.7500,-1.6250,-0.1250,0.6912,-0.2532,0.6086,0.2961,
2025-03-13 20:40:38.353,10.0100,1.0900,-0.6800,-1.5000,-2.1875,-1.3125,0.6913,-0.2532,0.6085,0.2963,
2025-03-13 20:40:38.363,10.1500,1.0700,-0.6900,-3.0000,-2.8125,-1.3750,0.6913,-0.2533,0.6083,0.2964,
2025-03-13 20:40:38.373,10.1400,1.0000,-0.7900,-3.2500,-2.5000,-0.6875,0.6914,-0.2535,0.6080,0.2966,
2025-03-13 20:40:38.384,10.0900,1.0400,-0.8000,-2.8125,-2.3750,0.5000,0.6915,-0.2537,0.6078,0.2967,
2025-03-13 20:40:38.390,9.9500,1.1300,-0.8000,-2.7500,-2.7500,1.3750,0.6915,-0.2540,0.6077,0.2968,
2025-03-13 20:40:38.399,9.9000,1.1000,-0.8400,-2.1875,-2.6250,0.7500,0.6915,-0.2542,0.6075,0.2969,
2025-03-13 20:40:38.445,9.9500,1.1300,-0.7900,-1.5000,-2.1250,-0.7500,0.6916,-0.2543,0.6073,0.2969,
2025-03-13 20:40:38.445,10.1300,1.0600,-0.8100,-1.5625,-1.8125,-1.3125,0.6917,-0.2543,0.6071,0.2971,
2025-03-13 20:40:38.445,10.1200,0.9900,-0.8200,-1.1250,-1.1250,-0.8750,0.6918,-0.2544,0.6070,0.2972,
2025-03-13 20:40:38.445,10.1200,0.9700,-0.7900,-0.8125,-0.4375,-0.1875,0.6917,-0.2544,0.6070,0.2972,
2025-03-13 20:40:38.453,10.0200,0.9900,-0.8200,-0.7500,-0.3750,0.8750,0.6917,-0.2545,0.6070,0.2972,
2025-03-13 20:40:38.459,9.8400,1.0400,-0.8500,-0.2500,-0.6250,0.5625,0.6917,-0.2545,0.6070,0.2972,
2025-03-13 20:40:38.473,9.9000,1.0500,-0.8200,-0.4375,-1.9375,0.1875,0.6918,-0.2546,0.6069,0.2971,
2025-03-13 20:40:38.485,9.9500,1.0300,-0.8500,-0.5625,-2.6250,-0.1875,0.6920,-0.2546,0.6067,0.2971,
2025-03-13 20:40:38.490,10.1000,1.0100,-0.8200,-0.5625,-2.1250,-0.1250,0.6921,-0.2547,0.6066,0.2971,
2025-03-13 20:40:38.503,10.1100,1.0000,-0.8400,-0.3750,-1.8125,0.3750,0.6921,-0.2547,0.6065,0.2970,
2025-03-13 20:40:38.510,9.9600,0.9800,-0.9100,-0.1875,-0.1250,0.9375,0.6921,-0.2548,0.6065,0.2969,
2025-03-13 20:40:38.520,9.8600,1.0300,-0.8600,-0.0625,-0.8750,0.9375,0.6921,-0.2549,0.6065,0.2969,
2025-03-13 20:40:38.533,9.8300,1.0600,-0.8100,0.0000,-1.6250,0.3750,0.6923,-0.2549,0.6064,0.2969,
2025-03-13 20:40:38.543,9.9200,1.1000,-0.7800,-0.6875,-2.5625,0.3125,0.6923,-0.2550,0.6063,0.2969,
2025-03-13 20:40:38.550,9.9700,1.0500,-0.7600,-0.8750,-3.0000,0.0000,0.6925,-0.2551,0.6060,0.2969,
2025-03-13 20:40:38.563,10.0800,1.0500,-0.7100,-0.7500,-2.8750,0.0625,0.6926,-0.2552,0.6059,0.2969,
2025-03-13 20:40:38.573,10.0900,1.0700,-0.7400,-0.6875,-2.0625,0.4375,0.6926,-0.2553,0.6058,0.2969,
2025-03-13 20:40:38.590,10.0700,1.0700,-0.7500,-0.6875,-2.1875,1.0000,0.6927,-0.2554,0.6057,0.2968,
2025-03-13 20:40:38.590,10.0600,1.0500,-0.7900,-0.7500,-1.9375,1.2500,0.6927,-0.2556,0.6056,0.2968,
2025-03-13 20:40:38.609,9.9300,1.0000,-0.7800,-0.5000,-1.5625,1.8750,0.6927,-0.2557,0.6056,0.2967,
2025-03-13 20:40:38.614,9.9300,0.9900,-0.8000,-0.1875,-1.6250,1.7500,0.6928,-0.2559,0.6055,0.2966,
2025-03-13 20:40:38.623,9.8800,0.9200,-0.8300,-0.5625,-1.3750,1.5625,0.6928,-0.2560,0.6055,0.2964,
2025-03-13 20:40:38.630,9.8600,0.8900,-0.8600,-1.0000,-1.8750,1.8750,0.6928,-0.2562,0.6055,0.2963,
2025-03-13 20:40:38.643,10.0100,0.7700,-0.8700,-1.0000,-2.7500,2.3750,0.6929,-0.2565,0.6053,0.2962,
2025-03-13 20:40:38.653,10.0800,0.7300,-0.8500,-1.1250,-3.3750,3.9375,0.6929,-0.2568,0.6052,0.2960,
2025-03-13 20:40:38.660,10.0500,0.7900,-0.8500,-0.8125,-3.2500,5.8750,0.6929,-0.2574,0.6052,0.2956,
2025-03-13 20:40:38.673,9.7300,0.9300,-0.8600,0.1250,-2.6875,7.3125,0.6928,-0.2579,0.6053,0.2952,
2025-03-13 20:40:38.685,9.6600,1.0100,-0.7100,0.8125,-1.8750,6.4375,0.6928,-0.2582,0.6053,0.2947,
2025-03-13 20:40:38.690,9.8000,0.9500,-0.6900,-0.1250,-2.6875,5.1875,0.6928,-0.2586,0.6053,0.2944,
2025-03-13 20:40:38.743,10.0100,0.8900,-0.7400,-1.8125,-4.3125,4.5625,0.6928,-0.2586,0.6053,0.2944,
2025-03-13 20:40:38.743,10.1900,0.9000,-0.6900,-2.0625,-3.1875,5.2500,0.6928,-0.2591,0.6052,0.2943,
2025-03-13 20:40:38.743,10.2100,0.8500,-0.7000,-2.3750,-1.5000,6.3750,0.6926,-0.2601,0.6052,0.2938,
2025-03-13 20:40:38.743,10.2500,0.8300,-0.7200,-3.1250,-0.3750,8.2500,0.6924,-0.2607,0.6053,0.2936,
2025-03-13 20:40:38.743,10.5500,0.6300,-0.8100,-3.6250,-0.8125,11.1250,0.6921,-0.2616,0.6055,0.2932,
2025-03-13 20:40:38.753,10.4900,0.5900,-0.8800,-3.8125,-1.0625,15.2500,0.6917,-0.2627,0.6057,0.2926,
2025-03-13 20:40:38.760,10.3100,0.6400,-0.9000,-3.1250,-0.0625,19.1250,0.6912,-0.2640,0.6061,0.2918,
2025-03-13 20:40:38.773,10.0400,0.7700,-0.9100,-2.3750,1.3750,20.8125,0.6906,-0.2653,0.6067,0.2909,
2025-03-13 20:40:38.779,9.6900,0.8300,-0.9200,-2.1875,1.6875,20.6875,0.6900,-0.2666,0.6072,0.2900,
2025-03-13 20:40:38.794,9.9800,0.7200,-0.8800,-2.1250,0.2500,19.1875,0.6895,-0.2678,0.6077,0.2892,
2025-03-13 20:40:38.803,10.3900,0.5600,-0.9300,-3.0625,-1.8750,19.8750,0.6895,-0.2678,0.6077,0.2892,
2025-03-13 20:40:38.810,10.5900,0.5000,-0.9400,-3.5625,-1.3125,23.1875,0.6891,-0.2692,0.6080,0.2883,
2025-03-13 20:40:38.820,10.5900,0.4100,-0.7900,-4.3125,0.2500,26.9375,0.6885,-0.2708,0.6083,0.2873,
2025-03-13 20:40:38.832,10.5100,0.3500,-0.8300,-5.3750,2.0625,31.0000,0.6878,-0.2725,0.6089,0.2861,
2025-03-13 20:40:38.843,10.7200,0.0600,-0.8600,-4.7500,5.1250,34.2500,0.6868,-0.2746,0.6097,0.2849,
2025-03-13 20:40:38.853,10.7400,-0.0600,-0.8200,-4.8125,7.0625,40.7500,0.6857,-0.2767,0.6107,0.2835,
2025-03-13 20:40:38.863,10.6600,-0.0800,-0.7500,-3.3125,9.3125,48.3750,0.6842,-0.2791,0.6120,0.2819,
2025-03-13 20:40:38.869,10.4500,0.0100,-0.7200,-2.3750,9.7500,55.8125,0.6825,-0.2819,0.6135,0.2798,
2025-03-13 20:40:38.882,10.1300,0.0000,-0.6900,-1.3750,10.8125,61.1875,0.6806,-0.2850,0.6154,0.2772,
2025-03-13 20:40:38.891,10.4500,-0.4300,-0.5500,-1.3125,10.6875,64.5000,0.6785,-0.2883,0.6174,0.2744,
2025-03-13 20:40:38.903,10.6100,-0.5800,-0.6400,-4.1250,8.9375,71.4375,0.6764,-0.2918,0.6194,0.2714,
2025-03-13 20:40:38.910,10.6500,-0.7400,-0.8000,-6.2500,6.0625,79.6250,0.6740,-0.2959,0.6215,0.2681,
2025-03-13 20:40:38.923,10.8200,-0.9100,-1.0000,-6.0000,3.6250,87.0625,0.6716,-0.3007,0.6235,0.2644,
2025-03-13 20:40:38.930,10.7200,-0.9300,-0.8500,-2.8125,5.1875,94.0000,0.6690,-0.3058,0.6254,0.2603,
2025-03-13 20:40:38.940,10.7900,-1.2600,-0.8700,0.2500,6.3750,102.1875,0.6662,-0.3112,0.6277,0.2556,
2025-03-13 20:40:38.953,10.7500,-1.3300,-1.2100,-0.0625,2.3125,113.3125,0.6632,-0.3168,0.6303,0.2503,
2025-03-13 20:40:38.960,10.6100,-1.3600,-1.2800,3.1250,1.0000,121.4375,0.6600,-0.3231,0.6328,0.2443,
2025-03-13 20:40:38.969,10.8300,-1.4200,-1.1400,7.1250,0.2500,127.0625,0.6566,-0.3296,0.6354,0.2377,
2025-03-13 20:40:38.983,10.5500,-1.2400,-0.8200,11.6875,0.8125,132.0625,0.6532,-0.3362,0.6381,0.2305,
2025-03-13 20:40:38.992,10.2000,-1.7400,-0.7100,16.8125,2.8750,131.3750,0.6496,-0.3428,0.6410,0.2227,
2025-03-13 20:40:39.000,10.2500,-2.0400,-0.6400,18.9375,5.7500,131.0000,0.6459,-0.3491,0.6441,0.2147,
2025-03-13 20:40:39.043,10.2500,-2.0400,-0.6400,17.0625,8.3750,136.1875,0.6420,-0.3550,0.6473,0.2067,
2025-03-13 20:40:39.043,10.9200,-2.7000,-0.6100,17.0625,12.3125,144.3750,0.6378,-0.3613,0.6506,0.1986,
2025-03-13 20:40:39.043,10.4600,-3.3100,-1.0400,14.3125,16.0625,157.4375,0.6329,-0.3680,0.6542,0.1901,
2025-03-13 20:40:39.043,10.1200,-2.9400,-1.3500,12.6250,20.6875,170.8125,0.6273,-0.3753,0.6579,0.1811,
2025-03-13 20:40:39.053,9.3200,-1.9800,-1.3600,11.5625,21.1250,184.4375,0.6208,-0.3833,0.6620,0.1716,
2025-03-13 20:40:39.065,8.4300,-2.7000,-1.2400,20.0000,14.4375,183.3125,0.6138,-0.3920,0.6660,0.1613,
2025-03-13 20:40:39.073,8.0200,-2.7800,-0.7200,20.5625,2.3750,179.3125,0.6071,-0.4001,0.6699,0.1505,
2025-03-13 20:40:39.083,7.9400,-3.1000,-0.7100,21.6250,-2.1875,175.3125,0.6011,-0.4080,0.6729,0.1393,
2025-03-13 20:40:39.093,8.3500,-3.3800,-0.3500,24.3750,-8.1875,168.8125,0.5954,-0.4157,0.6755,0.1281,
2025-03-13 20:40:39.103,8.3500,-3.3800,-0.3500,24.6875,-10.2500,166.1250,0.5901,-0.4228,0.6777,0.1170,
2025-03-13 20:40:39.110,9.5600,-4.0800,-0.4200,24.0000,-12.3125,170.1250,0.5849,-0.4297,0.6797,0.1058,
2025-03-13 20:40:39.123,9.2100,-4.4700,-0.5000,25.1250,-9.0625,176.3750,0.5796,-0.4368,0.6814,0.0944,
2025-03-13 20:40:39.163,8.8200,-4.5900,-0.5600,25.3750,-6.3750,179.4375,0.5738,-0.4440,0.6832,0.0827,
2025-03-13 20:40:39.163,7.8500,-4.7800,-0.6500,23.8125,-7.3750,182.5625,0.5676,-0.4513,0.6850,0.0709,
2025-03-13 20:40:39.163,7.8500,-4.7800,-0.6500,24.7500,-7.7500,182.1250,0.5611,-0.4586,0.6866,0.0589,
2025-03-13 20:40:39.163,7.1900,-4.6900,-0.4300,26.8125,-9.9375,172.4375,0.5545,-0.4658,0.6880,0.0469,
2025-03-13 20:40:39.172,7.4800,-5.3200,-0.2900,25.8750,-15.3125,162.8750,0.5484,-0.4723,0.6892,0.0352,
2025-03-13 20:40:39.183,7.5800,-5.4100,-0.3000,20.6875,-22.3750,162.0000,0.5428,-0.4783,0.6899,0.0239,
2025-03-13 20:40:39.193,8.1300,-5.4900,0.0700,20.6250,-24.3125,159.6250,0.5375,-0.4846,0.6900,0.0126,
2025-03-13 20:40:39.249,8.1300,-5.4900,0.0700,20.6250,-24.3125,159.6250,0.5324,-0.4906,0.6898,0.0013,
2025-03-13 20:40:39.249,8.4300,-5.8100,-0.0300,21.7500,-27.0625,156.8125,0.5274,-0.4963,0.6895,-0.0099,
2025-03-13 20:40:39.249,7.5500,-6.4100,0.0900,25.8125,-20.7500,155.3125,0.5223,-0.5020,0.6890,-0.0211,
2025-03-13 20:40:39.249,7.3200,-6.6800,-0.1600,24.4375,-18.5625,150.8125,0.5168,-0.5073,0.6888,-0.0322,
2025-03-13 20:40:39.249,6.2600,-6.9800,-0.2500,26.0000,-10.8125,147.5000,0.5114,-0.5123,0.6886,-0.0428,
2025-03-13 20:40:39.249,6.2600,-6.9800,-0.2500,28.2500,-6.8750,139.0625,0.5055,-0.5171,0.6887,-0.0530,
2025-03-13 20:40:39.290,6.6000,-6.9000,0.2200,26.3125,-5.3750,134.2500,0.4996,-0.5213,0.6890,-0.0626,
2025-03-13 20:40:39.290,5.7600,-7.1200,0.4000,21.3750,-2.2500,131.1250,0.4939,-0.5254,0.6891,-0.0718,
2025-03-13 20:40:39.290,4.5300,-6.9500,0.5200,21.4375,1.5000,124.0625,0.4880,-0.5295,0.6892,-0.0804,
2025-03-13 20:40:39.292,4.3900,-7.2400,0.4600,20.6875,3.9375,114.0000,0.4822,-0.5334,0.6893,-0.0884,
2025-03-13 20:40:39.299,4.3900,-7.2400,0.4600,20.6875,3.9375,114.0000,0.4767,-0.5369,0.6895,-0.0957,
2025-03-13 20:40:39.343,5.0900,-7.1000,0.5100,18.1250,4.3125,104.6250,0.4715,-0.5400,0.6896,-0.1024,
2025-03-13 20:40:39.345,4.7100,-7.3600,0.2500,10.8750,7.1250,102.6250,0.4664,-0.5431,0.6897,-0.1085,
2025-03-13 20:40:39.345,4.0900,-7.3500,0.4200,10.3750,9.6875,102.8750,0.4612,-0.5466,0.6895,-0.1146,
2025-03-13 20:40:39.345,3.2900,-7.5200,0.3000,10.3750,12.3125,98.3750,0.4557,-0.5501,0.6893,-0.1205,
2025-03-13 20:40:39.350,3.2900,-7.5200,0.3000,10.3750,12.3125,98.3750,0.4504,-0.5534,0.6892,-0.1260,
2025-03-13 20:40:39.365,3.2800,-7.7400,-0.1000,9.5000,13.4375,89.6250,0.4453,-0.5564,0.6892,-0.1310,
2025-03-13 20:40:39.373,3.4000,-7.9700,-0.3200,5.6250,5.6875,77.9375,0.4407,-0.5591,0.6890,-0.1356,
2025-03-13 20:40:39.383,2.9800,-7.8900,-0.2700,6.3750,4.1875,72.9375,0.4366,-0.5618,0.6886,-0.1400,
2025-03-13 20:40:39.393,2.8000,-7.9600,-0.2600,5.9375,1.8750,66.6875,0.4329,-0.5641,0.6882,-0.1443,
2025-03-13 20:40:39.406,3.7500,-7.9500,-0.0500,5.9375,1.8750,66.6875,0.4295,-0.5662,0.6877,-0.1483,
2025-03-13 20:40:39.422,4.0200,-8.1000,-0.2600,4.1250,2.1250,65.3125,0.4262,-0.5683,0.6872,-0.1521,
2025-03-13 20:40:39.422,3.9200,-8.0800,-0.3300,6.8125,4.2500,66.9375,0.4228,-0.5705,0.6866,-0.1560,
2025-03-13 20:40:39.435,3.1600,-8.2500,-0.0500,10.1250,8.1250,64.3750,0.4192,-0.5726,0.6862,-0.1599,
2025-03-13 20:40:39.443,2.5500,-8.2300,-0.1200,12.0625,11.6875,56.5625,0.4155,-0.5744,0.6861,-0.1636,
2025-03-13 20:40:39.452,2.7000,-8.3000,-0.0200,12.0625,11.6875,56.5625,0.4119,-0.5758,0.6863,-0.1668,
2025-03-13 20:40:39.463,3.0600,-8.1900,0.1600,13.0000,10.2500,51.1250,0.4086,-0.5769,0.6866,-0.1697,
2025-03-13 20:40:39.473,2.9000,-8.3400,0.1600,12.2500,4.2500,52.1250,0.4055,-0.5781,0.6867,-0.1727,
2025-03-13 20:40:39.483,2.8300,-8.2100,0.4300,10.5625,1.7500,51.5000,0.4025,-0.5792,0.6867,-0.1760,
2025-03-13 20:40:39.493,2.7900,-8.2400,0.5200,6.6875,-2.4375,50.1250,0.3997,-0.5804,0.6865,-0.1792,
2025-03-13 20:40:39.503,2.2400,-8.2500,0.4900,6.6875,-2.4375,50.1250,0.3973,-0.5816,0.6860,-0.1825,
2025-03-13 20:40:39.510,2.0300,-8.2400,0.4700,3.7500,-6.1250,48.0625,0.3953,-0.5829,0.6852,-0.1857,
2025-03-13 20:40:39.523,1.9800,-8.3400,0.3500,1.5000,-9.6250,38.5000,0.3935,-0.5841,0.6844,-0.1887,
2025-03-13 20:40:39.533,2.4400,-8.2700,0.4500,0.5625,-11.0000,35.9375,0.3921,-0.5851,0.6835,-0.1914,
2025-03-13 20:40:39.543,2.6600,-8.5400,0.0900,0.4375,-11.1875,37.3750,0.3910,-0.5862,0.6826,-0.1940,
2025-03-13 20:40:39.560,2.4200,-8.5300,0.0200,0.4375,-11.1875,37.3750,0.3898,-0.5872,0.6816,-0.1967,
2025-03-13 20:40:39.563,2.0500,-8.5300,0.0900,0.8750,-11.7500,38.0625,0.3886,-0.5882,0.6806,-0.1995,
2025-03-13 20:40:39.573,1.8200,-8.4800,0.1500,1.0625,-12.3125,32.5000,0.3874,-0.5890,0.6797,-0.2022,
2025-03-13 20:40:39.583,1.8600,-8.4200,0.1800,-1.1250,-16.1875,30.6875,0.3865,-0.5898,0.6788,-0.2047,
2025-03-13 20:40:39.593,2.0100,-8.4700,0.3200,-2.6875,-18.5625,29.1875,0.3860,-0.5906,0.6777,-0.2073,
2025-03-13 20:40:39.599,2.3400,-8.5300,0.3900,-2.6875,-18.5625,29.1875,0.3856,-0.5914,0.6764,-0.2098,
2025-03-13 20:40:39.643,2.0000,-8.6400,0.3100,-3.4375,-19.3125,28.8125,0.3853,-0.5922,0.6751,-0.2123,
2025-03-13 20:40:39.650,2.0900,-8.6300,0.4700,-2.9375,-18.8750,25.5000,0.3850,-0.5928,0.6740,-0.2149,
2025-03-13 20:40:39.650,2.1800,-8.6400,0.4500,-2.4375,-16.2500,23.4375,0.3846,-0.5933,0.6730,-0.2174,
2025-03-13 20:40:39.650,2.0400,-8.7800,0.2800,-2.6250,-16.7500,23.6250,0.3842,-0.5938,0.6720,-0.2196,
2025-03-13 20:40:39.650,1.9000,-8.9000,0.3400,-2.6250,-16.7500,23.6250,0.3838,-0.5943,0.6710,-0.2219,
2025-03-13 20:40:39.660,1.8700,-8.9600,0.3000,-3.0625,-18.0625,24.0625,0.3813,-0.5964,0.6707,-0.2214,
2025-03-13 20:40:39.673,1.7200,-9.1500,-0.0800,-0.0625,-13.8125,20.1250,0.3812,-0.5969,0.6697,-0.2234,
2025-03-13 20:40:39.685,1.7600,-8.8700,0.0700,3.3750,-11.9375,15.8125,0.3810,-0.5973,0.6688,-0.2252,
2025-03-13 20:40:39.698,2.0900,-8.7800,0.2300,3.7500,-11.4375,15.0000,0.3808,-0.5974,0.6683,-0.2268,
2025-03-13 20:40:39.705,2.2200,-8.6000,0.3700,3.7500,-11.4375,15.0000,0.3806,-0.5975,0.6678,-0.2284,
2025-03-13 20:40:39.713,2.0700,-8.6200,0.5300,3.6875,-11.7500,15.8750,0.3782,-0.5989,0.6682,-0.2276,
2025-03-13 20:40:39.723,1.4500,-8.6600,0.5200,1.0625,-13.0000,12.9375,0.3781,-0.5990,0.6676,-0.2292,
2025-03-13 20:40:39.733,1.6700,-8.7200,0.4100,1.6250,-11.6250,8.4375,0.3782,-0.5991,0.6670,-0.2306,
2025-03-13 20:40:39.743,1.6700,-8.8000,0.2600,2.7500,-9.6250,6.4375,0.3784,-0.5991,0.6665,-0.2318,
2025-03-13 20:40:39.751,1.9400,-8.6800,0.4500,2.7500,-9.6250,6.4375,0.3785,-0.5989,0.6662,-0.2327,
2025-03-13 20:40:39.763,2.1800,-8.7700,0.3700,2.8750,-8.6250,5.6875,0.3777,-0.5994,0.6663,-0.2325,
2025-03-13 20:40:39.775,2.0800,-8.7700,0.3300,2.5000,-4.7500,10.6250,0.3776,-0.5994,0.6661,-0.2334,
2025-03-13 20:40:39.783,1.8100,-8.8000,0.2400,2.6875,-3.7500,11.3750,0.3773,-0.5995,0.6659,-0.2343,
2025-03-13 20:40:39.803,1.6700,-8.7600,0.3900,2.6875,-3.7500,11.3750,0.3768,-0.5997,0.6656,-0.2352,
2025-03-13 20:40:39.803,1.7300,-8.6900,0.5400,3.4375,-2.5000,10.5625,0.3762,-0.5995,0.6658,-0.2363,
2025-03-13 20:40:39.810,1.8700,-8.6300,0.6700,4.5625,-0.8125,8.5000,0.3735,-0.6003,0.6670,-0.2351,
2025-03-13 20:40:39.823,1.5000,-8.3100,1.1600,4.0625,-0.0625,8.2500,0.3730,-0.6004,0.6670,-0.2357,
2025-03-13 20:40:39.833,1.2500,-8.4000,0.9800,3.8125,0.5000,7.9375,0.3725,-0.6004,0.6670,-0.2363,
2025-03-13 20:40:39.843,1.1900,-8.3700,0.8600,1.0000,-1.9375,5.0000,0.3723,-0.6005,0.6669,-0.2366,
2025-03-13 20:40:39.855,1.2700,-8.5300,0.5200,-1.0000,-1.1250,0.3750,0.3724,-0.6005,0.6669,-0.2367,
2025-03-13 20:40:39.863,1.9000,-8.6400,0.2700,-2.3125,-0.9375,-2.0625,0.3718,-0.6011,0.6671,-0.2356,
2025-03-13 20:40:39.875,1.6900,-8.7500,0.0600,-2.3125,-1.3750,-1.5625,0.3720,-0.6011,0.6669,-0.2355,
2025-03-13 20:40:39.884,1.5800,-8.7200,0.0600,-2.2500,-1.1250,0.5000,0.3721,-0.6012,0.6668,-0.2355,
2025-03-13 20:40:39.893,1.2400,-8.6400,0.1200,-0.8750,0.8125,-0.0625,0.3721,-0.6013,0.6668,-0.2354,
2025-03-13 20:40:39.944,1.2300,-8.3800,0.3400,1.3750,5.1875,-6.5625,0.3715,-0.6014,0.6675,-0.2340,
2025-03-13 20:40:39.944,1.5400,-8.2000,0.5100,0.5625,5.6250,-11.4375,0.3717,-0.6012,0.6679,-0.2330,
2025-03-13 20:40:39.944,1.7900,-8.4000,0.3700,-1.0000,5.2500,-14.6875,0.3722,-0.6009,0.6683,-0.2319,
2025-03-13 20:40:39.944,1.5200,-8.5100,0.2700,-3.0000,3.7500,-14.8750,0.3728,-0.6007,0.6686,-0.2307,
2025-03-13 20:40:39.960,1.2800,-8.7400,0.2000,-4.0625,2.0000,-19.1875,0.3741,-0.6004,0.6691,-0.2278,
2025-03-13 20:40:39.977,0.9600,-8.5900,0.3500,-4.2500,3.3125,-23.6250,0.3751,-0.6000,0.6694,-0.2261,
2025-03-13 20:40:39.990,0.2400,-8.4800,0.4300,-3.4375,7.1875,-29.4375,0.3763,-0.5994,0.6701,-0.2240,
2025-03-13 20:40:40.017,-1.2800,-7.5800,1.1400,-3.0000,16.0625,-60.4375,0.3799,-0.5969,0.6726,-0.2167,
2025-03-13 20:40:40.024,-0.1900,-7.2900,1.2000,-6.8750,21.3750,-84.3750,0.3828,-0.5952,0.6746,-0.2102,
2025-03-13 20:40:40.024,2.5100,-6.9300,1.3500,-13.8750,24.6250,-108.5625,0.3871,-0.5929,0.6766,-0.2023,
2025-03-13 20:40:40.033,4.8300,-6.9200,1.0000,-19.5000,27.8125,-122.5000,0.3919,-0.5905,0.6785,-0.1933,
2025-03-13 20:40:40.055,3.6900,-7.5600,0.2600,-12.0000,24.5000,-107.6875,0.4006,-0.5855,0.6823,-0.1765,
2025-03-13 20:40:40.063,2.5600,-7.4300,0.3100,-9.4375,20.5625,-97.9375,0.4041,-0.5832,0.6841,-0.1692,
2025-03-13 20:40:40.073,0.5400,-6.8900,0.9100,-8.6250,20.6250,-99.8750,0.4079,-0.5805,0.6858,-0.1621,
2025-03-13 20:40:40.084,0.1300,-6.6700,1.0900,-9.5000,24.1250,-115.8125,0.4124,-0.5774,0.6877,-0.1539,
2025-03-13 20:40:40.094,0.1000,-6.3500,1.0800,-15.7500,23.1875,-138.2500,0.4179,-0.5738,0.6895,-0.1441,
2025-03-13 20:40:40.100,0.6800,-6.4100,0.7600,-27.3750,17.0000,-161.2500,0.4250,-0.5698,0.6907,-0.1329,
2025-03-13 20:40:40.111,3.7400,-6.9500,-0.4200,-38.9375,9.3750,-182.8125,0.4335,-0.5657,0.6911,-0.1202,
2025-03-13 20:40:40.123,6.0000,-7.0800,-1.0800,-50.1250,2.0625,-196.2500,0.4432,-0.5613,0.6907,-0.1069,
2025-03-13 20:40:40.140,8.0200,-6.7600,-1.6700,-61.5625,-4.1250,-194.3750,0.4532,-0.5575,0.6892,-0.0934,
2025-03-13 20:40:40.143,8.9000,-7.0500,-1.3900,-54.2500,-3.0000,-180.2500,0.4622,-0.5537,0.6879,-0.0809,
2025-03-13 20:40:40.153,7.9500,-6.6200,-0.6700,-35.3125,-2.3750,-166.6250,0.4703,-0.5492,0.6872,-0.0700,
2025-03-13 20:40:40.163,6.3000,-6.2600,-0.2900,-11.6250,7.9375,-157.9375,0.4772,-0.5436,0.6879,-0.0599,
2025-03-13 20:40:40.173,4.5900,-6.3700,-0.6100,-11.6250,7.9375,-157.9375,0.4840,-0.5379,0.6884,-0.0499,
2025-03-13 20:40:40.183,2.4600,-6.1300,-1.2000,-10.7500,5.8125,-171.9375,0.4915,-0.5315,0.6888,-0.0392,
2025-03-13 20:40:40.193,2.8800,-5.9300,-1.4300,-19.5000,-5.8750,-221.0000,0.5017,-0.5233,0.6883,-0.0258,
2025-03-13 20:40:40.202,4.5900,-5.8200,-1.8400,-30.8750,-18.0625,-231.6875,0.5129,-0.5152,0.6865,-0.0118,
2025-03-13 20:40:40.244,6.7300,-5.7100,-2.1100,-36.8125,-24.7500,-227.6250,0.5242,-0.5073,0.6840,0.0020,
2025-03-13 20:40:40.245,12.5200,-5.0100,-1.4600,-35.5000,-27.1250,-204.0000,0.5345,-0.5003,0.6811,0.0141,
2025-03-13 20:40:40.245,13.4500,-5.1600,-1.4500,-22.7500,-26.5000,-173.6250,0.5432,-0.4937,0.6787,0.0240,
2025-03-13 20:40:40.245,12.8200,-5.0600,-1.0000,-2.0000,-15.7500,-152.1250,0.5504,-0.4868,0.6775,0.0322,
2025-03-13 20:40:40.253,9.0200,-4.0100,0.2200,13.8750,-3.3125,-145.1250,0.5566,-0.4793,0.6774,0.0397,
2025-03-13 20:40:40.260,6.6000,-4.1000,0.0200,17.5625,-0.7500,-158.8125,0.5630,-0.4708,0.6775,0.0479,
2025-03-13 20:40:40.273,4.6300,-4.1000,-0.4200,12.4375,-1.9375,-184.4375,0.5705,-0.4612,0.6771,0.0578,
2025-03-13 20:40:40.283,4.0400,-4.1600,-0.7500,-1.0000,-9.9375,-210.6875,0.5792,-0.4511,0.6754,0.0695,
2025-03-13 20:40:40.293,5.4500,-3.0800,-1.1900,-18.6875,-23.5625,-228.3750,0.5890,-0.4410,0.6721,0.0825,
2025-03-13 20:40:40.303,7.6700,-3.1500,-1.0000,-31.1250,-31.8750,-239.5625,0.5994,-0.4310,0.6675,0.0965,
2025-03-13 20:40:40.310,10.2300,-3.1600,-1.1000,-45.2500,-38.2500,-227.7500,0.6094,-0.4223,0.6620,0.1102,
2025-03-13 20:40:40.325,13.3500,-2.1400,-0.6700,-40.0000,-35.4375,-207.2500,0.6183,-0.4141,0.6567,0.1226,
2025-03-13 20:40:40.335,14.2600,-2.4700,-0.4000,-29.0625,-32.6250,-195.6875,0.6265,-0.4058,0.6519,0.1338,
2025-03-13 20:40:40.342,14.1500,-2.6200,-0.6900,-19.5625,-27.7500,-176.0625,0.6338,-0.3978,0.6476,0.1436,
2025-03-13 20:40:40.353,13.1200,-2.3400,-0.9400,-10.2500,-17.5625,-162.3125,0.6400,-0.3899,0.6443,0.1523,
2025-03-13 20:40:40.363,9.9500,-1.7400,-1.1900,0.3750,-10.3125,-163.5000,0.6459,-0.3811,0.6416,0.1609,
2025-03-13 20:40:40.373,8.1700,-1.5700,-1.1000,8.3125,-4.7500,-175.8125,0.6519,-0.3711,0.6392,0.1698,
2025-03-13 20:40:40.624,7.3900,-1.5500,-1.3600,2.8125,-3.3750,-185.6250,0.6578,-0.3607,0.6363,0.1796,
2025-03-13 20:40:40.633,7.0600,-0.4100,-1.4500,-12.1250,-9.6875,-194.4375,0.6640,-0.3507,0.6324,0.1904,
2025-03-13 20:40:40.633,8.0200,-0.8100,-1.5000,-25.1875,-24.0000,-207.3750,0.6710,-0.3407,0.6268,0.2021,
2025-03-13 20:40:40.633,10.8500,-1.5000,-1.3100,-41.0625,-43.3750,-196.8125,0.6781,-0.3325,0.6197,0.2136,
2025-03-13 20:40:40.633,13.8100,-1.7800,-1.7300,-55.6875,-57.1250,-159.2500,0.6845,-0.3272,0.6120,0.2235,
2025-03-13 20:40:40.633,17.1500,-1.7500,-2.0600,-45.7500,-55.1250,-121.6250,0.6898,-0.3236,0.6052,0.2308,
2025-03-13 20:40:40.633,16.4300,-1.7700,-1.5800,-18.7500,-40.1875,-87.6250,0.6938,-0.3202,0.6006,0.2353,
2025-03-13 20:40:40.633,14.7000,-1.5400,-1.5400,0.2500,-24.4375,-59.7500,0.6967,-0.3172,0.5980,0.2377,
2025-03-13 20:40:40.633,10.1400,-0.3100,-1.6000,11.5625,-14.2500,-42.3750,0.6988,-0.3144,0.5965,0.2388,
2025-03-13 20:40:40.633,8.5900,-0.1200,-1.8200,16.3125,-15.3750,-41.1875,0.7010,-0.3115,0.5952,0.2395,
2025-03-13 20:40:40.633,7.7100,-0.0400,-1.9000,14.6875,-17.7500,-46.0625,0.7034,-0.3083,0.5936,0.2405,
2025-03-13 20:40:40.633,7.5700,-0.2500,-1.9200,7.0000,-21.8125,-50.8750,0.7059,-0.3054,0.5915,0.2420,
2025-03-13 20:40:40.633,10.0000,-0.5300,-1.9500,-5.4375,-31.2500,-51.2500,0.7087,-0.3032,0.5884,0.2441,
2025-03-13 20:40:40.633,11.5300,-0.9100,-2.0600,-11.1875,-37.0625,-43.6250,0.7114,-0.3019,0.5850,0.2460,
2025-03-13 20:40:40.633,12.5600,-1.2000,-2.2100,-10.9375,-34.8750,-27.4375,0.7136,-0.3016,0.5820,0.2471,
2025-03-13 20:40:40.633,12.7100,-0.9700,-2.1300,-3.5625,-23.6250,-7.3750,0.7148,-0.3018,0.5804,0.2471,
2025-03-13 20:40:40.633,10.4300,-0.2700,-1.9800,4.4375,-13.2500,5.3125,0.7154,-0.3022,0.5798,0.2462,
2025-03-13 20:40:40.633,9.0300,0.1800,-1.9000,6.6875,-8.3750,10.8125,0.7157,-0.3027,0.5797,0.2451,
2025-03-13 20:40:40.633,8.0100,0.5600,-1.9700,5.5625,-10.3750,7.5625,0.7162,-0.3031,0.5793,0.2441,
2025-03-13 20:40:40.633,7.7000,0.7000,-2.1400,3.3125,-16.5625,-2.4375,0.7171,-0.3031,0.5784,0.2436,
2025-03-13 20:40:40.633,8.2400,0.4700,-2.2700,2.6250,-20.0000,-15.3750,0.7186,-0.3024,0.5769,0.2437,
2025-03-13 20:40:40.633,9.2000,0.2600,-2.2300,1.0625,-20.6250,-23.1250,0.7202,-0.3014,0.5752,0.2442,
2025-03-13 20:40:40.633,10.1800,0.2000,-2.1000,-1.2500,-19.6250,-22.3125,0.7217,-0.3005,0.5735,0.2449,
2025-03-13 20:40:40.633,11.5500,0.0800,-2.0100,-2.5625,-16.1875,-16.3750,0.7228,-0.3000,0.5722,0.2454,
2025-03-13 20:40:40.633,11.5600,0.1400,-2.0000,-3.1250,-11.8125,-5.9375,0.7234,-0.3000,0.5712,0.2455,
2025-03-13 20:40:40.633,11.1700,0.5100,-2.1500,-1.8750,-5.5625,3.8750,0.7236,-0.3005,0.5709,0.2454,
2025-03-13 20:40:40.640,9.6100,1.0400,-2.0700,1.3750,-1.6875,8.6875,0.7235,-0.3010,0.5710,0.2448,
2025-03-13 20:40:40.653,9.0800,1.0900,-2.1200,1.3750,-1.5625,7.0625,0.7234,-0.3014,0.5711,0.2443,
2025-03-13 20:40:40.663,8.8300,0.9900,-2.3100,0.3750,-3.3750,1.1250,0.7236,-0.3015,0.5709,0.2442,
2025-03-13 20:40:40.674,8.9400,0.9600,-2.2600,0.3750,-4.4375,-7.0625,0.7239,-0.3011,0.5705,0.2444,
2025-03-13 20:40:40.683,9.9200,0.5700,-2.2500,-1.7500,-8.6250,-11.6875,0.7246,-0.3007,0.5697,0.2449,
2025-03-13 20:40:40.693,10.6200,0.2700,-2.2700,-2.6250,-13.0000,-10.8125,0.7255,-0.3004,0.5686,0.2452,
2025-03-13 20:40:40.700,11.1500,0.1600,-2.2400,-1.2500,-13.6250,-5.5000,0.7262,-0.3005,0.5676,0.2452,
2025-03-13 20:40:40.710,11.1400,0.5200,-2.0200,0.5625,-9.3125,2.8750,0.7267,-0.3006,0.5672,0.2447,
2025-03-13 20:40:40.723,10.5800,0.7800,-2.1000,2.1875,-1.9375,9.1875,0.7266,-0.3011,0.5673,0.2440,
2025-03-13 20:40:40.729,9.6900,0.9300,-2.1600,3.5000,3.8125,9.4375,0.7263,-0.3015,0.5678,0.2435,
2025-03-13 20:40:40.740,9.1800,0.8700,-2.2500,4.3750,5.2500,4.1875,0.7260,-0.3014,0.5683,0.2431,
2025-03-13 20:40:40.753,9.3000,0.5800,-2.3800,3.0625,1.8750,-0.3750,0.7260,-0.3012,0.5685,0.2430,
2025-03-13 20:40:40.763,9.4900,0.3600,-2.4400,1.5000,-0.7500,-2.5000,0.7261,-0.3008,0.5685,0.2429,
2025-03-13 20:40:40.773,9.7800,0.3600,-2.3700,0.3750,-2.8125,-3.0625,0.7264,-0.3007,0.5683,0.2430,
2025-03-13 20:40:40.783,9.9300,0.5100,-2.1300,0.5000,-2.3125,-2.6250,0.7266,-0.3006,0.5681,0.2430,
2025-03-13 20:40:40.790,10.1500,0.4500,-2.1600,-0.4375,-1.7500,-1.2500,0.7267,-0.3005,0.5680,0.2431,
2025-03-13 20:40:40.803,10.2600,0.4300,-2.2800,-0.8125,-1.9375,1.1875,0.7267,-0.3007,0.5678,0.2430,
2025-03-13 20:40:40.842,10.1600,0.3800,-2.3400,-0.3750,-1.9375,3.4375,0.7267,-0.3007,0.5678,0.2430,
2025-03-13 20:40:40.843,9.7500,0.6400,-2.3900,-0.7500,-3.5000,5.8125,0.7267,-0.3010,0.5678,0.2428,
2025-03-13 20:40:40.843,9.5000,0.8100,-2.2700,0.5000,-3.6250,5.0625,0.7267,-0.3018,0.5676,0.2421,
2025-03-13 20:40:40.843,9.4500,0.7500,-2.1300,0.8750,-1.9375,1.5000,0.7268,-0.3019,0.5675,0.2419,
2025-03-13 20:40:40.849,9.4400,0.7900,-2.1100,-0.3750,0.1875,-1.4375,0.7269,-0.3018,0.5674,0.2420,
2025-03-13 20:40:40.863,9.4700,0.4600,-2.3800,-1.5625,0.9375,-4.2500,0.7270,-0.3013,0.5675,0.2421,
2025-03-13 20:40:40.873,9.7300,0.4600,-2.3300,-1.9375,0.0625,-5.7500,0.7272,-0.3010,0.5673,0.2425,
2025-03-13 20:40:40.880,9.9400,0.3800,-2.4400,-2.8750,-1.9375,-4.0000,0.7273,-0.3009,0.5671,0.2428,
2025-03-13 20:40:40.892,10.1200,0.5000,-2.2900,-3.1250,-3.1875,-1.3125,0.7274,-0.3011,0.5668,0.2430,
2025-03-13 20:40:40.902,10.0800,0.5300,-2.2400,-2.6250,-1.8125,1.0625,0.7274,-0.3013,0.5666,0.2430,
2025-03-13 20:40:40.913,9.8900,0.5200,-2.3800,-3.4375,-0.6250,3.5625,0.7274,-0.3013,0.5666,0.2430,
2025-03-13 20:40:40.920,9.5600,0.6100,-2.3900,-2.8750,0.8125,4.0625,0.7274,-0.3015,0.5666,0.2429,
2025-03-13 20:40:40.933,9.1400,0.6400,-2.3700,-1.8750,0.8125,1.0000,0.7271,-0.3020,0.5667,0.2430,
2025-03-13 20:40:40.944,9.3800,0.6200,-2.2800,-2.3750,-0.9375,-2.3750,0.7271,-0.3020,0.5665,0.2432,
2025-03-13 20:40:40.953,9.6000,0.6800,-2.2400,-2.5000,-1.6875,-4.5625,0.7271,-0.3020,0.5665,0.2432,
2025-03-13 20:40:40.963,10.1800,0.5100,-2.2200,-2.4375,-1.7500,-6.5000,0.7273,-0.3019,0.5662,0.2436,
2025-03-13 20:40:40.973,10.2600,0.5100,-2.2600,-2.3125,-0.1875,-5.0625,0.7275,-0.3016,0.5659,0.2440,
2025-03-13 20:40:40.980,10.3000,0.4800,-2.3300,-1.4375,1.5625,-3.0625,0.7275,-0.3014,0.5658,0.2444,
2025-03-13 20:40:40.993,10.3000,0.5100,-2.2600,-1.0000,2.1875,-0.1250,0.7275,-0.3013,0.5658,0.2446,
2025-03-13 20:40:41.003,9.9400,0.5100,-2.4900,-1.0625,2.0000,3.3125,0.7274,-0.3013,0.5659,0.2448,
2025-03-13 20:40:41.013,9.8000,0.6800,-2.3400,0.4375,2.3125,4.8750,0.7272,-0.3015,0.5661,0.2448,
2025-03-13 20:40:41.023,9.6100,0.6300,-2.2400,2.1875,2.8750,3.9375,0.7270,-0.3017,0.5663,0.2445,
2025-03-13 20:40:41.029,9.5200,0.5900,-2.2800,1.8125,2.3125,2.1250,0.7268,-0.3018,0.5667,0.2443,
2025-03-13 20:40:41.040,9.5400,0.5400,-2.2800,0.8750,1.3750,0.0625,0.7266,-0.3018,0.5668,0.2441,
2025-03-13 20:40:41.060,9.8300,0.4200,-2.3400,0.0000,-0.1875,-2.1875,0.7266,-0.3017,0.5670,0.2441,
2025-03-13 20:40:41.063,10.1600,0.3500,-2.3600,-1.1875,-0.8750,-0.8125,0.7266,-0.3016,0.5669,0.2442,
2025-03-13 20:40:41.072,10.2800,0.4100,-2.3700,0.0625,1.2500,1.4375,0.7267,-0.3016,0.5668,0.2443,
2025-03-13 20:40:41.083,10.1300,0.5400,-2.2800,0.9375,3.0625,4.2500,0.7266,-0.3016,0.5669,0.2443,
2025-03-13 20:40:41.090,9.9300,0.5200,-2.2800,1.1250,4.1250,5.8750,0.7264,-0.3018,0.5672,0.2441,
2025-03-13 20:40:41.103,9.7100,0.5200,-2.4000,0.8125,4.4375,6.6250,0.7260,-0.3021,0.5676,0.2438,
2025-03-13 20:40:41.123,9.7100,0.5200,-2.4000,1.3750,3.7500,6.0625,0.7257,-0.3023,0.5681,0.2436,
2025-03-13 20:40:41.154,9.6000,0.4600,-2.5700,2.0625,2.0625,4.5625,0.7254,-0.3024,0.5685,0.2431,
2025-03-13 20:40:41.154,9.6600,0.5300,-2.4800,2.8125,0.7500,3.6250,0.7253,-0.3025,0.5688,0.2429,
2025-03-13 20:40:41.154,9.5800,0.5600,-2.2200,3.2500,0.4375,2.1875,0.7252,-0.3026,0.5690,0.2425,
2025-03-13 20:40:41.154,9.6900,0.5400,-2.1600,2.1250,-0.8125,0.2500,0.7252,-0.3025,0.5691,0.2422,
2025-03-13 20:40:41.163,9.7900,0.5100,-2.1100,0.7500,-0.6250,-0.4375,0.7253,-0.3024,0.5691,0.2421,
2025-03-13 20:40:41.173,9.9300,0.4300,-2.1500,-0.0625,-0.6250,-0.3125,0.7253,-0.3024,0.5691,0.2420,
2025-03-13 20:40:41.183,9.8900,0.4400,-2.1200,0.0000,0.3750,1.3125,0.7253,-0.3024,0.5691,0.2419,
2025-03-13 20:40:41.192,9.8400,0.4200,-2.2200,-0.2500,0.5000,2.4375,0.7253,-0.3025,0.5691,0.2419,
2025-03-13 20:40:41.210,9.6500,0.4700,-2.3300,0.1250,0.9375,2.9375,0.7253,-0.3027,0.5691,0.2418,
2025-03-13 20:40:41.213,9.3300,0.5200,-2.4900,0.8750,0.7500,1.9375,0.7252,-0.3027,0.5692,0.2419,
2025-03-13 20:40:41.220,9.3300,0.5200,-2.4900,2.2500,-1.0000,0.0625,0.7252,-0.3025,0.5692,0.2419,
2025-03-13 20:40:41.233,9.6200,0.5800,-2.2900,2.9375,-3.7500,-2.3125,0.7253,-0.3024,0.5692,0.2418,
2025-03-13 20:40:41.243,10.0700,0.5600,-2.1900,2.3125,-5.8125,-2.9375,0.7256,-0.3022,0.5690,0.2416,
2025-03-13 20:40:41.253,10.4100,0.5500,-2.0700,1.9375,-4.0625,-1.7500,0.7260,-0.3020,0.5687,0.2415,
2025-03-13 20:40:41.263,10.4100,0.5500,-2.0700,1.1875,-2.1250,-0.1250,0.7263,-0.3019,0.5684,0.2413,
2025-03-13 20:40:41.273,10.4700,0.4700,-2.1400,0.8750,-0.5625,3.0625,0.7265,-0.3017,0.5684,0.2411,
2025-03-13 20:40:41.293,10.1600,0.4000,-2.3300,0.7500,1.0625,6.0625,0.7264,-0.3019,0.5685,0.2408,
2025-03-13 20:40:41.293,9.7200,0.4800,-2.3400,2.0000,1.6250,7.9375,0.7263,-0.3022,0.5687,0.2405,
2025-03-13 20:40:41.302,9.4900,0.4300,-2.2900,2.9375,1.5000,8.1250,0.7260,-0.3025,0.5690,0.2401,
2025-03-13 20:40:41.313,9.4900,0.4300,-2.2900,3.0625,2.0625,7.2500,0.7258,-0.3029,0.5693,0.2396,
2025-03-13 20:40:41.323,9.4600,0.4200,-2.2400,2.0000,3.2500,5.8125,0.7257,-0.3027,0.5698,0.2388,
2025-03-13 20:40:41.332,9.5800,0.2400,-2.0900,1.4375,5.1875,4.7500,0.7255,-0.3030,0.5701,0.2385,
2025-03-13 20:40:41.343,9.8600,0.1100,-2.0400,0.0000,7.6875,4.5625,0.7251,-0.3031,0.5706,0.2383,
2025-03-13 20:40:41.360,10.0700,0.0300,-2.0800,-0.4375,11.8125,6.0000,0.7246,-0.3032,0.5712,0.2383,
2025-03-13 20:40:41.362,10.0700,0.0300,-2.0800,0.6250,19.5625,8.2500,0.7239,-0.3033,0.5720,0.2383,
2025-03-13 20:40:41.373,9.8100,0.2200,-1.7700,0.6250,19.5625,8.2500,0.7229,-0.3030,0.5735,0.2380,
2025-03-13 20:40:41.383,9.6400,0.5900,-1.1900,-2.9375,31.1875,8.3125,0.7214,-0.3030,0.5753,0.2382,
2025-03-13 20:40:41.393,10.9900,0.7000,-0.3900,-9.3125,39.5625,6.3750,0.7196,-0.3031,0.5773,0.2388,
2025-03-13 20:40:41.403,11.8100,0.8300,0.0300,-19.9375,55.8750,7.8750,0.7173,-0.3032,0.5796,0.2400,
2025-03-13 20:40:41.443,11.8100,0.8300,0.0300,-19.9375,55.8750,7.8750,0.7140,-0.3035,0.5826,0.2422,
2025-03-13 20:40:41.443,12.2700,0.8500,0.3700,-31.1875,84.2500,9.5000,0.7089,-0.3039,0.5870,0.2459,
2025-03-13 20:40:41.443,11.3600,0.3900,-0.3700,-58.6875,155.7500,16.3750,0.7017,-0.3043,0.5933,0.2510,
2025-03-13 20:40:41.443,9.7800,0.0000,-1.1600,-64.8125,187.1250,17.3125,0.6921,-0.3049,0.6014,0.2576,
2025-03-13 20:40:41.462,8.2700,-0.5400,-2.0400,-61.2500,201.9375,12.9375,0.6807,-0.3051,0.6109,0.2653,
2025-03-13 20:40:41.465,8.2700,-0.5400,-2.0400,-61.2500,201.9375,12.9375,0.6684,-0.3044,0.6211,0.2733,
2025-03-13 20:40:41.533,7.3800,-1.0300,-2.3200,-52.5625,191.3750,11.4375,0.6568,-0.3034,0.6307,0.2806,
2025-03-13 20:40:41.533,8.9300,-0.3500,-0.4700,-33.0000,147.6875,14.1875,0.6465,-0.3024,0.6392,0.2865,
2025-03-13 20:40:41.533,9.9600,0.2100,0.8500,-29.5000,139.1875,17.2500,0.6373,-0.3013,0.6467,0.2913,
2025-03-13 20:40:41.533,9.9600,0.2100,0.8500,-34.0000,145.0625,19.8750,0.6285,-0.3004,0.6538,0.2955,
2025-03-13 20:40:41.533,12.3300,1.4000,3.5600,-34.0000,145.0625,19.8750,0.6190,-0.2997,0.6611,0.2999,
2025-03-13 20:40:41.550,12.6600,1.6400,3.9600,-46.4375,172.0000,21.0000,0.6076,-0.2990,0.6694,0.3055,
2025-03-13 20:40:41.550,12.0300,1.9000,3.8400,-70.1250,259.6875,9.8750,0.5933,-0.2978,0.6793,0.3129,
2025-03-13 20:40:41.550,9.8600,1.4200,2.6200,-77.3750,285.6875,-2.8750,0.5761,-0.2953,0.6907,0.3223,
2025-03-13 20:40:41.553,9.9600,0.7500,2.0000,-84.4375,291.7500,-7.2500,0.5573,-0.2919,0.7023,0.3332,
2025-03-13 20:40:41.564,9.9700,0.2200,1.5900,-84.4375,291.7500,-7.2500,0.5376,-0.2882,0.7135,0.3447,
2025-03-13 20:40:41.570,10.0500,0.1100,1.7700,-82.1250,287.3750,-7.2500,0.5179,-0.2844,0.7241,0.3557,
2025-03-13 20:40:41.583,9.8900,-0.0600,2.8700,-69.0625,271.5625,0.0625,0.4985,-0.2802,0.7342,0.3660,
2025-03-13 20:40:41.593,9.8000,-0.1800,3.2600,-65.8750,265.1875,6.3750,0.4794,-0.2760,0.7438,0.3752,
2025-03-13 20:40:41.603,9.6000,-0.2300,3.7800,-62.8750,262.6250,11.9375,0.4604,-0.2719,0.7530,0.3835,
2025-03-13 20:40:41.613,9.2800,-0.1800,4.2300,-62.8750,262.6250,11.9375,0.4413,-0.2678,0.7619,0.3912,
2025-03-13 20:40:41.630,6.6800,0.3100,4.4400,-57.5625,262.9375,13.6875,0.4221,-0.2632,0.7707,0.3983,
2025-03-13 20:40:41.633,6.4000,0.2400,5.1600,-44.9375,252.0625,-3.4375,0.4032,-0.2577,0.7790,0.4052,
2025-03-13 20:40:41.643,6.4800,0.0100,5.3400,-47.3750,248.1250,-11.5625,0.3851,-0.2519,0.7863,0.4124,
2025-03-13 20:40:41.653,8.1900,-0.6600,5.7000,-48.5000,250.6875,-14.3125,0.3671,-0.2460,0.7928,0.4199,
2025-03-13 20:40:41.660,8.4400,-0.7900,5.4900,-48.5000,250.6875,-14.3125,0.3488,-0.2398,0.7988,0.4274,
2025-03-13 20:40:41.670,7.6900,-1.1800,4.9500,-43.0625,253.9375,-10.8750,0.3303,-0.2332,0.8049,0.4344,
2025-03-13 20:40:41.743,7.4100,-0.9000,5.6400,-29.9375,236.4375,2.2500,0.3121,-0.2261,0.8108,0.4406,
2025-03-13 20:40:41.750,7.4500,-1.0900,5.7600,-25.3750,229.5000,10.1875,0.2946,-0.2193,0.8164,0.4456,
2025-03-13 20:40:41.750,6.7600,-0.9300,5.9100,-16.9375,230.0000,12.6875,0.2776,-0.2127,0.8219,0.4497,
2025-03-13 20:40:41.750,5.4400,-0.5900,6.0000,-16.9375,230.0000,12.6875,0.2607,-0.2053,0.8273,0.4533,
2025-03-13 20:40:41.750,4.1700,-0.7800,6.7400,-6.3750,223.4375,8.0625,0.2447,-0.1974,0.8322,0.4567,
2025-03-13 20:40:41.750,5.7600,-0.5400,7.8600,-1.5000,190.1250,0.8750,0.2300,-0.1894,0.8364,0.4600,
2025-03-13 20:40:41.750,7.0000,-0.6500,8.1300,-0.9375,185.8750,4.9375,0.2165,-0.1822,0.8400,0.4629,
2025-03-13 20:40:41.754,7.5100,-0.7800,8.1900,4.0000,200.3750,7.6250,0.2032,-0.1750,0.8435,0.4654,
2025-03-13 20:40:41.763,6.2800,-1.3000,7.4700,4.0000,200.3750,7.6250,0.1889,-0.1670,0.8472,0.4677,
2025-03-13 20:40:41.783,5.9400,-1.4700,7.4400,10.1875,209.3125,10.9375,0.1741,-0.1581,0.8510,0.4696,
2025-03-13 20:40:41.783,6.2800,-1.2400,7.8200,14.9375,193.5000,36.2500,0.1599,-0.1497,0.8549,0.4703,
2025-03-13 20:40:41.810,3.6900,-0.8800,7.5100,23.5000,188.4375,36.3125,0.1461,-0.1414,0.8590,0.4699,
2025-03-13 20:40:41.814,2.3800,-0.4600,7.9000,29.1250,173.0625,32.7500,0.1329,-0.1326,0.8629,0.4691,
2025-03-13 20:40:41.814,1.3900,-0.3100,8.7400,29.1250,173.0625,32.7500,0.1210,-0.1240,0.8664,0.4683,
2025-03-13 20:40:41.830,2.2500,-0.2600,9.4700,27.6875,153.4375,23.9375,0.1106,-0.1161,0.8691,0.4678,
2025-03-13 20:40:41.833,4.9000,-0.6700,9.3200,20.2500,142.5625,20.4375,0.1008,-0.1091,0.8713,0.4678,
2025-03-13 20:40:41.843,4.1900,-0.6600,9.4200,22.6250,140.6875,33.1250,0.0909,-0.1021,0.8734,0.4674,
2025-03-13 20:40:41.856,3.6100,-0.3700,9.8100,18.0625,129.7500,40.0625,0.0812,-0.0951,0.8759,0.4660,
2025-03-13 20:40:41.872,2.8900,-0.6200,9.4500,18.0625,129.7500,40.0625,0.0720,-0.0889,0.8785,0.4639,
2025-03-13 20:40:41.873,2.3300,-0.7200,9.1400,16.6250,128.7500,38.2500,0.0627,-0.0829,0.8808,0.4618,
2025-03-13 20:40:41.883,1.8900,-0.4300,9.5200,20.3750,139.4375,27.7500,0.0532,-0.0764,0.8830,0.4601,
2025-03-13 20:40:41.893,1.8100,-0.5100,9.3900,20.1875,140.0625,23.1875,0.0435,-0.0696,0.8847,0.4588,
2025-03-13 20:40:41.903,1.5100,-0.5600,8.9400,22.4375,134.5000,23.8125,0.0336,-0.0627,0.8862,0.4578,
2025-03-13 20:40:41.924,0.8800,-0.3800,9.0300,22.4375,134.5000,23.8125,0.0243,-0.0559,0.8876,0.4566,
2025-03-13 20:40:41.940,-0.5200,-0.3700,9.3300,29.0625,117.9375,24.1250,0.0076,-0.0424,0.8884,0.4571,
2025-03-13 20:40:41.943,-0.1600,0.0200,9.8700,23.5625,100.0000,27.1875,0.0009,-0.0368,0.8896,0.4553,
2025-03-13 20:40:41.960,0.0100,0.0000,9.7500,17.4375,84.2500,28.6250,-0.0048,-0.0322,0.8907,0.4534,
2025-03-13 20:40:41.960,-0.3400,0.0000,9.7500,16.1875,81.8125,25.1250,-0.0104,-0.0279,0.8916,0.4518,
2025-03-13 20:40:41.980,-0.2600,0.0300,9.9000,16.4375,83.8750,17.3750,-0.0162,-0.0234,0.8910,0.4531,
2025-03-13 20:40:41.983,-0.4400,-0.2300,9.4200,16.3125,88.5625,9.3750,-0.0223,-0.0187,0.8912,0.4526,
2025-03-13 20:40:41.993,-0.9000,-0.4400,8.8100,15.0000,88.8125,4.6250,-0.0284,-0.0142,0.8912,0.4524,
2025-03-13 20:40:42.003,-0.8600,-0.2800,9.0800,15.3750,80.2500,6.5625,-0.0339,-0.0099,0.8913,0.4520,
2025-03-13 20:40:42.043,-0.8400,-0.1300,9.5100,10.3750,53.3750,15.2500,-0.0420,-0.0033,0.8901,0.4538,
2025-03-13 20:40:42.049,-0.8000,-0.1100,9.5200,7.1875,45.8125,16.6250,-0.0452,-0.0010,0.8906,0.4526,
2025-03-13 20:40:42.049,-1.6400,-0.1100,9.3100,8.0000,52.0000,11.3750,-0.0488,0.0016,0.8908,0.4518,
2025-03-13 20:40:42.053,-1.8000,0.0100,9.4500,9.2500,58.1875,4.4375,-0.0528,0.0046,0.8907,0.4515,
2025-03-13 20:40:42.070,-1.6900,-0.2000,9.0300,5.9375,50.5625,-5.5000,-0.0603,0.0097,0.8899,0.4520,
2025-03-13 20:40:42.083,-1.8100,-0.0900,9.1600,5.1875,42.8750,-4.8750,-0.0633,0.0117,0.8895,0.4523,
2025-03-13 20:40:42.103,-1.9200,0.0900,9.3600,3.8125,34.8750,-2.9375,-0.0658,0.0133,0.8892,0.4525,
2025-03-13 20:40:42.103,-2.0200,0.0900,9.4900,2.6875,27.6250,-1.9375,-0.0678,0.0145,0.8890,0.4526,
2025-03-13 20:40:42.124,-1.6000,0.0000,9.4500,-1.7500,17.5000,-6.6250,-0.0707,0.0159,0.8884,0.4533,
2025-03-13 20:40:42.133,-1.3500,-0.0500,9.4400,-4.0000,12.6875,-9.0000,-0.0719,0.0160,0.8880,0.4539,
2025-03-13 20:40:42.154,-1.5400,-0.2500,9.1800,-4.5000,11.8125,-9.6250,-0.0740,0.0161,0.8871,0.4553,
2025-03-13 20:40:42.173,-0.7800,-0.3700,9.0900,-1.9375,15.5625,-10.3125,-0.0765,0.0167,0.8862,0.4567,
2025-03-13 20:40:42.183,-1.0000,-0.1500,9.2900,0.0000,13.5000,-4.9375,-0.0775,0.0172,0.8859,0.4571,
2025-03-13 20:40:42.205,-1.8600,-0.0700,9.5200,-2.3750,1.7500,4.2500,-0.0783,0.0174,0.8860,0.4566,
2025-03-13 20:40:42.213,-1.9500,-0.0400,9.4500,-3.8125,0.0625,2.1250,-0.0785,0.0171,0.8861,0.4564,
2025-03-13 20:40:42.225,-1.5300,-0.3000,9.1700,-5.5000,-1.8750,-2.6875,-0.0786,0.0166,0.8861,0.4566,
2025-03-13 20:40:42.233,-1.2300,-0.3200,9.0900,-6.5000,-2.5625,-6.3125,-0.0786,0.0159,0.8858,0.4570,
2025-03-13 20:40:42.254,-0.9000,-0.3900,9.0400,-6.1250,-7.6250,-3.8125,-0.0782,0.0145,0.8855,0.4577,
2025-03-13 20:40:42.273,-1.1300,-0.3900,8.9100,-5.2500,-10.6875,1.4375,-0.0776,0.0137,0.8857,0.4576,
2025-03-13 20:40:42.273,-1.6500,-0.2100,9.0800,-4.1875,-14.7500,7.5625,-0.0767,0.0128,0.8860,0.4570,
2025-03-13 20:40:42.300,-1.9300,-0.1600,9.2400,-3.8750,-22.2500,11.5625,-0.0751,0.0117,0.8867,0.4561,
2025-03-13 20:40:42.303,-2.2000,-0.1800,9.0900,-7.1250,-34.4375,13.0000,-0.0728,0.0099,0.8874,0.4551,
2025-03-13 20:40:42.543,-1.8500,-0.1100,9.3300,-11.9375,-50.1875,13.5000,-0.0695,0.0072,0.8882,0.4541,
2025-03-13 20:40:42.603,-1.1600,-0.0300,9.5000,-16.7500,-67.6250,13.5000,-0.0651,0.0035,0.8891,0.4530,
2025-03-13 20:40:42.603,-0.8500,-0.3700,9.1500,-20.0625,-76.2500,10.1250,-0.0601,-0.0009,0.8899,0.4522,
2025-03-13 20:40:42.603,-0.4300,-0.3700,9.2000,-18.4375,-72.4375,4.1250,-0.0554,-0.0051,0.8904,0.4517,
2025-03-13 20:40:42.603,-0.6000,-0.2100,9.4800,-15.2500,-70.5000,3.6250,-0.0507,-0.0089,0.8909,0.4514,
2025-03-13 20:40:42.603,-1.0100,-0.1100,9.5600,-14.5625,-75.7500,8.0625,-0.0455,-0.0128,0.8915,0.4506,
2025-03-13 20:40:42.603,-1.9400,0.1100,9.7100,-17.1250,-89.6875,14.5000,-0.0394,-0.0175,0.8923,0.4493,
2025-03-13 20:40:42.603,-2.1500,0.1500,9.8400,-21.6875,-110.9375,20.6250,-0.0320,-0.0232,0.8923,0.4498,
2025-03-13 20:40:42.603,-2.2700,0.1700,9.8500,-28.6875,-139.9375,24.8125,-0.0225,-0.0306,0.8935,0.4475,
2025-03-13 20:40:42.603,-2.2800,-0.0300,9.5500,-38.8125,-174.6875,27.0000,-0.0109,-0.0401,0.8946,0.4449,
2025-03-13 20:40:42.603,-0.9100,-0.3700,9.0100,-49.3750,-209.4375,25.2500,0.0030,-0.0516,0.8955,0.4421,
2025-03-13 20:40:42.603,-0.2600,-0.5900,8.6700,-57.0000,-240.8750,22.1875,0.0190,-0.0649,0.8958,0.4393,
2025-03-13 20:40:42.603,0.3800,-0.5600,8.5800,-62.0625,-268.6875,22.5000,0.0369,-0.0797,0.8956,0.4362,
2025-03-13 20:40:42.603,1.0500,-0.8800,8.3400,-64.8750,-293.1250,24.8750,0.0565,-0.0954,0.8949,0.4323,
2025-03-13 20:40:42.603,1.3500,-0.9700,7.7900,-65.9375,-315.0625,28.3750,0.0776,-0.1119,0.8936,0.4278,
2025-03-13 20:40:42.603,1.1600,-1.1100,7.5900,-65.8125,-333.5000,30.2500,0.1001,-0.1291,0.8915,0.4226,
2025-03-13 20:40:42.603,1.1700,-1.0900,7.2500,-65.8750,-352.5625,26.0625,0.1240,-0.1468,0.8883,0.4172,
2025-03-13 20:40:42.603,2.0900,-1.5900,6.1000,-68.3750,-370.6250,15.6250,0.1490,-0.1651,0.8837,0.4119,
2025-03-13 20:40:42.603,3.6000,-1.5300,5.5800,-70.1250,-382.5625,0.0000,0.1751,-0.1835,0.8774,0.4072,
2025-03-13 20:40:42.603,5.6800,-1.7700,4.9800,-72.6250,-394.6875,-11.3750,0.2019,-0.2022,0.8695,0.4028,
2025-03-13 20:40:42.603,7.1800,-2.0400,4.4000,-68.3125,-399.8125,-15.0625,0.2291,-0.2205,0.8605,0.3980,
2025-03-13 20:40:42.605,8.0300,-2.5200,3.7000,-55.0000,-395.3125,-13.0625,0.2560,-0.2374,0.8509,0.3924,
2025-03-13 20:40:42.605,7.5300,-2.2600,3.5300,-40.5625,-387.8125,-10.5625,0.2826,-0.2528,0.8409,0.3861,
2025-03-13 20:40:42.605,7.2500,-2.2400,3.0100,-30.2500,-392.0000,-0.2500,0.3093,-0.2676,0.8305,0.3782,
2025-03-13 20:40:42.605,7.9100,-1.8500,2.9100,-20.6875,-406.3750,3.8750,0.3368,-0.2819,0.8190,0.3691,
2025-03-13 20:40:42.605,8.5900,-1.5400,3.1200,-14.5625,-410.6250,0.6875,0.3646,-0.2956,0.8065,0.3595,
2025-03-13 20:40:42.643,9.3500,-1.1600,3.3600,-10.5000,-402.6875,-8.7500,0.3917,-0.3081,0.7931,0.3501,
2025-03-13 20:40:42.643,9.7300,-1.1900,3.2000,-0.5625,-359.3125,-39.9375,0.4166,-0.3173,0.7797,0.3433,
2025-03-13 20:40:42.643,10.2200,-1.6500,1.9000,-0.5625,-359.3125,-39.9375,0.4412,-0.3261,0.7655,0.3362,
2025-03-13 20:40:42.643,11.5900,-2.0300,1.1900,0.1250,-343.0625,-33.1875,0.4641,-0.3345,0.7515,0.3287,
2025-03-13 20:40:42.643,12.6700,-2.3100,0.6900,5.9375,-340.3750,-11.3750,0.4860,-0.3430,0.7377,0.3195,
2025-03-13 20:40:42.643,12.0500,-1.7200,0.4400,16.3750,-334.1875,9.0625,0.5067,-0.3512,0.7244,0.3084,
2025-03-13 20:40:42.643,10.6200,-1.5200,0.0200,24.7500,-328.5000,18.5625,0.5267,-0.3589,0.7113,0.2964,
2025-03-13 20:40:42.643,9.2000,-0.7900,-0.1600,30.0625,-326.3125,13.0625,0.5465,-0.3657,0.6977,0.2842,
2025-03-13 20:40:42.643,8.3100,-0.4200,-0.2600,31.3125,-319.3750,-10.5625,0.5662,-0.3709,0.6835,0.2734,
2025-03-13 20:40:42.653,7.4500,-0.1000,-0.4900,27.7500,-302.4375,-46.4375,0.5856,-0.3739,0.6686,0.2653,
2025-03-13 20:40:42.663,8.7100,0.0400,-0.4200,20.0625,-274.8125,-84.3125,0.6040,-0.3746,0.6535,0.2603,
2025-03-13 20:40:42.675,12.0200,-0.4100,-0.1800,8.0000,-244.5000,-100.5000,0.6207,-0.3744,0.6389,0.2576,
2025-03-13 20:40:42.684,15.3900,-1.3000,-0.5700,-4.8125,-202.6875,-85.0625,0.6341,-0.3745,0.6262,0.2560,
2025-03-13 20:40:42.692,17.2500,-1.1100,-1.2300,4.3750,-137.5625,-61.3125,0.6434,-0.3740,0.6176,0.2546,
2025-03-13 20:40:42.703,15.5000,-0.9300,-1.1500,18.3125,-84.5000,-39.0000,0.6494,-0.3727,0.6127,0.2530,
2025-03-13 20:40:42.710,13.7000,-0.6900,-1.6000,21.5625,-59.8750,-18.1250,0.6535,-0.3718,0.6097,0.2509,
2025-03-13 20:40:42.723,10.4100,-0.6900,-2.5800,26.3750,-50.4375,-8.3125,0.6569,-0.3711,0.6075,0.2482,
2025-03-13 20:40:42.733,9.3000,-0.7400,-2.6500,28.1250,-51.1875,-9.0000,0.6604,-0.3702,0.6054,0.2455,
2025-03-13 20:40:42.739,8.7100,-0.9500,-2.9700,27.1250,-54.7500,-16.5625,0.6643,-0.3690,0.6028,0.2432,
2025-03-13 20:40:42.750,8.2100,-0.9200,-2.9400,25.4375,-58.3125,-23.1250,0.6685,-0.3676,0.5999,0.2411,
2025-03-13 20:40:42.770,8.5700,-0.4500,-2.2000,22.6875,-59.1250,-32.1875,0.6730,-0.3658,0.5966,0.2396,
2025-03-13 20:40:42.773,9.3500,-0.4900,-1.7900,18.0000,-52.3750,-42.2500,0.6772,-0.3636,0.5933,0.2391,
2025-03-13 20:40:42.783,10.4600,-0.6700,-1.7400,11.1250,-39.5625,-44.1250,0.6808,-0.3613,0.5905,0.2394,
2025-03-13 20:40:42.793,11.9300,-0.9100,-1.9100,7.0625,-21.8750,-38.8750,0.6832,-0.3591,0.5886,0.2403,
2025-03-13 20:40:42.800,11.8700,-0.9800,-2.1200,5.1875,-3.1875,-28.8750,0.6844,-0.3573,0.5880,0.2413,
2025-03-13 20:40:42.814,10.8300,-0.9500,-2.3800,6.1875,11.8125,-18.0000,0.6844,-0.3557,0.5885,0.2422,
2025-03-13 20:40:42.823,9.5100,-0.7400,-2.6700,8.9375,16.8125,-12.9375,0.6842,-0.3541,0.5895,0.2428,
2025-03-13 20:40:42.831,7.5300,-0.6800,-3.0200,13.1875,8.6875,-14.1250,0.6845,-0.3525,0.5901,0.2430,
2025-03-13 20:40:42.839,7.1600,-0.6600,-2.8900,13.8125,-5.3125,-20.1250,0.6856,-0.3507,0.5898,0.2431,
2025-03-13 20:40:42.854,7.3500,-0.3000,-2.3700,11.7500,-14.1875,-29.6250,0.6874,-0.3487,0.5887,0.2435,
2025-03-13 20:40:42.860,8.4800,0.0200,-1.6300,6.6250,-15.4375,-39.7500,0.6895,-0.3464,0.5872,0.2446,
2025-03-13 20:40:42.873,9.6800,-0.1800,-1.6600,-0.3125,-11.0625,-46.5000,0.6914,-0.3439,0.5856,0.2466,
2025-03-13 20:40:42.879,10.7700,-0.3600,-1.7800,-6.0625,-3.9375,-44.7500,0.6928,-0.3417,0.5842,0.2490,
2025-03-13 20:40:42.894,11.5600,-0.6100,-2.0800,-7.5000,5.2500,-35.7500,0.6934,-0.3399,0.5836,0.2513,
2025-03-13 20:40:42.900,11.0300,-0.7200,-2.5700,-4.2500,15.0000,-22.0000,0.6932,-0.3384,0.5839,0.2531,
2025-03-13 20:40:42.943,10.2500,-0.5700,-2.8000,-0.1250,17.0625,-9.3125,0.6926,-0.3375,0.5847,0.2541,
2025-03-13 20:40:42.943,9.1300,-0.3200,-2.9800,5.5625,11.9375,-1.6250,0.6926,-0.3375,0.5847,0.2541,
2025-03-13 20:40:42.943,8.3100,0.3000,-2.3900,11.3750,1.1250,-3.0625,0.6922,-0.3369,0.5855,0.2542,
2025-03-13 20:40:42.943,8.7400,0.4400,-2.0000,11.7500,-10.7500,-8.3125,0.6934,-0.3353,0.5853,0.2531,
2025-03-13 20:40:42.953,9.1800,0.5400,-1.7500,8.9375,-14.8125,-14.4375,0.6948,-0.3344,0.5844,0.2529,
2025-03-13 20:40:42.963,9.5500,0.4800,-1.6600,4.6875,-11.4375,-19.9375,0.6960,-0.3332,0.5834,0.2533,
2025-03-13 20:40:42.989,10.4300,0.1900,-1.9900,1.1250,-8.1250,-22.0625,0.6960,-0.3332,0.5834,0.2533,
2025-03-13 20:40:43.004,10.8700,0.0000,-2.1600,-0.3125,-6.0000,-19.0000,0.6981,-0.3305,0.5819,0.2545,
2025-03-13 20:40:43.004,10.9800,-0.0100,-2.2900,0.8750,-2.2500,-12.2500,0.6986,-0.3298,0.5815,0.2549,
2025-03-13 20:40:43.004,10.5000,0.1100,-2.2600,2.3125,0.6250,-4.9375,0.6988,-0.3294,0.5816,0.2551,
2025-03-13 20:40:43.014,10.0200,0.2200,-2.3700,3.4375,2.0625,0.3125,0.6987,-0.3292,0.5818,0.2549,
2025-03-13 20:40:43.023,9.5200,0.2200,-2.4100,4.6250,2.2500,2.1875,0.6987,-0.3292,0.5818,0.2549,
2025-03-13 20:40:43.033,9.2100,0.2700,-2.3900,5.3125,-0.6250,1.5625,0.6987,-0.3289,0.5821,0.2544,
2025-03-13 20:40:43.049,9.3700,0.2300,-2.2500,4.8750,-4.3750,0.0000,0.6988,-0.3287,0.5823,0.2541,
2025-03-13 20:40:43.053,9.4800,0.2200,-2.1400,3.9375,-4.9375,-1.4375,0.6991,-0.3286,0.5821,0.2537,
2025-03-13 20:40:43.070,9.7000,0.1900,-2.0900,2.8750,-4.3125,-3.6875,0.6995,-0.3284,0.5819,0.2534,
2025-03-13 20:40:43.072,9.8300,0.1200,-2.1200,1.1875,-2.8125,-3.5000,0.6999,-0.3281,0.5817,0.2532,
2025-03-13 20:40:43.094,9.8300,0.1000,-2.2900,-0.9375,-0.8750,-2.1875,0.7001,-0.3279,0.5815,0.2533,
2025-03-13 20:40:43.103,9.8800,0.0200,-2.4800,-2.0625,1.0000,-1.6875,0.7002,-0.3279,0.5813,0.2534,
2025-03-13 20:40:43.103,9.9200,0.0000,-2.6500,-2.1875,1.9375,0.0000,0.7002,-0.3279,0.5813,0.2537,
2025-03-13 20:40:43.109,9.4100,0.1200,-2.6600,0.4375,3.0625,0.7500,0.7000,-0.3279,0.5814,0.2538,
2025-03-13 20:40:43.123,9.2300,0.0500,-2.7200,1.9375,1.5625,0.9375,0.6999,-0.3279,0.5815,0.2539,
2025-03-13 20:40:43.133,9.2800,0.1500,-2.6200,2.5625,-2.4375,-0.5625,0.6999,-0.3276,0.5818,0.2536,
2025-03-13 20:40:43.140,9.5600,0.1800,-2.4200,2.8125,-5.1875,-2.8750,0.7001,-0.3276,0.5817,0.2534,
2025-03-13 20:40:43.153,9.9900,0.2300,-2.2600,1.3125,-5.5625,-2.3125,0.7004,-0.3274,0.5814,0.2532,
2025-03-13 20:40:43.163,10.1000,0.1100,-2.3200,0.5000,-3.3125,-1.6875,0.7008,-0.3273,0.5811,0.2531,
2025-03-13 20:40:43.173,9.9800,0.2500,-2.2000,0.4375,-0.8125,-0.5625,0.7010,-0.3273,0.5809,0.2531,
2025-03-13 20:40:43.183,9.7300,0.2200,-2.4300,-0.9375,0.4375,-0.1250,0.7015,-0.3265,0.5811,0.2524,
2025-03-13 20:40:43.193,9.6500,0.2200,-2.5200,-1.2500,1.3750,-0.3125,0.7014,-0.3265,0.5811,0.2524,
2025-03-13 20:40:43.200,9.6400,0.2000,-2.5900,-1.1875,0.8125,-1.1875,0.7013,-0.3266,0.5811,0.2526,
2025-03-13 20:40:43.244,9.7700,0.1100,-2.6100,-0.8125,-0.3750,-1.4375,0.7013,-0.3265,0.5811,0.2527,
2025-03-13 20:40:43.253,9.9900,0.1300,-2.5500,-0.4375,-2.0000,-0.2500,0.7013,-0.3265,0.5810,0.2529,
2025-03-13 20:40:43.253,9.8500,0.1100,-2.6400,0.5625,-2.4375,0.6250,0.7015,-0.3263,0.5810,0.2526,
2025-03-13 20:40:43.256,9.6900,0.1600,-2.6200,1.5625,-3.0625,1.1875,0.7016,-0.3264,0.5809,0.2525,
2025-03-13 20:40:43.256,9.5800,0.2400,-2.4700,1.6250,-4.3125,0.3125,0.7023,-0.3263,0.5801,0.2524,
2025-03-13 20:40:43.262,9.6400,0.2700,-2.3700,0.8125,-3.6250,-0.5000,0.7030,-0.3263,0.5794,0.2523,
2025-03-13 20:40:43.280,9.8400,0.2400,-2.3400,-0.8750,-1.5625,-1.8125,0.7035,-0.3262,0.5788,0.2523,
2025-03-13 20:40:43.283,9.9300,0.1100,-2.5000,-2.3750,1.6250,-2.3750,0.7038,-0.3261,0.5783,0.2526,
2025-03-13 20:40:43.293,9.9300,0.0200,-2.8600,-2.1250,2.3125,-0.6875,0.7041,-0.3259,0.5780,0.2530,
2025-03-13 20:40:43.304,9.8700,0.0800,-2.7700,-0.0625,2.0000,0.5000,0.7043,-0.3259,0.5775,0.2533,
2025-03-13 20:40:43.312,9.8500,0.1000,-2.6900,1.2500,0.9375,1.6250,0.7047,-0.3259,0.5770,0.2534,
2025-03-13 20:40:43.322,9.8500,0.1000,-2.6900,1.6250,-0.6875,3.0000,0.7047,-0.3259,0.5772,0.2532,
2025-03-13 20:40:43.333,9.8200,0.0900,-2.7600,2.7500,-1.0000,3.6250,0.7046,-0.3261,0.5772,0.2531,
2025-03-13 20:40:43.342,9.8100,0.2700,-2.4400,2.2500,-0.6250,3.3750,0.7046,-0.3262,0.5773,0.2527,
2025-03-13 20:40:43.363,9.7100,0.3000,-2.4700,1.3750,0.4375,2.3125,0.7046,-0.3263,0.5774,0.2524,
2025-03-13 20:40:43.363,9.6700,0.1600,-2.4100,0.6875,2.6250,0.0000,0.7049,-0.3262,0.5771,0.2523,
2025-03-13 20:40:43.370,9.6700,0.1600,-2.4100,-0.8125,3.0625,-0.6250,0.7048,-0.3262,0.5773,0.2524,
2025-03-13 20:40:43.380,9.7500,0.1100,-2.4700,-2.0000,3.1875,-0.1875,0.7046,-0.3261,0.5774,0.2526,
2025-03-13 20:40:43.393,9.7300,0.1100,-2.5300,-2.1250,3.6875,0.1875,0.7044,-0.3262,0.5776,0.2527,
2025-03-13 20:40:43.403,9.6100,0.0300,-2.6300,-1.8125,4.0000,-0.2500,0.7045,-0.3261,0.5774,0.2530,
2025-03-13 20:40:43.412,9.5300,0.0100,-2.6600,-1.3750,3.0625,0.5625,0.7046,-0.3261,0.5771,0.2533,
2025-03-13 20:40:43.423,9.5300,0.0100,-2.6600,-0.3125,2.1875,0.4375,0.7048,-0.3262,0.5767,0.2534,
2025-03-13 20:40:43.430,9.5200,0.0800,-2.6200,-0.0625,0.3125,0.8125,0.7052,-0.3261,0.5763,0.2535,
2025-03-13 20:40:43.442,9.7400,0.2400,-2.4200,0.8125,-1.0000,0.9375,0.7055,-0.3262,0.5759,0.2535,
2025-03-13 20:40:43.453,9.8300,0.2800,-2.2500,1.1250,-0.6250,0.1875,0.7058,-0.3262,0.5755,0.2535,
2025-03-13 20:40:43.463,9.9200,0.2700,-2.2400,0.0000,0.7500,-0.5000,0.7061,-0.3260,0.5753,0.2535,
2025-03-13 20:40:43.473,9.9200,0.2700,-2.2400,0.0000,0.7500,-0.5000,0.7060,-0.3260,0.5753,0.2535,
2025-03-13 20:40:43.483,9.9400,0.1400,-2.3800,-1.0625,2.8125,-0.9375,0.7056,-0.3267,0.5751,0.2543,
2025-03-13 20:40:43.493,9.8100,0.1500,-2.4600,-1.8750,4.0625,0.7500,0.7053,-0.3267,0.5753,0.2545,
2025-03-13 20:40:43.505,9.6700,0.2600,-2.3700,-1.8125,3.5000,1.1875,0.7051,-0.3267,0.5756,0.2547,
2025-03-13 20:40:43.552,9.6600,0.2200,-2.3400,-1.8750,2.0625,0.6250,0.7050,-0.3267,0.5755,0.2549,
2025-03-13 20:40:43.552,9.6600,0.2200,-2.3400,-1.8750,2.0625,0.6250,0.7050,-0.3267,0.5754,0.2552,
2025-03-13 20:40:43.552,9.6600,0.1800,-2.3300,-2.2500,2.1250,-0.3125,0.7050,-0.3267,0.5753,0.2555,
2025-03-13 20:40:43.553,9.5200,0.0500,-2.4500,-3.1250,3.9375,-1.1250,0.7050,-0.3266,0.5752,0.2559,
2025-03-13 20:40:43.553,9.5500,0.0000,-2.4600,-2.4375,3.3750,-1.4375,0.7049,-0.3266,0.5751,0.2563,
2025-03-13 20:40:43.563,9.6800,0.0300,-2.4400,-2.4375,1.7500,-1.1250,0.7050,-0.3265,0.5749,0.2566,
2025-03-13 20:40:43.573,9.6800,0.0300,-2.4400,-2.4375,1.7500,-1.1250,0.7051,-0.3266,0.5747,0.2568,
2025-03-13 20:40:43.583,9.7600,0.1300,-2.4500,-2.4375,1.8125,-0.5625,0.7051,-0.3267,0.5745,0.2571,
2025-03-13 20:40:43.593,9.7900,0.1400,-2.4700,-1.6875,1.6250,0.2500,0.7052,-0.3267,0.5743,0.2573,
2025-03-13 20:40:43.603,9.9200,0.1900,-2.4700,-0.8125,2.5000,0.9375,0.7053,-0.3267,0.5741,0.2575,
2025-03-13 20:40:43.615,9.8400,0.2000,-2.4800,-0.6250,3.0625,0.8750,0.7053,-0.3267,0.5740,0.2576,
2025-03-13 20:40:43.623,9.6300,0.2000,-2.4200,-0.6250,3.0625,0.8750,0.7053,-0.3266,0.5740,0.2577,
2025-03-13 20:40:43.635,9.6500,0.2000,-2.4000,-0.8750,2.6875,0.0625,0.7053,-0.3265,0.5739,0.2579,
2025-03-13 20:40:43.643,9.7500,0.2200,-2.3700,-2.1250,1.8750,-0.9375,0.7054,-0.3265,0.5737,0.2582,
2025-03-13 20:40:43.653,9.8800,0.1400,-2.3900,-2.4375,3.1250,-0.1250,0.7054,-0.3265,0.5735,0.2585,
2025-03-13 20:40:43.663,9.8600,0.1400,-2.4300,-1.4375,3.6875,0.7500,0.7054,-0.3265,0.5735,0.2587,
2025-03-13 20:40:43.675,9.8700,0.1300,-2.4300,-1.4375,3.6875,0.7500,0.7053,-0.3265,0.5735,0.2590,
2025-03-13 20:40:43.683,9.8900,0.1700,-2.3600,-1.3125,2.8125,1.8125,0.7052,-0.3265,0.5736,0.2590,
2025-03-13 20:40:43.695,9.8100,0.2900,-2.3400,-1.3125,3.1875,2.0000,0.7051,-0.3266,0.5735,0.2592,
2025-03-13 20:40:43.703,9.7100,0.3000,-2.3000,-2.3125,4.1875,0.8125,0.7050,-0.3267,0.5736,0.2593,
2025-03-13 20:40:43.715,9.8200,0.2500,-2.3100,-3.5625,5.6875,0.0625,0.7049,-0.3267,0.5736,0.2596,
2025-03-13 20:40:43.723,9.9300,0.1800,-2.3600,-3.5625,5.6875,0.0625,0.7046,-0.3267,0.5737,0.2601,
2025-03-13 20:40:43.730,9.9500,0.1300,-2.4300,-3.9375,7.3125,0.2500,0.7043,-0.3267,0.5739,0.2606,
2025-03-13 20:40:43.743,9.8000,0.0700,-2.5100,-3.4375,8.0625,0.7500,0.7040,-0.3267,0.5740,0.2610,
2025-03-13 20:40:43.755,9.6600,0.1100,-2.5400,-2.5625,5.3125,1.3750,0.7038,-0.3268,0.5741,0.2613,
2025-03-13 20:40:43.764,9.6000,0.1200,-2.5000,-2.0625,3.7500,0.8750,0.7037,-0.3268,0.5740,0.2615,
2025-03-13 20:40:43.772,9.6100,0.1600,-2.4500,-2.0625,3.7500,0.8750,0.7037,-0.3269,0.5739,0.2617,
2025-03-13 20:40:43.784,9.6600,0.0900,-2.4700,-1.8750,2.5000,0.3125,0.7039,-0.3270,0.5737,0.2619,
2025-03-13 20:40:43.792,9.8200,0.1100,-2.4300,-1.3750,2.1875,0.6875,0.7039,-0.3270,0.5735,0.2620,
2025-03-13 20:40:43.803,9.9200,0.0900,-2.4600,-1.0625,3.0000,1.8125,0.7040,-0.3271,0.5734,0.2621,
2025-03-13 20:40:43.844,9.7300,0.1700,-2.4400,-0.3125,3.0625,1.5625,0.7039,-0.3272,0.5733,0.2622,
2025-03-13 20:40:43.850,9.5300,0.1500,-2.3700,-0.3125,3.0625,1.5625,0.7039,-0.3272,0.5733,0.2622,
2025-03-13 20:40:43.850,9.5700,0.0400,-2.4600,-1.0625,1.8125,0.3750,0.7041,-0.3272,0.5731,0.2623,
2025-03-13 20:40:43.850,9.6800,0.0400,-2.4000,-1.5000,0.7500,-0.7500,0.7042,-0.3272,0.5729,0.2624,
2025-03-13 20:40:43.853,9.8000,0.0500,-2.3600,-0.0625,1.0000,-1.0000,0.7043,-0.3271,0.5727,0.2625,
2025-03-13 20:40:43.863,9.8400,0.0400,-2.2900,-0.0625,1.2500,-0.3125,0.7044,-0.3271,0.5726,0.2626,
2025-03-13 20:40:43.873,9.9100,0.1500,-2.1900,-0.0625,1.2500,-0.3125,0.7044,-0.3270,0.5726,0.2626,
2025-03-13 20:40:43.880,9.8300,0.1500,-2.1800,0.1250,1.8125,0.0000,0.7043,-0.3270,0.5727,0.2627,
2025-03-13 20:40:43.893,9.8200,0.1600,-2.2200,-0.8125,2.0000,0.2500,0.7043,-0.3270,0.5727,0.2628,
2025-03-13 20:40:43.903,9.8900,0.1700,-2.2100,-0.8125,4.1250,-0.7500,0.7042,-0.3270,0.5728,0.2630,
2025-03-13 20:40:43.913,9.9600,0.1000,-2.2300,-1.4375,4.3125,0.5000,0.7040,-0.3268,0.5729,0.2632,
2025-03-13 20:40:43.920,9.9600,0.0800,-2.2700,-1.4375,4.3125,0.5000,0.7038,-0.3268,0.5731,0.2634,
2025-03-13 20:40:43.933,9.9500,0.2200,-2.1500,-1.6250,4.6875,1.5625,0.7035,-0.3269,0.5733,0.2637,
2025-03-13 20:40:43.943,9.8000,0.2100,-2.1700,-1.6875,5.0625,1.5000,0.7032,-0.3270,0.5735,0.2639,
2025-03-13 20:40:43.953,9.7500,0.2400,-2.1400,-2.1250,6.1875,-0.0625,0.7030,-0.3269,0.5737,0.2642,
2025-03-13 20:40:43.963,9.7400,0.1500,-2.1900,-2.3750,5.2500,0.1250,0.7027,-0.3268,0.5740,0.2645,
2025-03-13 20:40:43.970,9.7700,0.1400,-2.2200,-2.3750,5.2500,0.1250,0.7024,-0.3268,0.5741,0.2648,
2025-03-13 20:40:43.983,9.7300,0.1100,-2.2000,-1.5000,4.5625,-0.0625,0.7023,-0.3268,0.5743,0.2651,
2025-03-13 20:40:43.993,9.7500,0.0900,-2.2400,-1.2500,3.3750,0.0625,0.7021,-0.3268,0.5743,0.2653,
2025-03-13 20:40:44.007,9.8800,0.0900,-2.2300,-1.0625,1.5625,1.6250,0.7020,-0.3268,0.5744,0.2654,
2025-03-13 20:40:44.024,9.9600,0.1500,-2.1700,-1.0625,1.5625,1.6250,0.7020,-0.3269,0.5744,0.2654,
2025-03-13 20:40:44.024,9.9700,0.1500,-2.1700,-1.0000,1.8125,2.3125,0.7018,-0.3271,0.5745,0.2654,
2025-03-13 20:40:44.029,9.9500,0.1700,-2.1600,-1.2500,2.5000,3.1250,0.7016,-0.3273,0.5746,0.2654,
2025-03-13 20:40:44.043,9.9300,0.2100,-2.1400,-1.8125,3.4375,3.9375,0.7014,-0.3275,0.5748,0.2655,
2025-03-13 20:40:44.054,9.7200,0.2600,-2.1200,-2.3125,4.4375,4.4375,0.7010,-0.3277,0.5750,0.2656,
2025-03-13 20:40:44.063,9.6500,0.2200,-2.0700,-3.1875,5.5625,4.0625,0.7006,-0.3279,0.5753,0.2658,
2025-03-13 20:40:44.070,9.6500,0.2100,-2.0700,-4.0625,6.2500,2.9375,0.7002,-0.3281,0.5755,0.2662,
2025-03-13 20:40:44.085,9.7800,0.1400,-2.0100,-5.3750,6.5000,2.1250,0.6998,-0.3284,0.5757,0.2667,
2025-03-13 20:40:44.090,9.8600,0.1200,-1.9800,-7.0625,5.8750,2.5000,0.6993,-0.3287,0.5759,0.2671,
2025-03-13 20:40:44.106,9.8400,0.0400,-2.1100,-8.3750,5.3750,3.6875,0.6987,-0.3292,0.5760,0.2676,
2025-03-13 20:40:44.144,9.8000,0.0200,-2.1500,-8.8750,4.8125,5.3750,0.6982,-0.3298,0.5761,0.2681,
2025-03-13 20:40:44.153,9.7500,-0.0100,-2.3200,-8.6250,2.8125,6.0625,0.6978,-0.3306,0.5760,0.2683,
2025-03-13 20:40:44.153,9.6700,0.0000,-2.3200,-6.3125,1.8750,5.8125,0.6974,-0.3314,0.5759,0.2686,
2025-03-13 20:40:44.153,9.5900,-0.0100,-2.3700,-4.5000,1.6250,5.5000,0.6971,-0.3319,0.5759,0.2687,
2025-03-13 20:40:44.156,9.5600,0.0300,-2.3900,-2.8125,0.6250,4.3125,0.6969,-0.3323,0.5760,0.2686,
2025-03-13 20:40:44.177,9.8300,0.0000,-2.2400,-1.5625,-1.1875,2.1875,0.6969,-0.3329,0.5757,0.2685,
2025-03-13 20:40:44.184,9.8500,0.0300,-2.2400,-1.7500,-0.2500,2.5000,0.6969,-0.3331,0.5756,0.2684,
2025-03-13 20:40:44.215,9.8000,0.0400,-2.2400,-1.5625,0.9375,2.1250,0.6969,-0.3334,0.5754,0.2685,
2025-03-13 20:40:44.215,9.7500,0.0200,-2.2600,-1.1250,1.9375,1.8750,0.6968,-0.3335,0.5754,0.2685,
2025-03-13 20:40:44.236,9.6100,0.0800,-2.2000,-0.5625,2.6250,1.2500,0.6968,-0.3335,0.5754,0.2685,
2025-03-13 20:40:44.236,9.5500,0.1000,-2.1000,-0.3750,2.6875,0.3750,0.6968,-0.3334,0.5755,0.2686,
2025-03-13 20:40:44.242,9.7300,0.0600,-2.1100,-0.8750,1.8125,-1.5625,0.6968,-0.3333,0.5754,0.2688,
2025-03-13 20:40:44.258,9.8500,0.0000,-2.1900,-1.8125,0.8750,-1.9375,0.6969,-0.3333,0.5753,0.2691,
2025-03-13 20:40:44.271,9.9700,0.0100,-2.2000,-1.7500,-0.3750,-2.0625,0.6970,-0.3333,0.5751,0.2692,
2025-03-13 20:40:44.271,9.9500,0.1400,-2.0100,-1.0625,-1.1875,0.8125,0.6970,-0.3334,0.5749,0.2693,
2025-03-13 20:40:44.281,9.9600,0.1400,-2.0000,-0.6875,-0.1250,1.5000,0.6970,-0.3335,0.5749,0.2693,
2025-03-13 20:40:44.293,10.0200,0.0500,-2.0900,-1.2500,0.0625,2.0625,0.6969,-0.3337,0.5749,0.2692,
2025-03-13 20:40:44.303,9.8800,0.1100,-2.1500,-1.5000,0.4375,2.5000,0.6968,-0.3339,0.5749,0.2692,
2025-03-13 20:40:44.354,9.7900,0.0800,-2.1100,-1.0000,1.0000,2.1250,0.6967,-0.3340,0.5749,0.2692,
2025-03-13 20:40:44.354,9.7400,0.0700,-2.1000,-1.1250,1.3750,1.2500,0.6967,-0.3341,0.5749,0.2693,
2025-03-13 20:40:44.354,9.7900,0.0500,-2.0700,-1.2500,1.8125,0.5000,0.6966,-0.3341,0.5749,0.2695,
2025-03-13 20:40:44.354,9.7500,0.0000,-2.1000,-1.0000,2.1875,-0.2500,0.6965,-0.3341,0.5750,0.2696,
2025-03-13 20:40:44.360,9.7700,0.0000,-2.1000,-1.0625,2.1875,-0.2500,0.6964,-0.3341,0.5750,0.2697,
2025-03-13 20:40:44.363,9.7900,0.0200,-2.0600,-1.4375,1.3750,0.1875,0.6964,-0.3341,0.5750,0.2698,
2025-03-13 20:40:44.370,9.8300,0.0000,-2.0400,-1.8125,1.0000,0.3750,0.6963,-0.3342,0.5750,0.2700,
2025-03-13 20:40:44.387,9.9000,0.0100,-2.1200,-2.4375,-0.1875,0.5000,0.6962,-0.3343,0.5749,0.2701,
2025-03-13 20:40:44.389,9.9000,0.0400,-2.0900,-2.3125,-0.0625,0.9375,0.6962,-0.3345,0.5748,0.2703,
2025-03-13 20:40:44.399,9.8900,0.0500,-2.1200,-2.0000,0.8750,1.4375,0.6961,-0.3346,0.5748,0.2703,
2025-03-13 20:40:44.457,9.8900,0.0700,-2.1300,-2.2500,1.4375,1.6250,0.6960,-0.3348,0.5748,0.2704,
2025-03-13 20:40:44.457,9.8400,0.0300,-2.1100,-2.0625,1.5625,2.0625,0.6959,-0.3350,0.5748,0.2705,
2025-03-13 20:40:44.457,9.7800,0.0600,-2.0500,-1.5000,1.3750,2.0625,0.6957,-0.3351,0.5749,0.2706,
2025-03-13 20:40:44.457,9.7600,0.0200,-2.0400,-1.2500,0.8125,1.8750,0.6956,-0.3353,0.5749,0.2706,
2025-03-13 20:40:44.457,9.7700,0.0800,-2.0400,-2.0625,0.8750,1.8125,0.6955,-0.3355,0.5749,0.2706,
2025-03-13 20:40:44.463,9.7800,0.0400,-2.1000,-2.3750,1.6250,1.7500,0.6954,-0.3356,0.5749,0.2708,
2025-03-13 20:40:44.473,9.8400,0.0000,-2.2000,-2.4375,1.8750,1.2500,0.6952,-0.3358,0.5749,0.2709,
2025-03-13 20:40:44.483,9.8300,0.0800,-2.1400,-2.7500,1.0000,1.2500,0.6952,-0.3359,0.5748,0.2711,
2025-03-13 20:40:44.493,9.8300,0.0700,-2.1500,-2.1875,0.6875,1.3125,0.6951,-0.3361,0.5748,0.2712,
2025-03-13 20:40:44.505,9.7600,0.0600,-2.2600,-1.9375,0.4375,1.0000,0.6951,-0.3362,0.5746,0.2712,
2025-03-13 20:40:44.515,9.7200,0.0500,-2.1700,-1.3125,0.8750,0.3750,0.6952,-0.3362,0.5745,0.2714,
2025-03-13 20:40:44.523,9.7300,0.0600,-2.1000,-0.6875,0.4375,0.0625,0.6952,-0.3363,0.5744,0.2714,
2025-03-13 20:40:44.546,9.8100,0.0100,-2.1200,-0.8750,-0.4375,-0.0625,0.6953,-0.3363,0.5743,0.2715,
2025-03-13 20:40:44.547,9.8500,0.0000,-2.1100,-1.4375,-0.5000,0.1875,0.6953,-0.3364,0.5742,0.2715,
2025-03-13 20:40:44.553,9.8800,0.0300,-2.1200,-1.5000,-0.1250,0.6250,0.6953,-0.3365,0.5741,0.2716,
2025-03-13 20:40:44.563,9.8600,0.0800,-2.0300,-1.1250,0.0625,0.6875,0.6953,-0.3366,0.5740,0.2717,
2025-03-13 20:40:44.570,9.9500,0.0900,-1.9900,-1.0625,0.6250,0.9375,0.6952,-0.3367,0.5740,0.2717,
