A1,,,,,,,,,,,
time,accx,accy,accz,gyrox,gyroy,gyroz,w1,w2,w3,w4,
2025-03-09 20:19:27.545,9.5100,0.4100,-0.4700,0.0000,-3.3125,-1.5625,85.8125,-177.8750,0.0000,222.2500,
2025-03-09 20:19:27.548,9.5200,0.3800,-0.5000,-0.3125,-4.9375,-1.5000,85.8125,-177.8750,0.0000,222.2500,
2025-03-09 20:19:27.602,9.5500,0.4400,-0.5400,-0.5000,-6.0000,-1.4375,85.6875,-177.8125,0.0000,222.3125,
2025-03-09 20:19:27.602,9.5500,0.3800,-0.6300,-0.5625,-6.8125,-1.0625,85.6250,-177.8125,0.0000,222.3125,
2025-03-09 20:19:27.602,9.5400,0.4000,-0.6600,-0.3125,-7.1875,-0.8750,85.5625,-177.8125,0.0000,222.3125,
2025-03-09 20:19:27.602,9.5600,0.3900,-0.6900,0.0000,-7.0625,-0.9375,85.5625,-177.8125,0.0000,222.3125,
2025-03-09 20:19:27.602,9.5500,0.3900,-0.6800,0.3750,-6.6250,-1.1250,85.5000,-177.8125,0.0000,222.3750,
2025-03-09 20:19:27.611,9.5200,0.4300,-0.7200,0.5000,-5.9375,-1.3750,85.3750,-177.7500,0.0000,222.3750,
2025-03-09 20:19:27.619,9.5400,0.4400,-0.7700,0.3750,-5.3125,-1.1250,85.3125,-177.7500,0.0000,222.3750,
2025-03-09 20:19:27.644,9.5400,0.4700,-0.7500,0.3125,-4.2500,-0.5625,85.3125,-177.7500,0.0000,222.3750,
2025-03-09 20:19:27.645,9.5500,0.3900,-0.7900,0.1875,-3.3125,0.0625,85.3125,-177.7500,0.0000,222.3750,
2025-03-09 20:19:27.648,9.5500,0.3900,-0.7900,0.4375,-2.6250,0.5000,85.2500,-177.7500,0.0000,222.4375,
2025-03-09 20:19:27.663,9.5600,0.4100,-0.8000,0.6250,-1.7500,0.1250,85.2500,-177.7500,0.0000,222.3750,
2025-03-09 20:19:27.669,9.5600,0.3500,-0.8000,0.7500,-0.5000,-0.1250,85.2500,-177.7500,0.0000,222.3750,
2025-03-09 20:19:27.680,9.5200,0.4100,-0.7800,1.0000,0.4375,-0.7500,85.1875,-177.7500,0.0000,222.3750,
2025-03-09 20:19:27.696,9.5200,0.4100,-0.7800,0.5625,1.6250,-0.8750,85.1875,-177.7500,0.0000,222.3750,
2025-03-09 20:19:27.698,9.5300,0.4500,-0.7600,0.0000,2.2500,-0.2500,85.2500,-177.7500,0.0000,222.5625,
2025-03-09 20:19:27.712,9.5500,0.4000,-0.7400,-0.1250,2.6250,0.5625,85.2500,-177.7500,0.0000,222.5625,
2025-03-09 20:19:27.735,9.5600,0.4000,-0.7100,0.0000,2.9375,0.4375,85.2500,-177.7500,0.0000,222.5625,
2025-03-09 20:19:27.736,9.5700,0.4000,-0.7200,0.0625,3.0000,0.1875,85.3125,-177.7500,0.0000,222.5625,
2025-03-09 20:19:27.740,9.5700,0.4000,-0.7200,0.2500,3.2500,0.3125,85.3125,-177.7500,0.0000,222.5625,
2025-03-09 20:19:27.755,9.5500,0.4700,-0.7100,0.2500,3.2500,0.3125,85.3125,-177.7500,0.0000,222.5000,
2025-03-09 20:19:27.762,9.5300,0.4300,-0.6700,0.4375,2.6250,2.2500,85.3750,-177.7500,0.0000,222.5000,
2025-03-09 20:19:27.771,9.5500,0.3700,-0.6500,0.3125,2.1250,2.4375,85.3750,-177.7500,0.0000,222.5000,
2025-03-09 20:19:27.781,9.5400,0.2700,-0.6200,0.0625,1.3125,1.7500,85.4375,-177.8125,0.0000,222.5000,
2025-03-09 20:19:27.801,9.5400,0.4500,-0.6400,0.1250,0.0625,-0.0625,85.4375,-177.8125,0.0000,222.4375,
2025-03-09 20:19:27.811,9.5200,0.4500,-0.6400,0.0625,-0.5000,0.6250,85.4375,-177.8125,0.0000,222.4375,
2025-03-09 20:19:27.821,9.5500,0.4000,-0.6600,-0.1875,-1.1875,0.7500,85.4375,-177.8125,0.0000,222.4375,
2025-03-09 20:19:27.841,9.5300,0.4500,-0.6500,0.0625,-1.5000,0.6250,85.4375,-177.8125,0.0000,222.4375,
2025-03-09 20:19:27.841,9.5500,0.4600,-0.6500,-0.0625,-2.1250,1.4375,85.4375,-177.8125,0.0000,222.4375,
2025-03-09 20:19:27.892,9.5700,0.4200,-0.6300,0.6875,-3.2500,2.9375,85.4375,-177.8750,0.0000,222.4375,
2025-03-09 20:19:27.892,9.5500,0.3300,-0.6700,1.0000,-3.9375,3.1875,85.3750,-177.8750,0.0000,222.3750,
2025-03-09 20:19:27.892,9.5700,0.2300,-0.6600,1.4375,-4.4375,2.1250,85.3750,-177.9375,0.0000,222.3125,
2025-03-09 20:19:27.901,9.5300,0.3300,-0.6300,2.3750,-4.6250,0.8125,85.3125,-177.9375,0.0000,222.3125,
2025-03-09 20:19:27.901,9.5400,0.3000,-0.6800,1.4375,-5.7500,-0.7500,85.2500,-177.9375,0.0000,222.3125,
2025-03-09 20:19:27.912,9.5500,0.3300,-0.7000,-0.1250,-6.3125,-1.0000,85.1875,-177.9375,0.0000,222.3125,
2025-03-09 20:19:27.995,9.5300,0.4600,-0.8000,-0.4375,-6.1250,-1.7500,85.0625,-177.9375,0.0000,222.3125,
2025-03-09 20:19:27.995,9.5800,0.4600,-0.8100,-0.2500,-5.5000,-1.2500,85.0000,-177.8750,0.0000,222.3750,
2025-03-09 20:19:27.995,9.5600,0.3900,-0.8400,0.1250,-3.3125,0.1875,85.0000,-177.8750,0.0000,222.3750,
2025-03-09 20:19:27.995,9.5400,0.4000,-0.8400,0.0000,-2.2500,0.4375,84.9375,-177.8750,0.0000,222.3750,
2025-03-09 20:19:27.995,9.5500,0.3900,-0.8500,-0.2500,-1.0625,0.6875,84.9375,-177.8750,0.0000,222.3750,
2025-03-09 20:19:27.995,9.5200,0.4200,-0.7900,-0.5000,0.2500,1.5000,84.9375,-177.9375,0.0000,222.3750,
2025-03-09 20:19:28.023,9.5500,0.3300,-0.8000,0.0000,0.6250,2.1875,84.9375,-177.9375,0.0000,222.3750,
2025-03-09 20:19:28.033,9.5600,0.1900,-0.7900,-0.1875,0.8750,1.6250,85.0000,-178.0000,0.0000,222.3125,
2025-03-09 20:19:28.058,9.5400,0.2000,-0.8000,-0.1875,0.8125,-2.0625,85.0000,-178.0000,0.0000,222.3125,
2025-03-09 20:19:28.073,9.5500,0.3600,-0.7700,0.0000,0.9375,-3.3750,85.0000,-177.9375,0.0000,222.3750,
2025-03-09 20:19:28.083,9.5400,0.4100,-0.7100,0.2500,0.5000,-2.5000,84.9375,-177.8750,0.0000,222.4375,
2025-03-09 20:19:28.098,9.5400,0.4200,-0.7300,-0.0625,0.0000,-1.6875,84.9375,-177.8750,0.0000,222.4375,
2025-03-09 20:19:28.108,9.5400,0.4300,-0.7300,-0.3125,-0.9375,-0.8750,84.9375,-177.8750,0.0000,222.4375,
2025-03-09 20:19:28.128,9.5200,0.3500,-0.7800,-0.4375,-1.3125,-1.0625,84.9375,-177.8125,0.0000,222.5000,
2025-03-09 20:19:28.148,9.5300,0.4200,-0.7700,-0.6875,-1.1250,-0.2500,84.8750,-177.8125,0.0000,222.5000,
2025-03-09 20:19:28.179,9.5500,0.4200,-0.8200,-1.1250,-0.8750,0.4375,84.8750,-177.8125,0.0000,222.5000,
2025-03-09 20:19:28.179,9.5300,0.3500,-0.8100,-1.7500,-0.6250,0.8125,84.8750,-177.8125,0.0000,222.5000,
2025-03-09 20:19:28.199,9.5500,0.3300,-0.8000,-1.5625,-0.1875,0.4375,84.8750,-177.8125,0.0000,222.5625,
2025-03-09 20:19:28.209,9.5500,0.3800,-0.7700,-0.8125,0.0625,-0.2500,84.8750,-177.8125,0.0000,222.5625,
2025-03-09 20:19:28.219,9.5700,0.4200,-0.7900,-0.4375,0.3125,-0.5625,84.8750,-177.8125,0.0000,222.5625,
2025-03-09 20:19:28.240,9.5500,0.4100,-0.8100,-0.6250,0.5000,0.0000,84.8750,-177.8125,0.0000,222.5625,
2025-03-09 20:19:28.250,9.5200,0.3300,-0.8000,-1.0000,0.6250,0.5625,84.8750,-177.8125,0.0000,222.6250,
2025-03-09 20:19:28.270,9.5200,0.4100,-0.8000,-0.1250,1.3750,0.5625,84.8750,-177.8125,0.0000,222.6250,
2025-03-09 20:19:28.300,9.5500,0.4000,-0.7700,-0.4375,0.9375,1.0000,84.9375,-177.8125,0.0000,222.6250,
2025-03-09 20:19:28.300,9.5300,0.3900,-0.7300,-0.9375,0.6875,1.5000,84.9375,-177.8125,0.0000,222.6250,
2025-03-09 20:19:28.300,9.5400,0.4200,-0.7700,-1.4375,0.5000,1.4375,84.9375,-177.8750,0.0000,222.6250,
2025-03-09 20:19:28.320,9.5500,0.4100,-0.8200,-1.5625,0.1250,1.7500,84.9375,-177.8750,0.0000,222.6250,
2025-03-09 20:19:28.330,9.5600,0.4600,-0.8300,-2.4375,1.0625,2.3750,85.0000,-177.9375,0.0000,222.6250,
2025-03-09 20:19:28.359,9.5300,0.4800,-0.7800,-3.6250,1.8125,3.3750,85.0000,-177.9375,0.0000,222.6250,
2025-03-09 20:19:28.359,9.5300,0.2700,-0.8100,-5.5625,2.1250,4.4375,85.0625,-178.0000,0.0000,222.6250,
2025-03-09 20:19:28.371,9.5500,0.2400,-0.8300,-5.3750,2.7500,3.9375,85.0625,-178.0000,0.0000,222.6250,
2025-03-09 20:19:28.381,9.5500,0.3100,-0.7900,-1.5625,4.2500,1.5000,85.1875,-178.0625,0.0000,222.6875,
2025-03-09 20:19:28.391,9.5600,0.3800,-0.7100,-2.1250,4.8125,0.8750,85.1875,-178.0625,0.0000,222.7500,
2025-03-09 20:19:28.421,9.5300,0.4000,-0.6900,-2.2500,5.0000,0.9375,85.2500,-178.0625,0.0000,222.7500,
2025-03-09 20:19:28.421,9.5300,0.3100,-0.7000,-2.6250,5.1250,1.3125,85.3125,-178.0625,0.0000,222.8125,
2025-03-09 20:19:28.431,9.5500,0.3100,-0.6900,-3.3125,4.6875,0.9375,85.3750,-178.0625,0.0000,222.8125,
2025-03-09 20:19:28.441,9.5500,0.3000,-0.7000,-2.3125,4.2500,0.3750,85.3750,-178.0625,0.0000,222.8125,
2025-03-09 20:19:28.441,9.5400,0.3400,-0.6700,-1.3750,4.0000,-0.1875,85.4375,-178.0625,0.0000,222.8750,
2025-03-09 20:19:28.501,9.5600,0.3800,-0.6800,-0.6250,3.6250,-0.1250,85.4375,-178.0625,0.0000,222.8750,
2025-03-09 20:19:28.501,9.5600,0.3600,-0.6700,-0.3750,3.5000,0.4375,85.5000,-178.0625,0.0000,222.8750,
2025-03-09 20:19:28.501,9.5400,0.3700,-0.6800,-0.4375,3.2500,0.9375,85.5000,-178.0625,0.0000,222.8750,
2025-03-09 20:19:28.501,9.5400,0.3300,-0.6400,-0.3750,2.2500,1.6250,85.5625,-178.1250,0.0000,222.8125,
2025-03-09 20:19:28.508,9.5400,0.3500,-0.6400,-0.8125,2.0625,1.6875,85.6250,-178.1250,0.0000,222.8125,
2025-03-09 20:19:28.513,9.5500,0.3100,-0.6700,-1.1250,1.7500,1.6250,85.6250,-178.1250,0.0000,222.8125,
2025-03-09 20:19:28.532,9.5600,0.3500,-0.6700,-1.3125,1.5625,1.5000,85.6250,-178.1875,0.0000,222.8125,
2025-03-09 20:19:28.542,9.6100,0.3600,-0.7000,-1.0000,1.5000,1.4375,85.6875,-178.1875,0.0000,222.8125,
2025-03-09 20:19:28.542,9.5800,0.4200,-0.6900,-0.5625,1.8125,2.0625,85.6875,-178.1875,0.0000,222.7500,
2025-03-09 20:19:28.562,9.5100,0.3600,-0.6900,-0.6250,2.5000,3.1250,85.7500,-178.2500,0.0000,222.7500,
2025-03-09 20:19:28.562,9.5000,0.2500,-0.6500,-0.6875,3.1250,3.5000,85.7500,-178.2500,0.0000,222.7500,
2025-03-09 20:19:28.573,9.4800,0.2500,-0.6200,-1.0625,3.5000,2.8125,85.8125,-178.3125,0.0000,222.6875,
2025-03-09 20:19:28.653,9.5100,0.2100,-0.5800,-1.3125,3.0000,1.7500,85.8750,-178.3125,0.0000,222.6875,
2025-03-09 20:19:28.653,9.5300,0.2800,-0.5500,-1.4375,2.1875,0.5000,85.8750,-178.3125,0.0000,222.6875,
2025-03-09 20:19:28.653,9.6000,0.3000,-0.6000,-2.1875,1.2500,-0.4375,85.8750,-178.3125,0.0000,222.7500,
2025-03-09 20:19:28.653,9.5900,0.3000,-0.6800,-2.3750,0.5625,-0.6875,85.8750,-178.3125,0.0000,222.7500,
2025-03-09 20:19:28.660,9.5800,0.3200,-0.6700,-1.9375,0.2500,-0.6250,85.8750,-178.3125,0.0000,222.8125,
2025-03-09 20:19:28.660,9.5400,0.2900,-0.6800,-1.0625,0.4375,-0.6875,85.8750,-178.2500,0.0000,222.8125,
2025-03-09 20:19:28.660,9.5200,0.2800,-0.6800,-0.5625,1.1875,-0.8125,85.8750,-178.2500,0.0000,222.8125,
2025-03-09 20:19:28.660,9.5300,0.2400,-0.6500,0.0000,1.7500,-0.8750,85.8750,-178.2500,0.0000,222.8125,
2025-03-09 20:19:28.663,9.5100,0.2700,-0.5800,-0.1875,2.1875,-1.6875,85.8750,-178.2500,0.0000,222.8750,
2025-03-09 20:19:28.683,9.5400,0.3500,-0.4900,-0.6875,1.7500,-2.1250,85.9375,-178.2500,0.0000,222.8750,
2025-03-09 20:19:28.683,9.5600,0.3100,-0.5400,-1.1250,0.8125,-2.1250,85.8750,-178.1875,0.0000,222.8750,
2025-03-09 20:19:28.693,9.5600,0.2900,-0.5400,-1.1250,-1.0000,-2.1875,85.8750,-178.1875,0.0000,222.9375,
2025-03-09 20:19:28.713,9.5300,0.4100,-0.6400,-0.8750,-2.1250,-2.5625,85.8750,-178.1250,0.0000,223.0000,
2025-03-09 20:19:28.713,9.5300,0.3900,-0.6700,-1.5625,-2.9375,-2.3125,85.8125,-178.1250,0.0000,223.0000,
2025-03-09 20:19:28.723,9.5300,0.3600,-0.6900,-2.3125,-2.9375,-1.3750,85.8125,-178.1250,0.0000,223.0625,
2025-03-09 20:19:28.743,9.5700,0.3600,-0.6900,-2.0000,-2.3125,-1.0000,85.7500,-178.1250,0.0000,223.0625,
2025-03-09 20:19:28.743,9.5700,0.3700,-0.6700,-1.1875,-1.7500,-0.5000,85.7500,-178.1250,0.0000,223.1250,
2025-03-09 20:19:28.793,9.5700,0.3600,-0.6800,-0.8125,-1.3750,0.0000,85.7500,-178.1250,0.0000,223.1250,
2025-03-09 20:19:28.793,9.5800,0.3600,-0.6500,-1.0625,-1.0000,0.3125,85.7500,-178.1250,0.0000,223.1250,
2025-03-09 20:19:28.793,9.5500,0.3900,-0.6300,-1.5625,-1.0000,0.8125,85.7500,-178.1250,0.0000,223.1250,
2025-03-09 20:19:28.793,9.5300,0.3700,-0.6400,-1.7500,-1.4375,0.9375,85.6875,-178.1250,0.0000,223.1250,
2025-03-09 20:19:28.793,9.5400,0.3700,-0.6400,-1.2500,-1.8750,1.8125,85.6875,-178.1250,0.0000,223.1250,
2025-03-09 20:19:28.803,9.5100,0.3400,-0.7200,-1.2500,-2.0625,2.3125,85.6875,-178.1875,0.0000,223.1250,
2025-03-09 20:19:28.813,9.5100,0.3200,-0.7300,-1.8125,-1.7500,2.5625,85.6875,-178.1875,0.0000,223.1250,
2025-03-09 20:19:28.823,9.5500,0.3400,-0.7200,-2.8125,-0.9375,2.6250,85.6875,-178.1875,0.0000,223.1250,
2025-03-09 20:19:28.833,9.5600,0.3000,-0.7400,-2.9375,-0.1875,2.3125,85.6875,-178.2500,0.0000,223.1250,
2025-03-09 20:19:28.843,9.5700,0.2800,-0.7500,-2.5625,0.6875,2.5625,85.7500,-178.2500,0.0000,223.1250,
2025-03-09 20:19:28.863,9.5400,0.3200,-0.7100,-2.2500,1.9375,2.0625,85.7500,-178.2500,0.0000,223.1250,
2025-03-09 20:19:28.863,9.5300,0.2600,-0.7000,-2.0625,2.7500,2.0000,85.7500,-178.3125,0.0000,223.1250,
2025-03-09 20:19:28.874,9.5400,0.2400,-0.6800,-1.9375,3.2500,1.9375,85.8125,-178.3125,0.0000,223.1250,
2025-03-09 20:19:28.894,9.5500,0.2900,-0.6300,-1.8750,3.6875,1.3125,85.8750,-178.3125,0.0000,223.1250,
2025-03-09 20:19:28.894,9.5500,0.2800,-0.6200,-1.6250,4.0000,0.9375,85.8750,-178.3125,0.0000,223.1250,
2025-03-09 20:19:28.905,9.5700,0.3300,-0.6100,-1.5000,4.1250,0.6875,85.9375,-178.3125,0.0000,223.1250,
2025-03-09 20:19:28.915,9.5700,0.3000,-0.6500,-1.4375,3.9375,0.9375,86.0000,-178.3125,0.0000,223.1875,
2025-03-09 20:19:28.925,9.5100,0.2800,-0.6400,-1.3750,3.6250,1.0000,86.0000,-178.3750,0.0000,223.1875,
2025-03-09 20:19:28.935,9.5000,0.2200,-0.6100,-1.1875,3.3750,0.7500,86.0625,-178.3750,0.0000,223.1875,
2025-03-09 20:19:28.955,9.5200,0.2700,-0.5600,-1.1875,3.5000,0.3125,86.0625,-178.3750,0.0000,223.1875,
2025-03-09 20:19:28.955,9.5800,0.3100,-0.5700,-1.4375,3.1250,-0.2500,86.1250,-178.3750,0.0000,223.1875,
2025-03-09 20:19:28.966,9.5700,0.3600,-0.5900,-1.8125,2.5000,-0.7500,86.1250,-178.3125,0.0000,223.1875,
2025-03-09 20:19:28.976,9.5700,0.3300,-0.6000,-1.8750,1.8750,-0.6875,86.1250,-178.3125,0.0000,223.2500,
2025-03-09 20:19:28.991,9.5400,0.3400,-0.5900,-1.4375,1.5625,-0.3750,86.1250,-178.3125,0.0000,223.2500,
2025-03-09 20:19:28.996,9.5300,0.3400,-0.6600,-1.3125,1.8750,0.0000,86.1875,-178.3125,0.0000,223.2500,
2025-03-09 20:19:29.016,9.5400,0.3800,-0.6100,-2.3125,2.2500,0.3750,86.1875,-178.3125,0.0000,223.3125,
2025-03-09 20:19:29.017,9.5700,0.3100,-0.5900,-3.8750,2.3750,0.7500,86.1875,-178.3125,0.0000,223.3125,
2025-03-09 20:19:29.027,9.5500,0.2700,-0.5900,-4.8125,2.3750,1.1875,86.2500,-178.3750,0.0000,223.3750,
2025-03-09 20:19:29.046,9.5300,0.2900,-0.5500,-3.5625,2.5625,1.0625,86.2500,-178.3750,0.0000,223.3750,
2025-03-09 20:19:29.046,9.5300,0.2800,-0.5300,-1.2500,2.5625,1.0000,86.3125,-178.3750,0.0000,223.3750,
2025-03-09 20:19:29.066,9.5500,0.2500,-0.5100,-0.5000,2.4375,1.1250,86.3125,-178.3750,0.0000,223.3750,
2025-03-09 20:19:29.086,9.5400,0.2600,-0.5200,-0.4375,1.7500,0.7500,86.3125,-178.3750,0.0000,223.3750,
2025-03-09 20:19:29.086,9.5600,0.2400,-0.5400,-0.5000,1.1250,0.3125,86.3125,-178.3750,0.0000,223.3750,
2025-03-09 20:19:29.086,9.5800,0.3300,-0.5100,-0.6250,0.5625,-0.0625,86.3125,-178.3750,0.0000,223.3750,
2025-03-09 20:19:29.100,9.5400,0.3600,-0.5600,-0.6875,-0.4375,0.0000,86.3125,-178.3750,0.0000,223.3750,
2025-03-09 20:19:29.109,9.5600,0.3300,-0.5500,-0.6875,-0.4375,0.0000,86.3125,-178.3750,0.0000,223.3750,
2025-03-09 20:19:29.119,9.5600,0.3000,-0.5800,-1.6875,-0.5000,0.3750,86.3125,-178.3750,0.0000,223.4375,
2025-03-09 20:19:29.129,9.5700,0.2900,-0.5600,-3.3750,-1.0000,1.1250,86.3125,-178.3750,0.0000,223.4375,
2025-03-09 20:19:29.139,9.5400,0.3100,-0.4900,-3.3125,-1.5625,1.3125,86.3125,-178.3750,0.0000,223.4375,
2025-03-09 20:19:29.139,9.5600,0.2400,-0.5100,-3.3750,-2.2500,1.5000,86.3125,-178.3750,0.0000,223.4375,
2025-03-09 20:19:29.161,9.5500,0.2200,-0.5000,-3.0000,-3.0000,0.7500,86.3125,-178.4375,0.0000,223.5000,
2025-03-09 20:19:29.169,9.5200,0.2500,-0.5900,-2.9375,-3.6875,0.0625,86.2500,-178.4375,0.0000,223.5000,
2025-03-09 20:19:29.180,9.5500,0.2800,-0.5900,-3.8750,-4.0625,-0.3125,86.2500,-178.4375,0.0000,223.5625,
2025-03-09 20:19:29.210,9.5500,0.2300,-0.6100,-4.6875,-4.5000,-0.5000,86.1875,-178.4375,0.0000,223.6250,
2025-03-09 20:19:29.210,9.6000,0.2600,-0.6300,-3.9375,-4.0625,-1.1875,86.1875,-178.4375,0.0000,223.6250,
2025-03-09 20:19:29.210,9.5500,0.1900,-0.7200,-1.6250,-3.1875,-2.0000,86.1250,-178.3750,0.0000,223.6875,
2025-03-09 20:19:29.230,9.5500,0.1300,-0.7200,-0.1875,-2.2500,-3.5000,86.0625,-178.3125,0.0000,223.7500,
2025-03-09 20:19:29.230,9.5200,0.2500,-0.6600,-0.1875,-0.8750,-5.3750,86.0625,-178.3125,0.0000,223.8125,
2025-03-09 20:19:29.230,9.5100,0.3800,-0.6300,-0.3125,-0.5625,-5.4375,86.0000,-178.2500,0.0000,223.8750,
2025-03-09 20:19:29.250,9.5100,0.3800,-0.6300,-0.5000,-0.9375,-4.3750,86.0000,-178.2500,0.0000,223.8750,
2025-03-09 20:19:29.250,9.5600,0.4300,-0.5700,-1.1250,-1.5000,-3.1875,86.0000,-178.1875,0.0000,223.8750,
2025-03-09 20:19:29.261,9.5700,0.3000,-0.6700,-1.4375,-1.1250,-3.1875,85.9375,-178.1250,0.0000,224.0000,
2025-03-09 20:19:29.281,9.5800,0.2800,-0.7000,-1.3125,-0.7500,-3.2500,85.9375,-178.1250,0.0000,224.0625,
2025-03-09 20:19:29.281,9.5700,0.3300,-0.6900,-0.8750,-0.0625,-3.6875,85.8750,-178.0625,0.0000,224.0625,
2025-03-09 20:19:29.291,9.5700,0.3300,-0.6900,-0.4375,0.6875,-3.8750,85.8750,-178.0625,0.0000,224.0625,
2025-03-09 20:19:29.321,9.5300,0.4000,-0.6400,-0.6250,1.1250,-2.5000,85.8750,-178.0000,0.0000,224.1250,
2025-03-09 20:19:29.321,9.5400,0.3500,-0.6400,-1.8125,0.7500,-1.1250,85.8750,-178.0000,0.0000,224.1250,
2025-03-09 20:19:29.321,9.5300,0.3100,-0.6300,-2.5000,0.6875,-0.6250,85.8750,-178.0000,0.0000,224.1875,
2025-03-09 20:19:29.341,9.5100,0.3600,-0.5900,-2.1875,0.7500,-0.8750,85.8750,-178.0000,0.0000,224.1875,
2025-03-09 20:19:29.351,9.5100,0.3600,-0.5900,-2.1875,0.7500,-0.8750,85.8750,-177.9375,0.0000,224.2500,
2025-03-09 20:19:29.421,9.5600,0.3800,-0.6200,-1.5000,0.8125,-1.2500,85.8750,-177.9375,0.0000,224.2500,
2025-03-09 20:19:29.421,9.6200,0.3800,-0.6000,-2.1250,0.4375,-0.1250,85.8750,-177.9375,0.0000,224.3125,
2025-03-09 20:19:29.421,9.5400,0.3700,-0.6200,-3.7500,0.1875,0.2500,85.8750,-177.9375,0.0000,224.3125,
2025-03-09 20:19:29.431,9.5100,0.3200,-0.6500,-3.1875,0.0000,-0.4375,85.8750,-177.9375,0.0000,224.3750,
2025-03-09 20:19:29.431,9.5100,0.3200,-0.6500,-3.1875,0.0000,-0.4375,85.8750,-177.9375,0.0000,224.3750,
2025-03-09 20:19:29.431,9.5400,0.3500,-0.6500,-1.5000,0.5625,-1.2500,85.8750,-177.9375,0.0000,224.4375,
2025-03-09 20:19:29.431,9.5900,0.3600,-0.6300,-1.0625,1.0000,-1.2500,85.8750,-177.9375,0.0000,224.4375,
2025-03-09 20:19:29.431,9.5600,0.3900,-0.6300,-0.8750,1.1250,-0.8125,85.8750,-177.8750,0.0000,224.4375,
2025-03-09 20:19:29.451,9.5400,0.3800,-0.6000,-0.8125,1.2500,-0.5000,85.9375,-177.8750,0.0000,224.5000,
2025-03-09 20:19:29.461,9.5200,0.4200,-0.5900,-0.8125,1.3125,-0.5000,85.9375,-177.8750,0.0000,224.5000,
2025-03-09 20:19:29.471,9.5600,0.4000,-0.6000,-1.1875,1.2500,-0.1875,85.9375,-177.8750,0.0000,224.5000,
2025-03-09 20:19:29.512,9.5200,0.4200,-0.5700,-3.0000,0.9375,0.2500,85.9375,-177.8750,0.0000,224.5625,
2025-03-09 20:19:29.522,9.5700,0.3600,-0.5700,-4.8750,0.4375,0.3125,85.9375,-177.8750,0.0000,224.6250,
2025-03-09 20:19:29.522,9.5600,0.3600,-0.6100,-3.3750,0.5000,0.1875,85.9375,-177.8750,0.0000,224.6875,
2025-03-09 20:19:29.542,9.5500,0.3900,-0.6100,-6.5625,0.3750,1.4375,85.9375,-177.8750,0.0000,224.7500,
2025-03-09 20:19:29.562,9.5500,0.4500,-0.5400,-7.6875,0.2500,2.0625,86.0000,-177.8750,0.0000,224.8750,
2025-03-09 20:19:29.582,9.5500,0.2800,-0.6200,-0.1250,0.4375,3.1875,86.0000,-177.9375,0.0000,224.8750,
2025-03-09 20:19:29.592,9.5600,0.3200,-0.6300,-0.6250,0.5625,1.7500,86.0000,-178.0000,0.0000,224.8125,
2025-03-09 20:19:29.622,9.5700,0.3600,-0.6800,-0.5000,0.8750,1.8125,86.0625,-178.0000,0.0000,224.7500,
2025-03-09 20:19:29.622,9.5400,0.3700,-0.7700,0.0000,3.3125,2.5000,86.0625,-178.0625,0.0000,224.7500,
2025-03-09 20:19:29.652,9.5300,0.3400,-0.7600,0.4375,7.3750,3.1875,86.1875,-178.0625,0.0000,224.6875,
2025-03-09 20:19:29.662,9.5800,0.3300,-0.5800,0.3750,9.0000,3.0625,86.3125,-178.1250,0.0000,224.6250,
2025-03-09 20:19:29.672,9.5800,0.3200,-0.5000,0.6250,9.5625,2.8125,86.4375,-178.1875,0.0000,224.5625,
2025-03-09 20:19:29.682,9.5100,0.2600,-0.4300,1.1250,8.2500,0.8750,86.6250,-178.2500,0.0000,224.5000,
2025-03-09 20:19:29.712,9.5600,0.2400,-0.3400,1.1250,6.5625,0.1250,86.7500,-178.2500,0.0000,224.5000,
2025-03-09 20:19:29.712,9.5800,0.3100,-0.3300,0.2500,2.9375,-1.0000,86.8125,-178.2500,0.0000,224.5000,
2025-03-09 20:19:29.742,9.5400,0.2900,-0.3900,-0.0625,0.8750,-1.8750,86.8125,-178.1875,0.0000,224.5000,
2025-03-09 20:19:29.762,9.5400,0.2800,-0.4100,0.0625,0.3750,-2.1250,86.8125,-178.1875,0.0000,224.5625,
2025-03-09 20:19:29.762,9.5500,0.2800,-0.3900,0.3125,-1.1250,-3.2500,86.7500,-178.1250,0.0000,224.5625,
2025-03-09 20:19:29.812,9.5500,0.3800,-0.4300,-0.8125,-3.1250,-2.7500,86.6875,-178.0625,0.0000,224.6250,
2025-03-09 20:19:29.812,9.5800,0.4500,-0.4700,-1.3125,-3.7500,-1.6875,86.6250,-178.0625,0.0000,224.6875,
2025-03-09 20:19:29.822,9.5500,0.3400,-0.5000,-1.4375,-4.0000,-0.7500,86.6250,-178.0000,0.0000,224.7500,
2025-03-09 20:19:29.832,9.5700,0.3300,-0.5000,-0.8750,-4.1250,-0.3750,86.5000,-178.0000,0.0000,224.7500,
2025-03-09 20:19:29.862,9.5300,0.3400,-0.4500,0.5000,-4.2500,-1.1250,86.4375,-178.0000,0.0000,224.7500,
2025-03-09 20:19:29.862,9.5500,0.3600,-0.4400,1.3125,-5.1250,-1.1250,86.3750,-178.0000,0.0000,224.7500,
2025-03-09 20:19:29.893,9.5500,0.3300,-0.5400,0.3750,-7.1250,-0.8750,86.3125,-178.0000,0.0000,224.8125,
2025-03-09 20:19:29.923,9.5500,0.3900,-0.6200,-0.3750,-7.1875,-1.0000,86.1875,-177.9375,0.0000,224.8125,
2025-03-09 20:19:29.923,9.5900,0.4200,-0.6600,-0.0625,-6.5625,-0.6875,86.1250,-177.9375,0.0000,224.8125,
2025-03-09 20:19:29.933,9.5500,0.3600,-0.7400,0.1875,-5.3125,-0.3125,86.0625,-177.9375,0.0000,224.8125,
2025-03-09 20:19:29.983,9.5300,0.3700,-0.6800,-0.3125,-2.7500,0.2500,86.0000,-177.9375,0.0000,224.8125,
2025-03-09 20:19:29.983,9.5300,0.3700,-0.6600,-0.3750,-1.4375,0.8125,86.0000,-177.9375,0.0000,224.8125,
2025-03-09 20:19:29.993,9.5400,0.3200,-0.6300,-0.2500,-0.6250,0.7500,86.0000,-177.9375,0.0000,224.8125,
2025-03-09 20:19:29.993,9.5600,0.3800,-0.6400,0.1250,0.1875,0.4375,86.0000,-177.9375,0.0000,224.8125,
2025-03-09 20:19:30.013,9.5300,0.3800,-0.6000,0.8125,0.7500,-0.0625,86.0000,-177.9375,0.0000,224.8125,
2025-03-09 20:19:30.013,9.5300,0.3600,-0.5800,0.6250,1.0000,-0.3750,86.0000,-177.9375,0.0000,224.8125,
2025-03-09 20:19:30.033,9.5600,0.4000,-0.6200,-0.1250,1.0000,-0.3125,86.0000,-177.9375,0.0000,224.8125,
2025-03-09 20:19:30.043,9.5400,0.3400,-0.6500,0.7500,1.6875,0.1250,86.0625,-177.9375,0.0000,224.8125,
2025-03-09 20:19:30.093,9.5600,0.3400,-0.6400,1.3750,2.5625,-0.1250,86.0625,-177.9375,0.0000,224.7500,
2025-03-09 20:19:30.093,9.6500,0.4100,-0.4100,1.5625,3.5625,-0.1875,86.1250,-178.0000,0.0000,224.7500,
2025-03-09 20:19:30.105,9.4700,0.5400,-0.7000,2.0000,7.6250,0.1250,86.1875,-178.0000,0.0000,224.7500,
2025-03-09 20:19:30.105,9.5400,0.4000,-0.6600,1.0625,10.1875,1.0000,86.2500,-178.0000,0.0000,224.6875,
2025-03-09 20:19:30.105,9.5900,0.4000,-0.5500,0.0000,7.8125,2.1250,86.3125,-178.0000,0.0000,224.6875,
2025-03-09 20:19:30.105,9.5200,0.4000,-0.4900,-0.0625,8.0000,2.4375,86.3750,-178.0000,0.0000,224.6250,
2025-03-09 20:19:30.125,9.5200,0.4700,-0.4500,-1.3750,8.5000,2.6250,86.5000,-178.0625,0.0000,224.6250,
2025-03-09 20:19:30.135,9.5200,0.3300,-0.4900,-1.7500,6.6250,3.7500,86.5625,-178.0625,0.0000,224.6250,
2025-03-09 20:19:30.135,9.5400,0.3300,-0.4000,-2.1250,5.3125,3.4375,86.6250,-178.1250,0.0000,224.6250,
2025-03-09 20:19:30.155,9.5500,0.2200,-0.4200,-2.4375,2.6250,2.5625,86.6875,-178.1250,0.0000,224.6250,
2025-03-09 20:19:30.155,9.5500,0.2300,-0.4200,-1.2500,0.3750,1.6875,86.6875,-178.1875,0.0000,224.6250,
2025-03-09 20:19:30.165,9.5300,0.3600,-0.3300,-0.5000,-1.0000,0.4375,86.6875,-178.1875,0.0000,224.6250,
2025-03-09 20:19:30.185,9.5400,0.3600,-0.4600,-1.1250,-2.6875,0.6875,86.6250,-178.1875,0.0000,224.6250,
2025-03-09 20:19:30.185,9.5300,0.3600,-0.4300,-2.5625,-4.1250,1.5625,86.6250,-178.1875,0.0000,224.6250,
2025-03-09 20:19:30.195,9.5600,0.3300,-0.4700,-4.2500,-5.2500,1.6875,86.5625,-178.1875,0.0000,224.6250,
2025-03-09 20:19:30.226,9.5700,0.2900,-0.4700,-4.7500,-6.0625,1.8125,86.5625,-178.1875,0.0000,224.6875,
2025-03-09 20:19:30.226,9.5800,0.2700,-0.4600,-4.5000,-6.6875,1.6250,86.5000,-178.2500,0.0000,224.6875,
2025-03-09 20:19:30.226,9.5300,0.3400,-0.5400,-4.5625,-7.5625,1.1250,86.4375,-178.2500,0.0000,224.7500,
2025-03-09 20:19:30.253,9.5100,0.3900,-0.5600,-5.3125,-7.6875,1.1250,86.3750,-178.2500,0.0000,224.8125,
2025-03-09 20:19:30.253,9.5400,0.4000,-0.5800,-6.1875,-8.0000,1.8750,86.3125,-178.2500,0.0000,224.8750,
2025-03-09 20:19:30.256,9.5800,0.3800,-0.6300,-7.8125,-7.8125,3.0000,86.2500,-178.2500,0.0000,224.8750,
2025-03-09 20:19:30.277,9.5700,0.3200,-0.6500,-8.5625,-7.3750,3.8750,86.1875,-178.3125,0.0000,224.9375,
2025-03-09 20:19:30.277,9.5900,0.3400,-0.6800,-7.7500,-6.0000,4.7500,86.1875,-178.3750,0.0000,225.0000,
2025-03-09 20:19:30.297,9.5400,0.3300,-0.6800,-7.6250,-4.8750,5.7500,86.1875,-178.3750,0.0000,225.0000,
2025-03-09 20:19:30.317,9.5600,0.2800,-0.7100,-6.8750,-3.5000,6.6250,86.1250,-178.4375,0.0000,225.0000,
2025-03-09 20:19:30.317,9.5300,0.2200,-0.7500,-6.4375,-1.6250,7.1875,86.1875,-178.5000,0.0000,225.0000,
2025-03-09 20:19:30.320,9.5400,0.1900,-0.7800,-6.3750,0.4375,6.6250,86.1875,-178.5625,0.0000,225.0000,
2025-03-09 20:19:30.337,9.5600,0.1800,-0.7600,-5.3750,2.2500,5.5625,86.2500,-178.6250,0.0000,225.0000,
2025-03-09 20:19:30.347,9.5700,0.2000,-0.7100,-4.5625,4.7500,4.7500,86.3125,-178.6875,0.0000,225.0000,
2025-03-09 20:19:30.347,9.6000,0.1600,-0.6500,-3.0625,6.8125,4.3750,86.3750,-178.7500,0.0000,225.0000,
2025-03-09 20:19:30.378,9.5800,0.2300,-0.5300,-1.5625,10.3750,3.5000,86.5000,-178.7500,0.0000,225.0000,
2025-03-09 20:19:30.387,9.5700,0.2200,-0.5000,-1.2500,14.1875,3.0625,86.6250,-178.8125,0.0000,224.9375,
2025-03-09 20:19:30.387,9.5300,0.2800,-0.6100,-2.2500,17.0000,3.2500,86.7500,-178.8125,0.0000,224.9375,
2025-03-09 20:19:30.387,9.5200,0.1800,-0.4800,-3.5625,16.5625,3.0625,86.9375,-178.8750,0.0000,224.9375,
2025-03-09 20:19:30.398,9.5200,0.1100,-0.4700,-3.5625,16.3750,2.0000,87.1250,-178.8750,0.0000,225.0000,
2025-03-09 20:19:30.408,9.5400,0.1700,-0.4600,-1.6250,16.5625,0.4375,87.2500,-178.8750,0.0000,225.0000,
2025-03-09 20:19:30.428,9.5500,0.1900,-0.3600,-0.3125,15.8125,0.0000,87.3750,-178.8750,0.0000,225.0000,
2025-03-09 20:19:30.428,9.5500,0.2600,-0.4200,0.6250,15.5625,0.3750,87.5000,-178.8750,0.0000,225.0000,
2025-03-09 20:19:30.438,9.5500,0.2200,-0.2800,0.6250,16.1875,0.3750,87.6250,-178.8750,0.0000,224.9375,
2025-03-09 20:19:30.464,9.5500,0.2300,-0.2200,-0.0625,14.3750,1.0000,87.8125,-178.8750,0.0000,224.9375,
2025-03-09 20:19:30.464,9.5300,0.2200,-0.1900,-0.8750,13.7500,1.3750,87.8750,-178.8750,0.0000,224.9375,
2025-03-09 20:19:30.468,9.5300,0.3000,-0.2000,-1.8750,11.8125,1.7500,88.0000,-178.8750,0.0000,224.9375,
2025-03-09 20:19:30.498,9.5600,0.2700,-0.2100,-2.6875,11.8750,1.7500,88.1250,-178.9375,0.0000,224.9375,
2025-03-09 20:19:30.498,9.5200,0.2900,-0.1300,-3.1250,11.0625,1.7500,88.1875,-178.9375,0.0000,224.9375,
2025-03-09 20:19:30.498,9.5000,0.2300,-0.1400,-3.9375,12.0625,1.7500,88.3125,-178.9375,0.0000,225.0000,
2025-03-09 20:19:30.528,9.6100,0.1700,-0.2300,-5.0000,13.3125,1.7500,88.4375,-179.0000,0.0000,225.0000,
2025-03-09 20:19:30.528,9.5100,0.1100,-0.1300,-6.5000,12.1250,2.5625,88.5625,-179.0000,0.0000,225.0625,
2025-03-09 20:19:30.528,9.5200,0.0900,-0.2600,-6.0000,12.8125,2.4375,88.6250,-179.0000,0.0000,225.0625,
2025-03-09 20:19:30.538,9.5600,0.0400,-0.1700,-4.0625,11.5625,2.1875,88.7500,-179.0625,0.0000,225.1250,
2025-03-09 20:19:30.581,9.5300,0.0200,-0.1900,-2.1875,8.9375,1.7500,88.8125,-179.0625,0.0000,225.1250,
2025-03-09 20:19:30.581,9.5300,0.1200,-0.1800,-0.3750,7.3125,0.6250,88.8750,-179.0625,0.0000,225.1250,
2025-03-09 20:19:30.581,9.5600,0.1400,-0.1700,0.1875,6.6875,0.0000,88.8750,-179.0625,0.0000,225.1250,
2025-03-09 20:19:30.589,9.5600,0.2100,-0.1000,-0.8750,6.4375,-0.1250,88.9375,-179.0625,0.0000,225.1250,
2025-03-09 20:19:30.589,9.5600,0.2900,-0.1300,-1.6875,7.3750,0.4375,88.9375,-179.0625,0.0000,225.1250,
2025-03-09 20:19:30.609,9.5900,0.1800,-0.1300,-3.1250,8.4375,2.1250,89.0000,-179.0625,0.0000,225.1250,
2025-03-09 20:19:30.609,9.5400,0.1000,-0.1100,-4.0625,8.7500,3.4375,89.0000,-179.0625,0.0000,225.1250,
2025-03-09 20:19:30.619,9.5200,0.1200,-0.1300,-4.3125,8.6250,3.1250,89.0625,-179.1250,0.0000,225.1250,
2025-03-09 20:19:30.639,9.5500,0.0900,-0.0900,-3.6875,9.1875,2.3750,89.1875,-179.1875,0.0000,225.1250,
2025-03-09 20:19:30.639,9.5600,0.0300,-0.1100,-3.1250,10.4375,1.5625,89.1875,-179.1875,0.0000,225.1875,
2025-03-09 20:19:30.649,9.5600,0.0800,0.0100,-3.3125,10.8125,1.0625,89.1875,-0.7500,0.0000,225.1875,
2025-03-09 20:19:30.669,9.5500,0.1200,0.0100,-3.4375,10.8750,0.8750,89.1875,-0.7500,0.0000,225.1875,
2025-03-09 20:19:30.669,9.5600,0.1000,0.0500,-3.0625,11.0000,0.6250,89.1875,-0.7500,0.0000,225.1875,
2025-03-09 20:19:30.679,9.5100,0.1300,0.1200,-2.3125,10.8125,0.5000,89.1250,-0.7500,0.0000,225.2500,
2025-03-09 20:19:30.749,9.5700,0.1900,0.0600,-1.1875,10.5625,0.2500,89.0625,-0.7500,0.0000,225.2500,
2025-03-09 20:19:30.749,9.4400,0.1300,0.0700,0.6250,10.0000,-0.2500,89.0000,-0.7500,0.0000,225.2500,
2025-03-09 20:19:30.749,9.5500,0.2100,0.1300,1.3750,9.8750,-0.6250,89.0000,-0.7500,0.0000,225.2500,
2025-03-09 20:19:30.749,9.5200,0.2100,0.1400,2.0000,9.5625,-0.7500,88.9375,-0.7500,0.0000,225.2500,
2025-03-09 20:19:30.749,9.5900,0.2700,0.1000,1.8750,10.2500,0.1875,88.8125,-0.7500,0.0000,225.1875,
2025-03-09 20:19:30.749,9.5800,0.1600,0.2000,1.0625,11.1250,1.0625,88.6875,-0.7500,0.0000,225.1875,
2025-03-09 20:19:30.749,9.6000,0.1500,0.1400,0.1875,12.5625,2.8125,88.6250,-0.6875,0.0000,225.1875,
2025-03-09 20:19:30.749,9.5200,0.0700,0.1400,-0.8125,13.6250,4.0000,88.6250,-0.6875,0.0000,225.1875,
2025-03-09 20:19:30.765,9.4600,0.0900,0.1900,-2.1875,14.6875,3.5000,88.5000,-0.6875,0.0000,225.1250,
2025-03-09 20:19:30.789,9.5400,0.0700,0.3000,-1.8125,15.8125,3.6250,88.3125,-0.6250,0.0000,225.1250,
2025-03-09 20:19:30.799,9.6400,0.1300,0.3300,-0.3750,16.6875,2.7500,88.1250,-0.5625,0.0000,225.0625,
2025-03-09 20:19:30.799,9.6300,0.0600,0.4100,1.3750,18.0625,1.6875,88.0000,-0.5625,0.0000,225.0625,
2025-03-09 20:19:30.819,9.7000,0.1100,0.4500,5.8750,20.0625,-1.8750,88.0000,-0.5625,0.0000,225.0625,
2025-03-09 20:19:30.829,9.5600,0.1800,0.4600,5.8750,20.0625,-1.8750,87.8125,-0.5625,0.0000,225.0000,
2025-03-09 20:19:30.829,9.5200,0.2300,0.4300,4.8750,20.0000,-2.9375,87.4375,-0.6250,0.0000,224.9375,
2025-03-09 20:19:30.880,9.4700,0.1900,0.4100,2.2500,19.4375,-1.5625,87.2500,-0.6250,0.0000,224.9375,
2025-03-09 20:19:30.880,9.3700,0.1200,0.4500,-3.9375,17.2500,2.6250,87.0625,-0.6250,0.0000,224.9375,
2025-03-09 20:19:30.880,9.3700,0.1200,0.4500,-4.7500,17.7500,5.1250,87.0625,-0.6250,0.0000,224.9375,
2025-03-09 20:19:30.880,9.3900,0.0700,0.4400,-4.9375,19.0000,7.1250,86.9375,-0.5625,0.0000,224.9375,
2025-03-09 20:19:30.880,9.5000,0.0300,0.4800,-3.5000,19.3125,7.5625,86.7500,-0.5000,0.0000,224.9375,
2025-03-09 20:19:30.890,9.6400,0.1100,0.6300,-2.0625,19.5625,6.2500,86.5625,-0.4375,0.0000,224.8750,
2025-03-09 20:19:30.920,9.6600,0.0800,0.6100,-0.6875,19.9375,5.1250,86.3750,-0.3750,0.0000,224.8125,
2025-03-09 20:19:30.920,9.6600,0.0800,0.6100,0.2500,20.6875,4.6250,86.1875,-0.3125,0.0000,224.7500,
2025-03-09 20:19:30.920,9.6700,0.0800,0.6700,1.1875,21.4375,4.1250,86.0000,-0.2500,0.0000,224.7500,
2025-03-09 20:19:30.953,9.6500,0.0600,0.7000,2.7500,21.2500,2.8750,85.8125,-0.1875,0.0000,224.6875,
2025-03-09 20:19:30.954,9.5700,0.0900,0.7100,4.2500,21.7500,2.2500,85.5625,-0.1875,0.0000,224.6250,
2025-03-09 20:19:30.954,9.5500,0.0500,0.7100,4.4375,23.0625,2.3125,85.3750,-0.1875,0.0000,224.5625,
2025-03-09 20:19:30.960,9.5500,0.0500,0.7100,3.1250,25.3750,2.1875,85.1875,-0.1250,0.0000,224.5000,
2025-03-09 20:19:30.965,9.4200,0.0100,0.7800,3.1250,25.3750,2.1875,84.9375,-0.1250,0.0000,224.4375,
2025-03-09 20:19:30.980,9.4600,0.0600,0.9100,1.8750,30.0000,1.5625,84.6250,-0.1250,0.0000,224.4375,
2025-03-09 20:19:30.990,9.5600,-0.0200,1.0100,2.1875,30.8750,1.1875,84.3750,-0.1250,0.0000,224.3750,
2025-03-09 20:19:31.000,9.5000,-0.0200,1.0800,0.3750,31.2500,2.1875,84.0625,-0.1250,0.0000,224.3750,
2025-03-09 20:19:31.030,9.4700,-0.0200,1.0800,-1.0625,31.3125,3.8125,83.4375,-0.0625,0.0000,224.3125,
2025-03-09 20:19:31.030,9.2200,0.1000,1.1200,-0.8125,32.2500,2.8125,83.1250,0.0000,0.0000,224.3125,
2025-03-09 20:19:31.065,9.2100,0.0800,1.2200,2.6875,32.6250,1.5000,82.5000,0.1250,0.0000,224.2500,
2025-03-09 20:19:31.065,9.2100,0.0400,1.3500,3.8750,33.8125,0.2500,81.8750,0.1875,0.0000,224.1875,
2025-03-09 20:19:31.083,9.3700,-0.0100,1.4700,-0.4375,34.5000,-1.1250,81.5625,0.1250,0.0000,224.1875,
2025-03-09 20:19:31.121,9.3000,0.0700,1.5900,-1.6250,35.8750,-2.2500,80.8750,-0.0625,0.0000,224.1875,
2025-03-09 20:19:31.126,9.3300,0.1200,1.5300,-2.6250,36.3125,-1.7500,80.1875,-0.2500,0.0000,224.2500,
2025-03-09 20:19:31.126,9.3700,0.0500,1.6900,0.0000,35.3125,-1.3125,79.8125,-0.3125,0.0000,224.3125,
2025-03-09 20:19:31.156,9.3600,-0.0300,1.8500,1.1250,34.7500,-1.1875,79.5000,-0.3750,0.0000,224.3125,
2025-03-09 20:19:31.156,9.3700,0.0100,1.8400,0.8750,35.5000,-0.3750,78.8125,-0.4375,0.0000,224.3125,
2025-03-09 20:19:31.196,9.3500,0.0500,1.8500,1.3750,36.0625,0.1250,78.4375,-0.4375,0.0000,224.3125,
2025-03-09 20:19:31.196,9.3000,0.0900,2.0200,2.4375,36.4375,1.7500,78.1250,-0.3750,0.0000,224.2500,
2025-03-09 20:19:31.196,9.2400,0.0000,2.1100,4.4375,39.6875,0.3750,77.3750,-0.2500,0.0000,224.1875,
2025-03-09 20:19:31.216,9.1600,0.0000,2.1900,4.3750,43.9375,-0.1250,76.5625,-0.3125,0.0000,224.2500,
2025-03-09 20:19:31.246,9.2900,-0.0100,2.3100,7.0000,56.1250,-0.5625,76.0625,-0.3750,0.0000,224.1875,
2025-03-09 20:19:31.246,9.1300,-0.0800,2.2600,5.8750,62.0625,3.0625,75.0000,-0.4375,0.0000,224.1250,
2025-03-09 20:19:31.266,9.3800,0.0600,2.6800,3.9375,65.5625,4.0000,73.7500,-0.2500,0.0000,223.9375,
2025-03-09 20:19:31.276,9.1400,0.0600,2.7100,6.8750,69.3750,1.6875,73.0625,-0.2500,0.0000,223.8750,
2025-03-09 20:19:31.306,9.0900,0.0600,3.2700,6.0000,73.4375,4.2500,71.7500,-0.1875,0.0000,223.7500,
2025-03-09 20:19:31.326,8.3700,0.0000,2.4500,8.0000,77.0000,4.0000,70.3125,-0.0625,0.0000,223.5625,
2025-03-09 20:19:31.326,9.5900,-0.0500,4.0800,9.4375,81.6250,-1.6250,69.5000,-0.1250,0.0000,223.5000,
2025-03-09 20:19:31.396,9.1600,-0.0300,4.1700,6.3125,79.8750,0.2500,67.9375,-0.3125,0.0000,223.4375,
2025-03-09 20:19:31.396,8.3100,0.1400,3.2800,8.8125,79.6875,0.8750,66.3750,-0.3750,0.0000,223.3750,
2025-03-09 20:19:31.396,8.6200,0.0100,3.9500,6.8750,79.3125,0.8125,65.6250,-0.4375,0.0000,223.3750,
2025-03-09 20:19:31.416,8.4800,0.1500,4.3000,-2.0625,76.6875,1.3750,64.0625,-0.4375,0.0000,223.2500,
2025-03-09 20:19:31.416,8.7500,0.1300,4.4800,-5.0625,73.0000,4.1250,62.6250,-0.2500,0.0000,223.3125,
2025-03-09 20:19:31.426,8.7900,-0.0400,5.1500,-9.1875,73.5000,5.6250,61.9375,-0.0625,0.0000,223.3125,
2025-03-09 20:19:31.456,8.0700,-0.1600,5.1400,-7.3750,67.2500,6.5625,60.5625,0.3750,0.0000,223.2500,
2025-03-09 20:19:31.477,8.5100,-0.0700,5.5900,-6.1875,72.0000,5.1250,59.2500,0.6250,0.0000,223.2500,
2025-03-09 20:19:31.477,7.5300,0.1000,4.7500,-1.1875,70.2500,5.0625,58.5625,0.7500,0.0000,223.1875,
2025-03-09 20:19:31.496,7.3500,-0.1000,4.7100,4.5000,76.6875,-0.8125,57.0625,0.6250,0.0000,223.1875,
2025-03-09 20:19:31.516,7.4600,0.1300,4.6800,8.0000,79.6250,-1.9375,55.5625,0.5000,0.0000,223.1250,
2025-03-09 20:19:31.537,7.2000,0.0800,4.9500,2.5625,82.0625,-2.3125,54.7500,0.4375,0.0000,223.1250,
2025-03-09 20:19:31.546,7.7000,-0.0400,6.4000,-5.8125,76.5000,0.5000,53.2500,0.5000,0.0000,223.1875,
2025-03-09 20:19:31.567,7.1400,0.0400,5.6400,-1.1875,71.8125,-0.9375,51.7500,0.5000,0.0000,223.1875,
2025-03-09 20:19:31.577,6.9700,-0.2200,6.2100,1.7500,72.3750,0.0625,51.0625,0.5000,0.0000,223.1875,
2025-03-09 20:19:31.607,6.6700,-0.0200,5.7000,1.1250,77.8125,1.3750,49.6250,0.4375,0.0000,223.1875,
2025-03-09 20:19:31.638,7.3300,-0.0700,6.6200,1.4375,85.5625,-0.5625,48.0000,0.4375,0.0000,223.1250,
2025-03-09 20:19:31.638,6.2800,0.1100,5.7000,1.5625,84.8750,-1.3125,47.1875,0.3750,0.0000,223.1875,
2025-03-09 20:19:31.638,6.2100,0.2200,5.8800,-1.9375,88.1875,-0.8750,46.3125,0.3750,0.0000,223.1875,
2025-03-09 20:19:31.658,6.6300,-0.0500,6.9000,-7.7500,96.0625,0.8750,44.5000,0.5000,0.0000,223.2500,
2025-03-09 20:19:31.667,6.3900,-0.0200,6.6800,-8.3125,99.5000,1.9375,43.5625,0.6250,0.0000,223.2500,
2025-03-09 20:19:31.687,6.1900,-0.1600,6.9400,-10.0625,103.7500,3.6250,42.5625,0.6875,0.0000,223.2500,
2025-03-09 20:19:31.687,6.2100,-0.1200,7.1000,-13.7500,104.8750,5.0000,41.5000,0.8750,0.0000,223.2500,
2025-03-09 20:19:31.697,5.8300,-0.1600,6.9100,-11.6875,111.2500,5.3125,40.4375,1.0000,0.0000,223.2500,
2025-03-09 20:19:31.707,5.5900,-0.2200,7.5000,-12.1250,120.4375,4.0625,39.2500,1.1250,0.0000,223.2500,
2025-03-09 20:19:31.717,5.5400,-0.2300,7.3500,-14.3750,128.0625,1.9375,38.0625,1.3125,0.0000,223.3125,
2025-03-09 20:19:31.727,5.0800,-0.2200,7.6300,-16.4375,141.2500,0.6250,36.6875,1.4375,0.0000,223.3750,
2025-03-09 20:19:31.747,5.1300,-0.1800,7.6700,-17.6250,150.3750,1.4375,35.1875,1.5625,0.0000,223.4375,
2025-03-09 20:19:31.757,4.7500,-0.3500,8.0300,-16.1875,155.8125,3.1875,33.6875,1.7500,0.0000,223.5000,
2025-03-09 20:19:31.757,4.5700,-0.3000,7.9900,-8.8125,159.3750,3.8750,32.1875,1.8125,0.0000,223.5000,
2025-03-09 20:19:31.787,4.3200,-0.2500,8.0600,-6.0625,156.0625,2.8125,30.6250,1.8750,0.0000,223.5000,
2025-03-09 20:19:31.787,3.9000,-0.2300,8.0800,-3.8750,148.9375,3.5625,29.1875,1.8750,0.0000,223.5000,
2025-03-09 20:19:31.807,3.7300,-0.1100,8.3900,-0.1875,143.5625,3.7500,27.8125,1.8750,0.0000,223.5000,
2025-03-09 20:19:31.817,3.6300,-0.0200,8.8300,1.6875,137.5625,3.8750,26.5000,1.8750,0.0000,223.4375,
2025-03-09 20:19:31.817,3.4800,-0.0800,8.7500,9.0000,133.1250,3.8125,25.1875,1.7500,0.0000,223.4375,
2025-03-09 20:19:31.817,3.3000,-0.1600,8.7900,14.6875,129.0000,3.0000,23.9375,1.6250,0.0000,223.3750,
2025-03-09 20:19:31.837,3.1100,-0.1900,8.6300,18.1250,121.2500,2.0625,22.7500,1.4375,0.0000,223.3125,
2025-03-09 20:19:31.837,3.0200,-0.1800,8.5600,21.1250,114.3750,0.8750,21.6875,1.2500,0.0000,223.3125,
2025-03-09 20:19:31.847,2.9300,-0.3400,8.7200,19.8125,109.0625,1.8125,20.6250,1.0625,0.0000,223.2500,
2025-03-09 20:19:31.868,2.7700,-0.2900,8.7300,16.1250,106.3750,3.6250,19.5625,0.8750,0.0000,223.1875,
2025-03-09 20:19:31.868,2.5900,-0.2000,8.8800,11.3750,107.0000,4.5625,18.5625,0.8125,0.0000,223.1250,
2025-03-09 20:19:31.878,2.4100,-0.2900,8.8800,3.1250,110.3125,5.1250,17.5000,0.7500,0.0000,223.0625,
2025-03-09 20:19:31.898,2.2300,-0.1700,9.1900,-2.9375,112.1875,4.7500,16.3750,0.8125,0.0000,223.0000,
2025-03-09 20:19:31.898,1.8500,-0.1100,9.3800,-3.0000,118.1250,1.8750,15.2500,0.8125,0.0000,223.0000,
2025-03-09 20:19:31.908,1.9200,-0.2700,9.4700,-1.2500,125.1250,0.4375,14.0625,0.8125,0.0000,223.0000,
2025-03-09 20:19:31.928,1.5300,-0.2300,9.3100,3.1875,132.3750,0.1875,12.7500,0.8125,0.0000,223.0000,
2025-03-09 20:19:31.928,1.3400,-0.2800,9.3700,8.1250,136.6250,1.2500,11.4375,0.7500,0.0000,223.0000,
2025-03-09 20:19:31.938,1.1200,-0.3200,9.4100,10.8750,138.4375,1.5625,10.1250,0.6250,0.0000,223.0000,
2025-03-09 20:19:31.968,0.9300,-0.2000,9.4700,10.0000,136.9375,1.3750,8.7500,0.5000,0.0000,223.0000,
2025-03-09 20:19:31.968,0.5600,-0.0900,9.7000,8.5000,134.2500,1.1875,7.5000,0.4375,0.0000,222.9375,
2025-03-09 20:19:31.968,0.6000,0.0500,9.4000,8.8750,127.3125,1.8750,6.2500,0.3750,0.0000,222.9375,
2025-03-09 20:19:31.988,0.3700,-0.1000,9.4300,8.5625,121.2500,2.8125,5.0625,0.2500,0.0000,222.9375,
2025-03-09 20:19:31.988,0.3000,-0.1500,9.3500,4.8125,114.3125,1.4375,3.9375,0.2500,0.0000,222.9375,
2025-03-09 20:19:31.998,0.1600,-0.0200,9.3100,2.1250,105.5000,-1.0000,2.9375,0.1875,0.0000,222.9375,
2025-03-09 20:19:32.028,-0.0200,-0.0800,9.4700,-0.9375,99.3750,-3.3750,2.0000,0.1875,0.0000,223.0000,
2025-03-09 20:19:32.028,-0.1000,-0.0800,9.5800,-3.9375,94.0625,-5.9375,1.0625,0.2500,0.0000,223.0000,
2025-03-09 20:19:32.028,-0.3700,-0.2900,9.8300,-5.8125,86.3750,-8.1875,0.2500,0.3125,0.0000,223.0625,
2025-03-09 20:19:32.048,-0.6700,-0.2700,9.4100,-8.7500,79.5000,-9.3750,-0.5000,0.3750,0.0000,223.1875,
2025-03-09 20:19:32.048,-0.5000,-0.2200,10.6600,-8.6875,73.6875,-9.1875,-1.1875,0.5000,0.0000,223.2500,
2025-03-09 20:19:32.058,-0.9600,-0.1000,8.9400,-0.8125,69.7500,-8.8750,-1.8750,0.5000,0.0000,223.3750,
2025-03-09 20:19:32.085,-1.1000,-0.0200,9.4800,0.6875,72.8750,-6.5000,-2.5625,0.5000,0.0000,223.4375,
2025-03-09 20:19:32.085,-1.1400,-0.2700,9.8700,9.1250,73.5625,-1.6250,-3.3125,0.3750,0.0000,223.4375,
2025-03-09 20:19:32.109,-1.0100,-0.0300,9.2900,11.2500,71.3750,4.1875,-4.0000,0.3125,0.0000,223.4375,
2025-03-09 20:19:32.109,-0.8800,-0.0600,9.3900,11.5000,69.6875,7.3125,-4.6250,0.1875,0.0000,223.3750,
2025-03-09 20:19:32.109,-1.2400,-0.3300,8.9600,10.5000,62.2500,8.3750,-5.2500,0.0625,0.0000,223.3125,
2025-03-09 20:19:32.118,-1.1700,-0.1000,10.0900,4.1875,57.8750,7.3750,-5.8125,0.0000,0.0000,223.1875,
2025-03-09 20:19:32.141,-1.2400,-0.1300,8.6500,6.6250,48.6250,4.4375,-6.3125,0.0000,0.0000,223.1875,
2025-03-09 20:19:32.141,-1.5200,-0.0800,9.5200,0.7500,46.1875,2.1875,-6.7500,0.0000,0.0000,223.1250,
2025-03-09 20:19:32.151,-1.6800,-0.2200,9.3100,2.4375,43.2500,0.8750,-7.1250,0.0000,0.0000,223.1250,
2025-03-09 20:19:32.171,-1.7900,-0.1300,10.1200,-1.0625,40.8125,1.8750,-7.5625,0.0000,0.0000,223.1250,
2025-03-09 20:19:32.183,-1.7700,-0.1800,9.5600,1.6875,33.5000,1.9375,-7.8750,-0.0625,0.0000,223.1250,
2025-03-09 20:19:32.183,-1.6500,-0.2500,9.4400,-0.1875,31.3125,3.0625,-8.1875,-0.0625,0.0000,223.1250,
2025-03-09 20:19:32.224,-1.5000,-0.1800,9.2100,0.9375,24.0000,3.7500,-8.4375,-0.0625,0.0000,223.0625,
2025-03-09 20:19:32.226,-1.6100,-0.1600,9.3200,2.2500,16.5625,1.8125,-8.5625,-0.0625,0.0000,223.0625,
2025-03-09 20:19:32.226,-1.7000,-0.0500,9.2800,0.8125,11.7500,1.6250,-8.6875,-0.1250,0.0000,223.0625,
2025-03-09 20:19:32.226,-1.8100,-0.0600,9.3600,1.0625,8.3750,1.0000,-8.6875,-0.1250,0.0000,223.0625,
2025-03-09 20:19:32.226,-1.8400,-0.0500,9.4200,0.8125,7.8750,1.1250,-8.7500,-0.1250,0.0000,223.0625,
2025-03-09 20:19:32.233,-2.0000,-0.1100,9.7200,1.1250,10.3750,2.3750,-8.9375,-0.1250,0.0000,223.0000,
2025-03-09 20:19:32.262,-1.9100,-0.1600,9.2400,0.0625,13.1875,2.3125,-9.0625,-0.1250,0.0000,223.0000,
2025-03-09 20:19:32.269,-2.0000,-0.2700,9.4700,2.5625,14.7500,4.0625,-9.1875,-0.1875,0.0000,222.9375,
2025-03-09 20:19:32.271,-1.8100,-0.0700,9.2900,-0.0625,13.1875,4.0625,-9.1875,-0.1875,0.0000,222.9375,
2025-03-09 20:19:32.283,-1.8800,-0.0800,9.3000,1.2500,12.1250,3.3750,-9.3750,-0.1875,0.0000,222.9375,
2025-03-09 20:19:32.283,-1.4400,-0.2200,8.3500,6.5625,15.9375,3.5000,-9.6875,-0.2500,0.0000,222.8750,
2025-03-09 20:19:32.293,-2.0300,-0.2200,9.3900,5.0625,22.3125,2.7500,-9.8750,-0.3125,0.0000,222.8125,
2025-03-09 20:19:32.324,-2.0000,-0.0400,9.2100,1.0625,17.3125,3.6250,-10.0625,-0.3125,0.0000,222.8125,
2025-03-09 20:19:32.324,-2.0900,0.0000,9.3200,1.6875,9.1875,0.8750,-10.0625,-0.3125,0.0000,222.8125,
2025-03-09 20:19:32.327,-2.0300,0.0700,9.3300,-0.3125,3.4375,0.3125,-10.1250,-0.3125,0.0000,222.8125,
2025-03-09 20:19:32.364,-2.0300,-0.0500,9.3600,0.5625,0.4375,1.0625,-10.1875,-0.3125,0.0000,222.7500,
2025-03-09 20:19:32.364,-2.0400,-0.0600,9.5400,1.6875,-1.0625,2.7500,-10.1250,-0.3750,0.0000,222.7500,
2025-03-09 20:19:32.364,-2.0900,-0.1200,9.5900,2.1875,-3.1250,3.6875,-10.1250,-0.3750,0.0000,222.7500,
2025-03-09 20:19:32.374,-2.1100,-0.1100,9.6000,0.0000,-4.3125,2.5625,-10.1250,-0.3750,0.0000,222.7500,
2025-03-09 20:19:32.374,-2.1100,-0.1100,9.6000,-2.1250,-5.1875,0.9375,-10.0625,-0.3750,0.0000,222.6875,
2025-03-09 20:19:32.384,-2.1000,0.0100,9.3900,-2.5000,-4.3125,-0.9375,-10.0000,-0.3125,0.0000,222.6875,
2025-03-09 20:19:32.414,-2.0800,0.0000,9.3200,-1.3125,-1.2500,-1.3125,-10.0000,-0.3125,0.0000,222.6875,
2025-03-09 20:19:32.414,-2.1100,0.0000,9.3200,-0.8125,1.6875,-0.9375,-10.0625,-0.3125,0.0000,222.6875,
2025-03-09 20:19:32.414,-2.1100,0.0000,9.3200,-0.5625,2.9375,-1.0625,-10.0625,-0.3125,0.0000,222.6875,
2025-03-09 20:19:32.434,-2.0200,-0.1200,9.2600,-0.8750,3.2500,-1.1250,-10.1250,-0.3125,0.0000,222.6875,
2025-03-09 20:19:32.434,-2.0300,-0.0800,9.2700,-1.0000,3.1250,-1.0625,-10.2500,-0.2500,0.0000,222.7500,
2025-03-09 20:19:32.470,-2.1100,-0.0400,9.3200,-1.3125,3.0625,-1.9375,-10.3125,-0.1875,0.0000,222.7500,
2025-03-09 20:19:32.470,-2.2100,-0.0500,9.4400,-2.5000,3.8125,-2.3750,-10.3750,-0.1875,0.0000,222.7500,
2025-03-09 20:19:32.470,-2.2100,-0.0500,9.4400,-1.7500,4.1875,-2.3125,-10.3750,-0.1875,0.0000,222.7500,
2025-03-09 20:19:32.485,-2.1300,-0.0500,9.3700,-0.9375,4.7500,-1.3125,-10.4375,-0.1250,0.0000,222.8125,
2025-03-09 20:19:32.485,-2.0700,-0.1800,9.4300,-0.5625,5.6250,-0.0625,-10.5625,-0.1250,0.0000,222.8125,
2025-03-09 20:19:32.515,-2.1000,-0.1800,9.4800,-0.5625,5.3125,0.5000,-10.6250,-0.1250,0.0000,222.8125,
2025-03-09 20:19:32.515,-2.0700,-0.1400,9.3500,-0.5625,4.4375,-0.0625,-10.6875,-0.1250,0.0000,222.8125,
2025-03-09 20:19:32.535,-2.0700,-0.1400,9.3500,-0.7500,3.3125,-1.0625,-10.7500,-0.1250,0.0000,222.8125,
2025-03-09 20:19:32.535,-2.1300,-0.0900,9.4300,-1.5000,2.0625,-1.5000,-10.8125,-0.0625,0.0000,222.8750,
2025-03-09 20:19:32.535,-2.0500,-0.1200,9.3100,-0.2500,0.7500,-1.0625,-10.8125,-0.0625,0.0000,222.8750,
2025-03-09 20:19:32.565,-2.0300,-0.1000,9.1900,1.6875,-0.5000,0.3125,-10.8750,-0.0625,0.0000,222.8750,
2025-03-09 20:19:32.565,-1.9800,-0.1800,9.2000,2.1250,-1.2500,0.9375,-10.8750,-0.0625,0.0000,222.8750,
2025-03-09 20:19:32.565,-1.9800,-0.1800,9.2000,0.4375,-4.9375,0.2500,-10.8750,-0.0625,0.0000,222.8750,
2025-03-09 20:19:32.595,-1.9800,-0.2100,9.2200,-1.0625,-8.3125,-0.8750,-10.8750,-0.0625,0.0000,222.8750,
2025-03-09 20:19:32.595,-2.0200,-0.0700,9.2400,-0.9375,-10.9375,-1.5625,-10.7500,-0.0625,0.0000,222.8750,
2025-03-09 20:19:32.595,-2.0400,0.0300,9.2900,0.0625,-12.3125,-1.8750,-10.6875,0.0000,0.0000,222.8750,
2025-03-09 20:19:32.623,-2.0400,0.0200,9.3500,0.7500,-12.6875,-1.6250,-10.5000,0.0000,0.0000,222.8750,
2025-03-09 20:19:32.627,-2.0200,-0.0200,9.3600,1.7500,-13.4375,-1.0000,-10.3750,0.0000,0.0000,222.9375,
2025-03-09 20:19:32.646,-1.8700,-0.1000,9.3100,1.0000,-16.6250,-1.8125,-10.2500,-0.0625,0.0000,222.9375,
2025-03-09 20:19:32.655,-1.8200,-0.2000,9.3900,0.6250,-18.5625,-1.2500,-10.0625,-0.0625,0.0000,222.9375,
2025-03-09 20:19:32.686,-1.7800,-0.2200,9.3000,1.0000,-20.5000,-0.1875,-9.7500,-0.0625,0.0000,222.9375,
2025-03-09 20:19:32.686,-1.7600,-0.2300,9.4600,0.8750,-21.2500,1.4375,-9.5625,-0.0625,0.0000,222.8750,
2025-03-09 20:19:32.686,-1.8300,-0.2000,9.5100,0.3125,-20.4375,3.6250,-9.3750,0.0000,0.0000,222.8750,
2025-03-09 20:19:32.716,-1.8500,-0.1900,9.6500,-0.6250,-20.0000,3.4375,-9.1875,0.0000,0.0000,222.8125,
2025-03-09 20:19:32.776,-1.7700,-0.1500,9.5700,-1.0625,-19.3125,3.0000,-8.8125,0.0000,0.0000,222.7500,
2025-03-09 20:19:32.776,-1.8100,-0.0700,9.6200,-2.1250,-18.2500,2.1250,-8.6875,0.0000,0.0000,222.6875,
2025-03-09 20:19:32.776,-1.7800,-0.0600,9.6500,-0.0625,-19.6875,2.2500,-8.5000,0.0000,0.0000,222.6875,
2025-03-09 20:19:32.776,-1.5600,-0.0700,9.3500,-1.0000,-22.3125,1.8125,-8.3750,0.0000,0.0000,222.6875,
2025-03-09 20:19:32.806,-1.5400,-0.1500,9.3600,-1.3750,-26.9375,1.1875,-7.8750,0.0000,0.0000,222.6250,
2025-03-09 20:19:32.806,-1.4700,-0.2600,9.3900,-0.5625,-32.3125,0.9375,-7.5625,0.0000,0.0000,222.6250,
2025-03-09 20:19:32.806,-1.3000,-0.2300,9.2100,0.0625,-42.0000,0.8125,-7.2500,0.0000,0.0000,222.6250,
2025-03-09 20:19:32.806,-1.2200,0.0300,9.2900,1.0625,-43.8125,-0.9375,-6.3750,0.0000,0.0000,222.6250,
2025-03-09 20:19:32.826,-1.3400,0.0200,9.4700,2.6250,-45.4375,-1.5625,-5.5625,0.0000,0.0000,222.6250,
2025-03-09 20:19:32.836,-1.4000,0.0300,9.6800,7.8125,-50.3125,-0.3125,-5.0625,0.0000,0.0000,222.6250,
2025-03-09 20:19:32.856,-0.8300,0.0800,9.5100,9.4375,-51.0625,2.2500,-4.0625,-0.1875,0.0000,222.6250,
2025-03-09 20:19:32.887,-0.6000,0.0900,9.4700,10.3750,-49.6875,2.1875,-3.1250,-0.3750,0.0000,222.5000,
2025-03-09 20:19:32.887,-0.5500,0.0000,9.5000,13.4375,-55.0625,3.3750,-2.6250,-0.5000,0.0000,222.5000,
2025-03-09 20:19:32.917,-0.5500,-0.0300,9.5400,9.3750,-71.6250,3.9375,-1.5000,-0.7500,0.0000,222.4375,
2025-03-09 20:19:32.938,-0.2600,0.2100,9.4200,4.3750,-76.0625,3.7500,-0.0625,-0.8750,0.0000,222.2500,
2025-03-09 20:19:32.938,-0.1200,0.1000,9.5400,-3.6875,-76.0625,2.2500,0.6250,-0.8750,0.0000,222.2500,
2025-03-09 20:19:32.971,0.0900,0.1100,9.7500,-7.5000,-69.9375,-3.3125,2.0625,-0.7500,0.0000,222.2500,
2025-03-09 20:19:32.978,0.2300,0.1600,9.5800,-6.8125,-66.5625,-4.1875,3.4375,-0.6250,0.0000,222.2500,
2025-03-09 20:19:32.988,0.2800,0.2800,9.5100,0.4375,-56.8750,0.1250,4.0000,-0.6250,0.0000,222.2500,
2025-03-09 20:19:33.009,0.6600,0.0300,9.2200,-3.5000,-51.0625,0.0000,5.0625,-0.6250,0.0000,222.2500,
2025-03-09 20:19:33.049,0.8100,-0.1400,9.4600,-7.4375,-56.1250,-0.9375,6.1250,-0.5000,0.0000,222.1875,
2025-03-09 20:19:33.049,0.9300,-0.1000,9.3200,-7.8750,-73.7500,-0.2500,6.7500,-0.4375,0.0000,222.2500,
2025-03-09 20:19:33.071,1.1400,-0.0200,9.4100,-5.3125,-97.2500,6.1250,8.2500,-0.3125,0.0000,222.2500,
2025-03-09 20:19:33.079,1.4500,0.0200,9.3400,-9.8750,-111.6250,9.6875,10.3125,-0.1250,0.0000,222.0000,
2025-03-09 20:19:33.089,1.5800,0.0100,9.6400,-11.6250,-124.1875,10.4375,11.5000,0.0000,0.0000,221.9375,
2025-03-09 20:19:33.128,2.0900,0.1000,9.1900,-8.6250,-135.3125,6.8125,14.0625,0.1875,0.0000,221.8125,
2025-03-09 20:19:33.139,2.4500,0.0000,8.8900,-3.8750,-138.9375,5.4375,16.7500,0.3125,0.0000,221.6250,
2025-03-09 20:19:33.139,2.7200,0.0000,8.6600,-1.3750,-145.8125,5.0000,18.1250,0.3125,0.0000,221.6250,
2025-03-09 20:19:33.158,3.0900,-0.0200,8.4300,2.3750,-156.4375,4.0625,21.1250,0.3125,0.0000,221.5000,
2025-03-09 20:19:33.189,3.6200,-0.0300,8.7100,-5.5625,-156.3125,-0.3750,24.1875,0.3750,0.0000,221.4375,
2025-03-09 20:19:33.189,3.8500,0.0100,8.5500,-6.3750,-150.3750,-1.5000,25.6250,0.4375,0.0000,221.5000,
2025-03-09 20:19:33.199,4.1000,-0.0700,8.5600,-5.3750,-139.2500,-2.3750,27.0000,0.5000,0.0000,221.5000,
2025-03-09 20:19:33.209,4.4300,0.0300,8.6200,-2.8750,-123.4375,-3.1250,29.4375,0.5625,0.0000,221.5625,
2025-03-09 20:19:33.219,4.6100,0.0500,8.3200,1.1250,-117.6875,-1.3125,30.5625,0.5625,0.0000,221.5625,
2025-03-09 20:19:33.259,4.6600,0.0800,8.2500,3.3750,-116.5625,0.3750,31.6875,0.5000,0.0000,221.5625,
2025-03-09 20:19:33.280,4.9600,-0.1100,8.0700,3.6875,-117.8750,1.4375,32.8125,0.5000,0.0000,221.5000,
2025-03-09 20:19:33.280,5.2100,0.1200,7.6500,11.5000,-136.4375,0.0625,35.3750,0.3750,0.0000,221.4375,
2025-03-09 20:19:33.280,5.5100,0.2500,7.4300,14.2500,-145.3125,-0.6875,36.8125,0.1875,0.0000,221.2500,
2025-03-09 20:19:33.290,5.5700,0.2800,7.6400,13.6875,-155.1875,0.4375,38.3125,0.0625,0.0000,221.1875,
2025-03-09 20:19:33.310,5.9700,0.1800,7.2200,12.3125,-165.3125,-0.2500,39.8750,0.0000,0.0000,221.1250,
2025-03-09 20:19:33.320,6.4400,0.0200,6.8100,8.6875,-161.3125,-4.7500,43.0625,-0.1875,0.0000,221.1250,
2025-03-09 20:19:33.350,6.5600,0.0300,6.7100,11.0625,-148.5000,-8.0625,44.5000,-0.3750,0.0000,221.1250,
2025-03-09 20:19:33.350,6.7100,0.0100,6.5800,13.5625,-141.8750,-11.4375,45.8750,-0.6875,0.0000,221.1875,
2025-03-09 20:19:33.350,6.8400,0.1200,6.3100,17.7500,-137.0625,-12.3750,47.1875,-1.0000,0.0000,221.2500,
2025-03-09 20:19:33.360,6.9400,0.1100,6.3000,20.0625,-133.8125,-11.7500,48.5000,-1.3125,0.0000,221.2500,
2025-03-09 20:19:33.362,7.1300,0.0100,5.8700,16.8125,-136.5625,-9.7500,49.8125,-1.6250,0.0000,221.3125,
2025-03-09 20:19:33.372,7.1800,0.0300,5.8700,12.0625,-134.7500,-6.1875,51.1250,-1.8750,0.0000,221.3125,
2025-03-09 20:19:33.424,7.5100,0.2600,5.8100,6.5000,-133.4375,-4.0000,52.3750,-2.0625,0.0000,221.3125,
2025-03-09 20:19:33.424,7.7500,0.2100,5.5600,6.4375,-128.2500,-3.9375,53.6250,-2.2500,0.0000,221.3750,
2025-03-09 20:19:33.424,7.7100,0.3400,5.4500,8.5625,-124.6875,-6.0625,54.8125,-2.4375,0.0000,221.3750,
2025-03-09 20:19:33.424,7.9900,0.3000,5.3100,8.7500,-119.5000,-7.1875,56.0000,-2.7500,0.0000,221.4375,
2025-03-09 20:19:33.424,8.1000,0.2100,5.1400,9.1250,-117.3750,-6.0625,57.1250,-3.0000,0.0000,221.3750,
2025-03-09 20:19:33.436,8.2000,0.1100,4.5900,4.8125,-120.0000,-6.1250,58.2500,-3.2500,0.0000,221.3750,
2025-03-09 20:19:33.464,8.2000,0.2500,4.7500,-2.0625,-121.6250,-5.9375,59.4375,-3.4375,0.0000,221.5000,
2025-03-09 20:19:33.464,8.5300,0.3500,4.5200,-4.4375,-119.5625,-7.8125,60.6250,-3.6250,0.0000,221.6250,
2025-03-09 20:19:33.464,8.5800,0.3500,4.3500,-2.0625,-119.6875,-10.6250,61.7500,-3.9375,0.0000,221.7500,
2025-03-09 20:19:33.496,8.6700,0.3600,4.3200,-0.4375,-116.7500,-10.6875,62.8750,-4.3125,0.0000,221.8125,
2025-03-09 20:19:33.496,8.6800,0.4100,4.1500,0.3125,-114.5000,-11.3125,63.9375,-4.6875,0.0000,221.9375,
2025-03-09 20:19:33.496,8.6700,0.4100,3.7900,1.9375,-112.0625,-11.1250,65.0625,-5.1250,0.0000,222.0625,
2025-03-09 20:19:33.526,8.5900,0.3800,3.5600,2.5000,-112.8750,-10.3750,66.1250,-5.6250,0.0000,222.1875,
2025-03-09 20:19:33.526,8.6200,0.3300,3.4000,3.3125,-114.7500,-5.9375,67.1875,-6.0625,0.0000,222.2500,
2025-03-09 20:19:33.526,8.8300,0.4400,3.3300,4.6250,-117.3750,-1.8750,68.3125,-6.4375,0.0000,222.3125,
2025-03-09 20:19:33.546,9.0500,0.5500,3.0100,5.7500,-116.1250,-0.8750,69.4375,-6.8750,0.0000,222.3125,
2025-03-09 20:19:33.546,9.0600,0.4100,2.9700,4.2500,-114.4375,0.2500,70.5625,-7.2500,0.0000,222.3125,
2025-03-09 20:19:33.557,9.0700,0.6600,2.9300,1.7500,-111.2500,0.5625,71.6250,-7.6875,0.0000,222.3125,
2025-03-09 20:19:33.577,9.1000,0.5600,2.7000,1.3750,-103.1250,1.1875,72.6250,-8.1250,0.0000,222.3125,
2025-03-09 20:19:33.577,9.1400,0.5100,2.4800,1.6875,-92.6250,1.0625,73.5000,-8.5000,0.0000,222.3125,
2025-03-09 20:19:33.609,9.3000,0.4500,2.4300,2.8125,-87.5000,0.7500,74.3125,-8.9375,0.0000,222.3125,
2025-03-09 20:19:33.618,9.3000,0.3100,2.0500,5.0000,-83.0625,0.1875,75.1250,-9.5000,0.0000,222.3125,
2025-03-09 20:19:33.618,9.3700,0.3000,2.0700,6.5000,-75.1250,-1.8125,75.8750,-10.1250,0.0000,222.3125,
2025-03-09 20:19:33.619,9.3000,0.3000,2.0400,8.5625,-69.2500,-4.1875,76.5000,-10.8125,0.0000,222.3125,
2025-03-09 20:19:33.640,9.3900,0.2500,1.6500,10.2500,-62.8750,-7.1875,77.0625,-11.7500,0.0000,222.3125,
2025-03-09 20:19:33.640,9.0700,0.0700,1.1000,9.5625,-59.3750,-8.3125,77.6250,-12.7500,0.0000,222.3125,
2025-03-09 20:19:33.640,9.5200,0.4200,1.7100,14.5625,-57.4375,-9.5625,78.1250,-13.8750,0.0000,222.3125,
2025-03-09 20:19:33.667,8.9500,0.4500,1.3000,11.0000,-53.6875,-10.1250,78.6250,-15.1250,0.0000,222.3750,
2025-03-09 20:19:33.667,9.5900,0.7200,1.5700,11.4375,-40.1875,-11.7500,79.0000,-16.3125,0.0000,222.3750,
2025-03-09 20:19:33.673,9.0800,0.6500,1.3100,5.5625,-38.3750,-9.8125,79.3125,-17.3750,0.0000,222.5000,
2025-03-09 20:19:33.711,9.1300,0.4100,1.1400,0.4375,-30.1250,-8.1250,79.5625,-18.3125,0.0000,222.5625,
2025-03-09 20:19:33.711,9.5700,0.6900,1.6900,1.6250,-28.3750,-6.8125,79.8125,-19.1250,0.0000,222.6250,
2025-03-09 20:19:33.711,9.4300,0.3000,0.9600,0.0625,-32.7500,-4.2500,80.0625,-19.9375,0.0000,222.6875,
2025-03-09 20:19:33.722,9.0300,0.7700,1.5100,5.3750,-32.6250,-8.3125,80.3750,-21.0625,0.0000,222.7500,
2025-03-09 20:19:33.731,9.5100,0.6800,0.9100,3.0625,-33.6875,-6.0625,80.6250,-22.1875,0.0000,222.8125,
2025-03-09 20:19:33.731,8.9500,1.0500,1.5300,3.1875,-35.0625,-4.5625,80.9375,-23.3750,0.0000,222.8750,
2025-03-09 20:19:33.761,9.6400,0.9800,0.8700,5.0625,-32.5625,-5.8750,81.1875,-24.5625,0.0000,222.9375,
2025-03-09 20:19:33.761,8.7500,0.5900,0.9600,1.5000,-38.0625,-4.1250,81.5000,-25.8125,0.0000,222.9375,
2025-03-09 20:19:33.801,9.8600,1.0100,1.3900,1.8750,-39.7500,-6.8125,81.8125,-27.4375,0.0000,223.0625,
2025-03-09 20:19:33.801,9.4200,0.6100,1.0700,-0.4375,-49.2500,-6.4375,82.1875,-29.4375,0.0000,223.1250,
2025-03-09 20:19:33.801,9.5300,0.6900,1.2100,2.0625,-46.8750,-5.4375,82.5625,-31.5625,0.0000,223.1875,
2025-03-09 20:19:33.801,9.5000,0.5800,0.9600,6.0625,-46.0000,-6.6250,82.9375,-33.9375,0.0000,223.2500,
2025-03-09 20:19:33.833,9.1900,0.6000,0.4200,15.8750,-44.6250,-10.1875,83.1875,-4.0000,0.0000,223.2500,
2025-03-09 20:19:33.846,9.0900,1.0100,0.3100,21.8125,-40.9375,-13.1875,83.4375,-4.1875,0.0000,223.1875,
2025-03-09 20:19:33.846,8.6000,0.9600,0.7900,17.3750,-34.3125,-13.3125,83.6250,-4.3125,0.0000,223.3125,
2025-03-09 20:19:33.846,9.7700,1.0100,0.2900,15.8125,-33.1250,-7.8125,83.7500,-4.3750,0.0000,223.2500,
2025-03-09 20:19:33.850,9.1900,0.8200,0.4700,11.2500,-33.2500,-5.5000,83.9375,-4.4375,0.0000,223.2500,
2025-03-09 20:19:33.853,9.5900,1.1300,0.6300,8.0000,-28.6875,-4.7500,84.1250,-4.5000,0.0000,223.2500,
2025-03-09 20:19:33.884,9.9500,1.0300,0.4400,10.7500,-33.1875,0.4375,84.3125,-4.5000,0.0000,223.1250,
2025-03-09 20:19:33.884,9.5100,0.9100,0.6200,8.9375,-29.5000,-0.6250,84.3125,-4.5000,0.0000,223.1250,
2025-03-09 20:19:33.884,9.8400,0.8900,0.3400,8.1875,-28.4375,-1.8750,84.4375,-4.5000,0.0000,223.1250,
2025-03-09 20:19:33.916,10.0800,0.8800,0.4100,7.2500,-35.1875,0.8750,84.7500,-4.5625,0.0000,223.0625,
2025-03-09 20:19:33.925,9.2600,0.6700,0.6700,2.8750,-31.8125,-0.2500,84.9375,-4.5625,0.0000,223.0625,
2025-03-09 20:19:33.926,9.6800,0.8500,0.0900,3.8125,-34.5625,0.5000,85.0625,-4.5625,0.0000,223.0625,
2025-03-09 20:19:33.937,9.1600,0.6100,0.4200,3.8750,-35.9375,2.6250,85.0625,-4.5625,0.0000,223.0625,
2025-03-09 20:19:33.937,9.9900,0.8900,-0.0300,2.9375,-30.8125,2.1250,85.1875,-4.5000,0.0000,223.0000,
2025-03-09 20:19:33.950,9.6500,0.6800,0.0700,3.5625,-33.2500,2.8750,85.3750,-4.5000,0.0000,222.9375,
2025-03-09 20:19:33.973,9.8000,0.9900,-0.0700,1.6250,-28.3750,1.0000,85.4375,-4.4375,0.0000,222.9375,
2025-03-09 20:19:33.978,9.6800,0.8100,-0.2400,2.1250,-31.4375,1.7500,85.5000,-4.4375,0.0000,222.9375,
2025-03-09 20:19:33.978,9.6800,0.8100,-0.2400,-2.6250,-29.3750,3.1875,85.5000,-4.4375,0.0000,222.9375,
2025-03-09 20:19:34.007,9.3300,0.8200,-0.0800,-4.4375,-29.3125,3.7500,85.5000,-175.5000,0.0000,223.0000,
2025-03-09 20:19:34.007,9.2100,0.6900,-0.3900,-5.1875,-32.5625,5.0625,85.5625,-175.6250,0.0000,223.0625,
2025-03-09 20:19:34.028,9.4400,0.7300,-0.3100,-8.0625,-28.6875,3.8750,85.5625,-175.6250,0.0000,223.1250,
2025-03-09 20:19:34.028,9.5300,0.7400,-0.2700,-7.9375,-26.0625,2.5625,85.5000,-175.6875,0.0000,223.1875,
2025-03-09 20:19:34.028,9.6700,0.7000,-0.5800,-6.1875,-25.6250,1.9375,85.5000,-175.6875,0.0000,223.1875,
2025-03-09 20:19:34.037,9.5000,0.7100,-0.4800,-6.6250,-24.4375,-0.5000,85.4375,-175.6875,0.0000,223.2500,
2025-03-09 20:19:34.059,9.6200,0.7700,-0.4800,-7.8750,-20.5625,-4.0625,85.3750,-175.6875,0.0000,223.3750,
2025-03-09 20:19:34.059,9.8000,0.8000,-0.6300,-7.1875,-18.8750,-6.8750,85.1250,-175.5625,0.0000,223.6250,
2025-03-09 20:19:34.069,9.5400,0.8000,-0.6200,-5.0625,-18.8125,-7.5000,85.0000,-175.5000,0.0000,223.7500,
2025-03-09 20:19:34.120,9.5400,0.8000,-0.6200,-4.8750,-16.2500,-8.1875,85.0000,-175.5000,0.0000,223.7500,
2025-03-09 20:19:34.120,9.7100,0.7700,-0.6700,-3.2500,-14.1250,-8.4375,84.8125,-175.4375,0.0000,224.0000,
2025-03-09 20:19:34.150,9.1300,0.8500,-0.5600,-2.3750,-12.6250,-9.6250,84.6875,-175.3125,0.0000,224.1250,
2025-03-09 20:19:34.150,9.9600,0.9700,-0.9600,-4.4375,-11.7500,-10.5625,84.5625,-175.2500,0.0000,224.3125,
2025-03-09 20:19:34.150,9.3700,0.9300,-0.6500,-1.1250,-11.3125,-9.1875,84.4375,-175.1250,0.0000,224.4375,
2025-03-09 20:19:34.150,9.3700,0.9300,-0.6500,-3.6250,-8.0000,-7.3125,84.2500,-175.0625,0.0000,224.5625,
2025-03-09 20:19:34.150,9.4000,1.0000,-0.7200,-4.8125,-6.4375,-2.7500,84.1875,-174.9375,0.0000,224.7500,
2025-03-09 20:19:34.150,10.0200,0.9700,-0.7700,-8.3125,-4.8750,-3.6875,84.1250,-174.9375,0.0000,224.8125,
2025-03-09 20:19:34.170,10.0400,0.9100,-0.7200,-5.4375,-5.4375,-3.9375,84.0625,-174.8750,0.0000,224.9375,
2025-03-09 20:19:34.173,9.9100,0.9000,-0.8300,-5.0000,-3.6250,-3.8750,84.0000,-174.8750,0.0000,225.0625,
2025-03-09 20:19:34.180,9.9100,0.9000,-0.8300,-5.3750,-2.2500,-2.1875,83.9375,-174.8125,0.0000,225.1250,
2025-03-09 20:19:34.190,9.5800,0.9700,-0.8100,-5.3750,-2.2500,-2.1875,83.9375,-174.8125,0.0000,225.4375,
2025-03-09 20:19:34.200,9.5800,0.9100,-0.7500,-5.8125,1.8750,-0.3125,83.8750,-174.7500,0.0000,225.5000,
2025-03-09 20:19:34.210,9.5700,0.9200,-0.6400,-4.8125,3.6875,0.5000,83.8750,-174.7500,0.0000,225.5625,
2025-03-09 20:19:34.240,9.4900,0.9800,-0.6100,-3.9375,5.0000,0.1875,83.9375,-174.7500,0.0000,225.6875,
2025-03-09 20:19:34.240,9.4500,0.9800,-0.6500,-4.6250,5.3750,-0.4375,84.0000,-174.7500,0.0000,225.6875,
2025-03-09 20:19:34.250,9.5800,1.0400,-0.5200,-4.3750,3.6250,1.5000,84.0000,-174.7500,0.0000,225.7500,
2025-03-09 20:19:34.273,9.4800,0.9800,-0.5600,-3.6250,2.9375,2.6875,84.0000,-174.7500,0.0000,225.7500,
2025-03-09 20:19:34.280,9.5100,0.9800,-0.5200,-3.3750,1.4375,3.7500,84.0625,-174.8125,0.0000,225.8125,
2025-03-09 20:19:34.304,9.5500,1.0100,-0.5200,-3.3750,0.3125,4.6875,84.1250,-174.8125,0.0000,225.8125,
2025-03-09 20:19:34.304,9.5000,0.9100,-0.6600,-4.5000,-0.7500,5.2500,84.1250,-174.8750,0.0000,225.7500,
2025-03-09 20:19:34.304,9.5200,0.9400,-0.5600,-5.0000,-2.0000,6.1875,84.1875,-174.9375,0.0000,225.7500,
2025-03-09 20:19:34.371,9.5600,0.8600,-0.6200,-5.1250,-2.4375,6.6875,84.2500,-175.0625,0.0000,225.7500,
2025-03-09 20:19:34.374,9.6000,0.8500,-0.6200,-4.7500,-2.3750,6.6250,84.3125,-175.1250,0.0000,225.8750,
2025-03-09 20:19:34.374,9.5500,0.8400,-0.6400,-4.3125,-2.6250,6.5000,84.3750,-175.1875,0.0000,225.8750,
2025-03-09 20:19:34.374,9.5500,0.8200,-0.6700,-3.6250,-2.0000,6.5625,84.3750,-175.1875,0.0000,225.8125,
2025-03-09 20:19:34.401,9.5400,0.8500,-0.7100,-4.0625,-1.3125,6.2500,84.4375,-175.3125,0.0000,225.8125,
2025-03-09 20:19:34.401,9.5300,0.9000,-0.7000,-4.1250,-0.5625,7.0000,84.5000,-175.3750,0.0000,225.8750,
2025-03-09 20:19:34.423,9.5800,0.8300,-0.7000,-3.3750,0.6875,8.0625,84.5625,-175.4375,0.0000,225.8125,
2025-03-09 20:19:34.423,9.6000,0.7200,-0.7000,-1.5625,3.6250,8.1875,84.6250,-175.5625,0.0000,225.8125,
2025-03-09 20:19:34.432,9.5300,0.6900,-0.6400,-0.9375,4.7500,10.3125,84.8125,-175.6875,0.0000,225.6250,
2025-03-09 20:19:34.453,9.4500,0.7800,-0.6300,-1.0625,4.7500,12.5625,84.9375,-175.8125,0.0000,225.6875,
2025-03-09 20:19:34.453,9.5200,0.8200,-0.5800,-2.3750,3.7500,15.6250,85.0625,-176.0000,0.0000,225.5625,
2025-03-09 20:19:34.483,9.6200,0.6700,-0.6000,-3.7500,2.6250,18.0000,85.2500,-176.1250,0.0000,225.4375,
2025-03-09 20:19:34.483,9.6400,0.4300,-0.6300,-3.8750,2.9375,15.8125,85.5000,-176.5000,0.0000,225.1875,
2025-03-09 20:19:34.483,9.5700,0.4400,-0.6100,-3.1875,3.3125,14.2500,85.6250,-176.6250,0.0000,225.3750,
2025-03-09 20:19:34.513,9.5400,0.5100,-0.5800,-1.2500,1.6250,18.1250,85.7500,-176.7500,0.0000,225.2500,
2025-03-09 20:19:34.523,9.6300,0.6700,-0.5100,-1.4375,1.0000,22.1875,86.0625,-177.1250,0.0000,224.9375,
2025-03-09 20:19:34.543,9.6000,0.3300,-0.5600,-1.5625,0.6250,22.9375,86.3750,-177.5625,0.0000,224.5625,
2025-03-09 20:19:34.543,9.5900,0.3000,-0.5400,-0.4375,1.0000,24.8125,86.5625,-177.8125,0.0000,224.3125,
2025-03-09 20:19:34.585,9.5400,0.2900,-0.5600,3.5625,2.2500,33.1250,86.7500,-178.0625,0.0000,224.0625,
2025-03-09 20:19:34.585,9.5000,0.1500,-0.5200,3.8750,3.1875,37.7500,87.1250,-178.7500,0.0000,223.3125,
2025-03-09 20:19:34.594,9.7000,0.3200,-0.4700,1.3125,4.0625,40.5000,87.3125,-179.1875,0.0000,222.8750,
2025-03-09 20:19:34.602,9.5100,0.0700,-0.5400,-1.1250,4.0000,40.7500,87.4375,-179.5625,0.0000,222.5000,
2025-03-09 20:19:34.604,9.5300,0.0200,-0.5600,-4.8125,3.8125,40.1250,87.5000,-179.9375,0.0000,222.1875,
2025-03-09 20:19:34.636,9.6600,-0.1900,-0.5600,-6.3750,4.5000,35.5000,87.5000,179.3125,0.0000,221.6250,
2025-03-09 20:19:34.636,9.5900,-0.2400,-0.5600,-6.6875,4.6250,34.5000,87.4375,178.9375,0.0000,221.3750,
2025-03-09 20:19:34.665,9.5700,-0.4000,-0.6100,-6.5000,4.3750,34.0000,87.3125,178.6250,0.0000,221.1250,
2025-03-09 20:19:34.665,9.5600,-0.2800,-0.5100,-5.4375,3.8125,38.3125,87.0000,177.9375,0.0000,220.5625,
2025-03-09 20:19:34.700,9.5100,-0.4400,-0.3800,-4.8750,3.4375,40.2500,86.4375,177.1875,0.0000,219.8750,
2025-03-09 20:19:34.700,9.5800,-0.4900,-0.4100,-6.0000,3.0625,42.2500,86.1250,176.8125,0.0000,219.5000,
2025-03-09 20:19:34.721,9.4500,-0.5800,-0.5200,-8.4375,2.9375,42.2500,85.8125,176.3750,0.0000,219.1875,
2025-03-09 20:19:34.728,9.4500,-0.7200,-0.5000,-9.0625,2.7500,41.7500,85.1250,175.6250,0.0000,218.5625,
2025-03-09 20:19:34.738,9.4900,-0.8000,-0.5000,-7.9375,2.6250,40.8125,84.7500,175.1875,0.0000,218.2500,
2025-03-09 20:19:34.747,9.5500,-1.0100,-0.4500,-5.6875,2.1250,40.3125,84.4375,174.8125,0.0000,217.9375,
2025-03-09 20:19:34.758,9.4400,-1.0000,-0.5100,-3.1250,1.8750,38.5625,84.0625,174.4375,0.0000,217.6250,
2025-03-09 20:19:34.790,9.5200,-0.8700,-0.4000,-0.3125,1.3125,36.6250,83.4375,173.7500,0.0000,216.8750,
2025-03-09 20:19:34.790,9.5300,-0.8200,-0.3800,-2.0625,1.0625,37.3750,83.0625,106.8125,0.0000,216.6250,
2025-03-09 20:19:34.800,9.5000,-0.8500,-0.4000,-4.2500,1.0625,40.6250,82.7500,106.0000,0.0000,216.3125,
2025-03-09 20:19:34.809,9.5100,-0.9000,-0.4200,-5.2500,1.1875,43.6250,82.3125,105.1875,0.0000,215.9375,
2025-03-09 20:19:34.820,9.4000,-1.3100,-0.5600,-4.6875,1.7500,45.8125,81.9375,104.3125,0.0000,215.5625,
2025-03-09 20:19:34.841,9.3900,-1.6500,-0.4700,3.5000,3.2500,45.6250,81.0625,102.5625,0.0000,214.6875,
2025-03-09 20:19:34.850,9.0100,-1.5500,-0.5500,7.9375,4.8125,41.1875,80.6875,101.6875,0.0000,214.1875,
2025-03-09 20:19:34.882,9.0800,-1.5000,-0.3300,12.5000,6.5625,44.2500,79.8750,99.8125,0.0000,213.1875,
2025-03-09 20:19:34.892,9.2900,-1.6700,-0.2600,10.0625,5.0625,48.7500,79.0000,98.2500,0.0000,212.0625,
2025-03-09 20:19:34.892,9.1000,-1.6900,-0.3700,8.2500,3.9375,47.4375,78.5625,97.6875,0.0000,211.5625,
2025-03-09 20:19:34.912,9.0100,-1.7600,-0.4300,7.5625,3.9375,45.8125,78.1250,97.1875,0.0000,211.0625,
2025-03-09 20:19:34.926,9.1200,-1.7900,-0.3400,6.1875,4.2500,46.3750,77.6875,96.6875,0.0000,210.5625,
2025-03-09 20:19:34.934,9.2600,-1.8600,-0.2700,5.6875,4.1875,46.9375,77.2500,96.2500,0.0000,210.0625,
2025-03-09 20:19:34.934,9.3400,-2.0600,-0.2300,4.8750,3.5625,45.7500,76.8125,95.8750,0.0000,209.6250,
2025-03-09 20:19:34.996,9.3500,-2.2300,-0.2300,3.0000,1.5000,44.4375,76.3750,95.5625,0.0000,209.1875,
2025-03-09 20:19:34.996,9.1500,-2.4300,-0.2500,1.6250,-0.5625,44.3750,75.9375,95.3750,0.0000,208.7500,
2025-03-09 20:19:34.996,9.1000,-2.3900,-0.2300,-0.6250,-2.5000,45.6875,75.5000,95.3125,0.0000,208.3125,
2025-03-09 20:19:34.996,9.0400,-2.3800,-0.2900,-1.3750,-2.8125,47.0000,75.0625,95.3125,0.0000,207.8125,
2025-03-09 20:19:34.996,9.0000,-2.5300,-0.2400,-0.7500,-2.5625,48.8125,74.5625,95.2500,0.0000,207.3750,
2025-03-09 20:19:35.015,9.1700,-2.6100,-0.2300,-1.5000,-2.1250,51.3750,74.0625,95.1875,0.0000,206.8750,
2025-03-09 20:19:35.015,9.1700,-2.7300,-0.2700,-3.0000,-2.8125,52.8750,73.5625,95.1250,0.0000,206.3750,
2025-03-09 20:19:35.015,9.0500,-2.7600,-0.3000,-1.9375,-3.5625,53.3125,73.0625,95.1250,0.0000,205.8750,
2025-03-09 20:19:35.027,8.9200,-2.6100,-0.2400,-1.3750,-4.1875,55.1250,72.5000,95.0625,0.0000,205.3750,
2025-03-09 20:19:35.057,9.0400,-2.7200,-0.2600,-3.0625,-4.5625,59.3125,71.9375,95.1250,0.0000,204.8125,
2025-03-09 20:19:35.077,8.8600,-2.9600,-0.3800,-3.5625,-6.3125,60.0000,71.3750,95.1875,0.0000,204.2500,
2025-03-09 20:19:35.077,8.8400,-3.1300,-0.4500,-2.6875,-7.6250,59.5625,70.8125,95.2500,0.0000,203.6875,
2025-03-09 20:19:35.077,8.7600,-3.2800,-0.4600,-4.3750,-7.8750,58.0000,70.2500,95.3750,0.0000,203.1250,
2025-03-09 20:19:35.078,8.6400,-3.2900,-0.5400,-4.5000,-7.1875,55.6250,69.6875,95.4375,0.0000,202.5625,
2025-03-09 20:19:35.087,8.8000,-3.4800,-0.4600,-3.1875,-6.0625,56.0625,69.1250,95.5000,0.0000,202.0000,
2025-03-09 20:19:35.097,8.8500,-3.5000,-0.4700,-2.1875,-5.4375,56.8125,68.5625,95.5000,0.0000,201.4375,
2025-03-09 20:19:35.107,8.7400,-3.5800,-0.4400,-0.1250,-5.6250,58.5000,68.0000,95.5000,0.0000,200.8750,
2025-03-09 20:19:35.117,8.8300,-3.6600,-0.3500,2.4375,-5.8125,63.3125,67.3750,95.5000,0.0000,200.1875,
2025-03-09 20:19:35.136,8.6200,-3.5700,-0.3600,4.4375,-7.0000,66.1875,66.7500,95.5000,0.0000,199.5000,
2025-03-09 20:19:35.146,8.5100,-3.7800,-0.4200,9.2500,-8.5000,69.3125,66.0625,95.4375,0.0000,198.6875,
2025-03-09 20:19:35.156,8.4900,-3.8400,-0.3600,12.3125,-8.5000,72.8125,65.3750,95.3125,0.0000,197.8125,
2025-03-09 20:19:35.187,8.3900,-4.0000,-0.3800,11.8750,-8.3750,76.1875,64.6250,95.2500,0.0000,196.9375,
2025-03-09 20:19:35.187,8.2600,-4.2900,-0.4200,10.1250,-8.3750,81.2500,63.8125,95.1875,0.0000,196.0625,
2025-03-09 20:19:35.187,8.3100,-4.3200,-0.3800,6.2500,-8.0625,85.1875,63.0000,95.1250,0.0000,195.1250,
2025-03-09 20:19:35.288,8.2300,-4.4000,-0.4200,2.8125,-8.1875,85.6250,62.1875,95.1250,0.0000,194.1875,
2025-03-09 20:19:35.288,8.2100,-4.4700,-0.4500,2.4375,-8.9375,81.7500,61.3750,95.1250,0.0000,193.3750,
2025-03-09 20:19:35.288,7.9200,-4.6900,-0.4800,3.5000,-9.6250,78.4375,60.6250,95.1250,0.0000,192.5000,
2025-03-09 20:19:35.288,7.7800,-4.7100,-0.5500,2.1875,-9.4375,76.8125,59.8750,95.1250,0.0000,191.6875,
2025-03-09 20:19:35.288,7.8700,-4.7100,-0.4500,-2.1875,-8.1875,77.3125,59.1250,95.1875,0.0000,190.9375,
2025-03-09 20:19:35.288,7.7800,-4.6500,-0.5200,-6.5000,-8.6250,79.4375,58.3125,95.2500,0.0000,190.2500,
2025-03-09 20:19:35.298,7.7700,-4.6300,-0.5400,-7.2500,-9.3750,82.0000,57.5625,95.3750,0.0000,189.4375,
2025-03-09 20:19:35.298,7.7500,-4.8100,-0.5200,-4.7500,-9.8125,86.1875,56.6875,95.4375,0.0000,188.6250,
2025-03-09 20:19:35.298,7.6400,-5.0500,-0.5500,-2.1875,-10.1250,90.8125,55.8125,95.4375,0.0000,187.6875,
2025-03-09 20:19:35.298,7.4900,-5.5400,-0.6000,-0.8125,-10.5000,96.3125,54.8750,95.5000,0.0000,186.6875,
2025-03-09 20:19:35.298,7.3200,-5.7800,-0.6200,1.6250,-10.0625,99.8125,53.8750,95.5000,0.0000,185.7500,
2025-03-09 20:19:35.298,7.1700,-5.9900,-0.6600,4.3750,-9.3750,97.8125,52.9375,95.4375,0.0000,184.6875,
2025-03-09 20:19:35.318,6.9500,-5.9100,-0.6800,5.5625,-7.6875,93.2500,52.0625,95.3750,0.0000,183.6875,
2025-03-09 20:19:35.350,6.9200,-5.8900,-0.6400,6.3125,-4.9375,90.8125,51.1875,95.2500,0.0000,182.7500,
2025-03-09 20:19:35.350,6.9000,-5.9800,-0.7000,6.0625,-2.8125,89.7500,50.3125,95.1250,0.0000,181.8125,
2025-03-09 20:19:35.369,6.7800,-5.9700,-0.6600,5.6875,-1.0625,88.6875,49.4375,95.0000,0.0000,180.8750,
2025-03-09 20:19:35.369,6.7400,-5.9400,-0.5700,4.1875,-1.0625,88.3750,48.5625,94.8750,0.0000,180.0000,
2025-03-09 20:19:35.369,6.7000,-6.3000,-0.5300,3.1875,-1.8125,89.8125,47.7500,94.8125,0.0000,179.0625,
2025-03-09 20:19:35.380,6.7000,-6.5100,-0.5000,1.3125,-2.0000,91.3750,46.8125,94.7500,0.0000,178.1875,
2025-03-09 20:19:35.380,6.3300,-6.9700,-0.4900,3.4375,-2.8750,94.0625,45.9375,94.6250,0.0000,177.1875,
2025-03-09 20:19:35.380,6.5600,-7.2000,-0.5100,9.3125,-2.0625,100.9375,44.9375,94.5000,0.0000,176.1875,
2025-03-09 20:19:35.410,5.8400,-7.2400,-0.4900,15.5000,-0.3750,109.0625,43.8750,94.2500,0.0000,175.0625,
2025-03-09 20:19:35.420,6.0000,-7.1100,-0.6000,16.8750,2.5625,112.9375,42.8125,94.0000,0.0000,173.8750,
2025-03-09 20:19:35.420,5.5700,-6.8600,-0.6500,13.6875,2.6875,110.6875,41.7500,93.7500,0.0000,172.6875,
2025-03-09 20:19:35.441,5.4500,-6.8500,-0.5600,9.1875,5.2500,106.1250,40.7500,93.5625,0.0000,171.6250,
2025-03-09 20:19:35.441,5.5800,-6.7600,-0.5700,2.3750,6.3125,101.5000,39.7500,93.4375,0.0000,170.7500,
2025-03-09 20:19:35.441,5.5100,-7.0100,-0.5600,-5.4375,8.8750,95.8750,38.8125,93.3750,0.0000,169.9375,
2025-03-09 20:19:35.481,5.8800,-7.6100,-0.3200,-4.5000,6.8125,91.1250,37.9375,93.3750,0.0000,169.1250,
2025-03-09 20:19:35.481,5.7900,-7.8800,-0.3300,-5.9375,1.5000,87.4375,37.1250,93.3750,0.0000,168.3125,
2025-03-09 20:19:35.481,5.6200,-7.8100,-0.4700,-9.1875,-1.0000,85.8750,36.2500,93.4375,0.0000,167.5625,
2025-03-09 20:19:35.511,5.1200,-7.6700,-0.5100,-9.4375,-2.6250,86.0625,35.4375,93.5000,0.0000,166.8125,
2025-03-09 20:19:35.521,4.8200,-7.6900,-0.4400,-6.6250,-4.9375,87.0000,34.6250,93.5625,0.0000,165.9375,
2025-03-09 20:19:35.521,4.5800,-7.7200,-0.6600,-5.8125,-5.2500,88.0000,33.7500,93.6250,0.0000,165.0625,
2025-03-09 20:19:35.521,4.9200,-7.8000,-0.5000,1.5625,-6.0625,82.1250,32.9375,93.6250,0.0000,164.2500,
2025-03-09 20:19:35.521,4.4600,-7.9400,-0.4600,4.5625,-10.2500,79.7500,32.1875,93.5625,0.0000,163.3125,
2025-03-09 20:19:35.531,4.5200,-8.0700,-0.4500,0.6250,-8.8750,81.3125,32.1875,93.5625,0.0000,163.3125,
2025-03-09 20:19:35.561,4.3600,-8.0000,-0.4900,2.1875,-8.1250,82.6250,31.3750,93.6250,0.0000,162.5000,
2025-03-09 20:19:35.561,4.2700,-8.1100,-0.4400,-0.4375,-4.3125,84.7500,29.7500,93.5625,0.0000,160.7500,
2025-03-09 20:19:35.561,3.9200,-7.8900,-0.6000,-6.7500,-2.3750,88.0625,28.8750,93.6250,0.0000,159.9375,
2025-03-09 20:19:35.602,3.8300,-7.8900,-0.6700,-13.5000,-2.7500,88.1250,28.0625,93.7500,0.0000,159.1250,
2025-03-09 20:19:35.602,3.7900,-7.8400,-0.6300,-14.2500,-2.4375,86.5000,28.0625,93.7500,0.0000,159.1250,
2025-03-09 20:19:35.602,3.7000,-8.2900,-0.6200,-14.6875,-1.7500,86.8125,27.1875,93.8750,0.0000,158.3125,
2025-03-09 20:19:35.612,3.4800,-8.5200,-0.6200,-14.7500,-1.8125,85.0000,25.5625,94.1250,0.0000,156.7500,
2025-03-09 20:19:35.612,3.1100,-8.7400,-0.5600,-12.3750,-2.4375,84.3125,24.7500,94.2500,0.0000,155.9375,
2025-03-09 20:19:35.642,3.4400,-8.6600,-0.5700,-10.3125,-0.0625,83.3750,23.9375,94.3125,0.0000,155.1875,
2025-03-09 20:19:35.652,3.4400,-8.6600,-0.5700,-9.0625,-1.8750,84.6250,23.9375,94.3125,0.0000,155.1875,
2025-03-09 20:19:35.652,3.3500,-8.5700,-0.6300,-17.1250,-3.3125,87.3750,23.1250,94.3750,0.0000,154.4375,
2025-03-09 20:19:35.652,2.7200,-8.7100,-0.7900,-20.6875,-4.3125,87.8750,21.4375,94.6875,0.0000,152.8125,
2025-03-09 20:19:35.676,2.4800,-9.0200,-0.7900,-21.0625,-4.7500,87.5000,20.5625,94.8750,0.0000,152.0000,
2025-03-09 20:19:35.692,2.6100,-9.1200,-0.7800,-20.8125,-2.7500,87.5000,19.6875,95.0625,0.0000,151.1875,
2025-03-09 20:19:35.723,2.7500,-9.0600,-0.7000,-18.8125,-2.1875,84.1875,19.6875,95.0625,0.0000,151.1875,
2025-03-09 20:19:35.723,2.5400,-9.1300,-0.8200,-16.0625,-3.8750,80.1875,18.8750,95.2500,0.0000,150.3750,
2025-03-09 20:19:35.723,2.1700,-8.9200,-0.9100,-11.7500,-6.8750,74.5625,17.3750,95.5000,0.0000,148.8750,
2025-03-09 20:19:35.723,1.9300,-8.8800,-0.9400,-11.2500,-8.0000,70.5625,16.6875,95.6250,0.0000,148.1250,
2025-03-09 20:19:35.753,1.9100,-8.9300,-1.0300,-10.0000,-8.5000,69.8125,16.6875,95.6250,0.0000,148.1250,
2025-03-09 20:19:35.753,1.9100,-8.9300,-1.0300,-6.8750,-8.3125,69.3125,16.0625,95.7500,0.0000,147.4375,
2025-03-09 20:19:35.753,2.1200,-9.2200,-0.8600,-2.6250,-8.8750,68.2500,15.3750,95.8125,0.0000,146.6250,
2025-03-09 20:19:35.794,1.8700,-9.4400,-0.8300,2.6875,-10.1875,66.7500,14.6875,95.8125,0.0000,145.8750,
2025-03-09 20:19:35.794,1.6200,-9.1000,-0.8400,8.3750,-10.4375,64.0000,14.0625,95.8125,0.0000,145.1250,
2025-03-09 20:19:35.794,1.6900,-8.9900,-0.8300,9.8750,-8.6250,60.0000,13.4375,95.7500,0.0000,144.3750,
2025-03-09 20:19:35.794,1.6900,-8.9900,-0.8300,8.0000,-6.3125,55.5000,12.8125,95.6250,0.0000,143.6875,
2025-03-09 20:19:35.804,1.3000,-9.0100,-0.9000,8.6875,-6.1250,50.5625,12.3125,95.5625,0.0000,143.0625,
2025-03-09 20:19:35.824,1.0900,-8.8500,-0.8700,10.7500,-4.8125,48.1250,11.8125,95.5000,0.0000,142.5000,
2025-03-09 20:19:35.824,1.0100,-8.9500,-0.8500,13.8125,-3.8125,47.5000,11.3125,95.3750,0.0000,141.9375,
2025-03-09 20:19:35.824,1.0100,-8.9300,-0.7900,18.5000,-4.5000,45.2500,10.8750,95.2500,0.0000,141.3750,
2025-03-09 20:19:35.854,0.7700,-9.2500,-0.8400,21.8750,-4.1250,40.7500,10.0000,94.8750,0.0000,140.3750,
2025-03-09 20:19:35.854,0.4500,-8.9600,-0.7300,25.0000,-9.3750,36.1875,9.6875,94.6250,0.0000,140.0000,
2025-03-09 20:19:35.864,0.7000,-8.8100,-0.6900,16.3125,-5.2500,39.3125,9.3750,94.3750,0.0000,139.5000,
2025-03-09 20:19:35.894,0.7300,-8.8200,-0.5800,16.1250,-4.0625,39.3125,9.0000,94.1875,0.0000,139.0625,
2025-03-09 20:19:35.894,0.6300,-9.0800,-0.5500,16.8125,-4.1250,38.5000,8.1875,93.8750,0.0000,138.1250,
2025-03-09 20:19:35.924,0.6300,-9.1400,-0.4500,17.6875,-3.8125,30.8125,7.8125,93.7500,0.0000,137.6250,
2025-03-09 20:19:35.924,0.4600,-9.2200,-0.4200,16.1875,-3.5000,27.3750,7.4375,93.5625,0.0000,137.1875,
2025-03-09 20:19:35.934,0.6700,-9.3500,-0.3600,12.8125,-3.1250,26.0000,7.1875,93.3750,0.0000,136.8750,
2025-03-09 20:19:35.944,0.7900,-9.3500,-0.3600,8.8750,-2.4375,26.0000,6.6250,93.1875,0.0000,136.3125,
2025-03-09 20:19:35.954,0.2600,-9.2400,-0.4300,3.3125,-2.0625,28.8750,6.3750,93.1250,0.0000,136.0000,
2025-03-09 20:19:35.978,0.2900,-9.1000,-0.4500,-2.5625,2.3750,29.3125,5.8125,93.1250,0.0000,135.4375,
2025-03-09 20:19:36.015,0.4000,-9.1100,-0.3900,-2.9375,2.9375,26.1250,5.3125,93.1250,0.0000,134.8750,
2025-03-09 20:19:36.015,0.4100,-9.3800,-0.4000,-7.0625,2.5625,20.2500,5.0625,93.1875,0.0000,134.6875,
2025-03-09 20:19:36.045,0.0400,-9.0400,-0.5800,-6.2500,0.2500,14.5000,4.6250,93.3125,0.0000,134.3125,
2025-03-09 20:19:36.045,0.0600,-8.9700,-0.5600,-7.1250,-1.2500,11.4375,4.3125,93.4375,0.0000,133.9375,
2025-03-09 20:19:36.085,0.1100,-9.1800,-0.5800,-9.7500,-0.6250,9.5000,4.1875,93.5000,0.0000,133.8750,
2025-03-09 20:19:36.085,0.1900,-9.2600,-0.4800,-10.0625,0.2500,10.3750,4.0000,93.6875,0.0000,133.6875,
2025-03-09 20:19:36.175,0.1000,-9.1800,-0.5900,-7.7500,-2.4375,6.1250,3.7500,93.8750,0.0000,133.1875,
2025-03-09 20:19:36.175,0.0200,-9.0700,-0.5600,-7.7500,-2.4375,6.1250,3.6250,93.9375,0.0000,133.0625,
2025-03-09 20:19:36.178,-0.0500,-9.0200,-0.6900,-11.8750,1.1250,5.3125,3.5000,94.0000,0.0000,132.9375,
2025-03-09 20:19:36.178,0.0000,-9.1800,-0.6900,-9.8750,2.9375,5.6875,3.2500,94.1875,0.0000,132.6875,
2025-03-09 20:19:36.178,0.1100,-9.1600,-0.6800,-6.8750,2.9375,3.1250,3.1250,94.2500,0.0000,132.6875,
2025-03-09 20:19:36.178,0.0100,-9.2500,-0.7000,-4.8750,2.8125,1.4375,3.0625,94.3125,0.0000,132.6250,
2025-03-09 20:19:36.178,0.1200,-9.3500,-0.6600,-5.8750,4.8125,3.8750,3.0000,94.3750,0.0000,132.6250,
2025-03-09 20:19:36.186,0.0300,-9.3300,-0.7200,-4.8125,4.7500,3.1250,2.8750,94.4375,0.0000,132.5625,
2025-03-09 20:19:36.196,0.0100,-9.3200,-0.7400,-3.3125,4.9375,3.1250,2.8125,94.5000,0.0000,132.6250,
2025-03-09 20:19:36.216,0.0800,-9.2800,-0.7000,-2.6250,4.8750,4.1250,2.7500,94.5000,0.0000,132.5625,
2025-03-09 20:19:36.216,0.0200,-9.2600,-0.7000,-2.5000,3.8125,5.1250,2.6250,94.5000,0.0000,132.5625,
2025-03-09 20:19:36.243,-0.0100,-9.2700,-0.6900,-2.9375,2.3125,3.3750,2.5000,94.5625,0.0000,132.4375,
2025-03-09 20:19:36.247,0.0500,-9.1500,-0.6400,-2.4375,1.5000,1.2500,2.4375,94.5625,0.0000,132.4375,
2025-03-09 20:19:36.260,0.2300,-9.1300,-0.6700,-0.9375,0.4375,-2.5625,2.4375,94.5625,0.0000,132.4375,
2025-03-09 20:19:36.278,0.2700,-9.3000,-0.7100,3.5625,-2.3750,-6.8750,2.5000,94.5625,0.0000,132.5000,
2025-03-09 20:19:36.287,-0.1700,-9.1800,-0.7600,8.1875,-1.4375,-3.3750,2.5625,94.3750,0.0000,132.4375,
2025-03-09 20:19:36.309,-0.3100,-9.1900,-0.7200,6.8750,1.0625,0.1250,2.5625,94.3125,0.0000,132.2500,
2025-03-09 20:19:36.310,-0.4200,-9.0500,-0.7700,5.2500,3.8750,2.6875,2.5000,94.2500,0.0000,132.3125,
2025-03-09 20:19:36.343,0.0400,-9.1400,-0.6000,3.2500,5.8750,4.8750,2.4375,94.1875,0.0000,132.3125,
2025-03-09 20:19:36.348,0.0600,-9.2300,-0.5800,4.5625,2.5000,0.3750,2.3750,94.1250,0.0000,132.1250,
2025-03-09 20:19:36.379,-0.0200,-9.1900,-0.6000,3.4375,0.6250,-0.3125,2.3750,94.0625,0.0000,132.1250,
2025-03-09 20:19:36.381,-0.1100,-9.3200,-0.5700,-0.2500,-0.3125,4.2500,2.2500,94.0625,0.0000,132.0000,
2025-03-09 20:19:36.411,-0.1000,-9.2700,-0.6100,-2.8750,0.8125,11.0625,2.0000,94.0625,0.0000,131.7500,
2025-03-09 20:19:36.431,-0.1200,-9.2600,-0.6200,-2.6875,0.6250,11.7500,1.8750,94.1250,0.0000,131.5625,
2025-03-09 20:19:36.431,-0.1900,-9.1200,-0.7000,-3.5000,1.4375,11.6875,1.6875,94.1250,0.0000,131.4375,
2025-03-09 20:19:36.441,0.1200,-9.1300,-0.6500,-4.5625,2.1875,10.5000,1.5625,94.1875,0.0000,131.3750,
2025-03-09 20:19:36.441,0.2200,-9.1900,-0.6300,-4.5000,0.9375,7.0625,1.5000,94.1875,0.0000,131.2500,
2025-03-09 20:19:36.451,0.1600,-9.3300,-0.5800,-2.8750,-0.4375,5.2500,1.4375,94.2500,0.0000,131.2500,
2025-03-09 20:19:36.451,-0.0700,-9.5300,-0.6500,-1.3750,-1.8125,3.8125,1.4375,94.2500,0.0000,131.1875,
2025-03-09 20:19:36.461,-0.2100,-9.4300,-0.7100,-0.1250,-1.6250,3.6250,1.3750,94.2500,0.0000,131.0625,
2025-03-09 20:19:36.491,-0.2600,-9.3200,-0.7300,0.1250,1.4375,3.7500,1.2500,94.2500,0.0000,131.0000,
2025-03-09 20:19:36.491,-0.1900,-9.3300,-0.7200,0.5000,2.6875,2.8125,1.2500,94.2500,0.0000,131.0000,
2025-03-09 20:19:36.521,-0.0200,-9.3300,-0.6000,1.0625,2.8125,1.4375,1.1875,94.2500,0.0000,131.0000,
2025-03-09 20:19:36.531,0.0400,-9.4100,-0.6300,2.9375,1.4375,-0.8125,1.1875,94.1875,0.0000,131.0000,
2025-03-09 20:19:36.531,-0.3100,-9.1600,-0.7200,4.9375,0.1250,-2.1250,1.1875,94.1250,0.0000,131.0000,
2025-03-09 20:19:36.551,-0.2400,-9.2100,-0.6500,4.2500,2.1875,2.1250,1.1250,94.1250,0.0000,131.0000,
2025-03-09 20:19:36.561,-0.3600,-9.1200,-0.6600,2.8750,4.1875,7.1875,1.0000,94.0625,0.0000,130.6250,
2025-03-09 20:19:36.561,-0.1600,-9.1100,-0.6100,2.0000,5.6250,11.3125,0.8750,94.0625,0.0000,130.5625,
2025-03-09 20:19:36.581,-0.1200,-9.0600,-0.5600,-0.5625,4.8750,12.5000,0.7500,94.0625,0.0000,130.4375,
2025-03-09 20:19:36.581,-0.2300,-9.0800,-0.6300,-1.8750,3.4375,10.9375,0.6250,94.0625,0.0000,130.3125,
2025-03-09 20:19:36.581,-0.2700,-9.0100,-0.5900,-1.8125,2.4375,7.8125,0.5000,94.0625,0.0000,130.2500,
2025-03-09 20:19:36.611,-0.2600,-9.0700,-0.6300,-1.0625,2.0000,3.5000,0.4375,94.1250,0.0000,129.8750,
2025-03-09 20:19:36.611,-0.1400,-9.0800,-0.6000,0.8125,1.6875,0.0625,0.4375,94.0625,0.0000,129.8750,
2025-03-09 20:19:36.611,-0.1500,-9.1600,-0.6400,1.1250,1.1250,-1.4375,0.4375,94.0625,0.0000,129.9375,
2025-03-09 20:19:36.663,-0.2200,-9.2100,-0.6600,0.5625,1.1250,-1.0000,0.4375,94.0625,0.0000,129.9375,
2025-03-09 20:19:36.673,-0.3100,-9.2400,-0.6600,-0.5625,1.8125,1.0625,0.3750,94.0625,0.0000,129.8750,
2025-03-09 20:19:36.673,-0.1700,-9.1900,-0.6500,-1.8125,2.4375,2.4375,0.3750,94.0625,0.0000,129.8750,
2025-03-09 20:19:36.673,-0.1500,-9.2800,-0.6700,-2.3125,2.2500,3.0000,0.3125,94.1250,0.0000,129.8750,
2025-03-09 20:19:36.673,-0.0200,-9.2700,-0.5800,-2.1875,1.7500,2.8750,0.2500,94.1250,0.0000,129.8125,
2025-03-09 20:19:36.673,-0.0100,-9.2800,-0.5900,-2.8125,0.9375,2.3750,0.2500,94.1250,0.0000,129.8125,
2025-03-09 20:19:36.693,-0.1600,-9.2700,-0.6500,-3.1250,-0.6250,1.6250,0.2500,94.1875,0.0000,129.8125,
2025-03-09 20:19:36.694,-0.2800,-9.2000,-0.6600,-3.1250,-0.8125,1.5625,0.1875,94.1875,0.0000,129.7500,
2025-03-09 20:19:36.704,-0.2800,-9.1600,-0.7300,-4.0000,-0.4375,2.3750,0.1875,94.2500,0.0000,129.6875,
2025-03-09 20:19:36.725,-0.3300,-9.2100,-0.7500,-3.5625,-0.1875,2.0000,0.1250,94.3125,0.0000,129.6250,
2025-03-09 20:19:36.746,-0.3100,-9.2100,-0.7000,-3.1250,0.1250,0.6250,0.0625,94.3125,0.0000,129.6250,
2025-03-09 20:19:36.746,-0.0600,-9.2300,-0.6700,-2.6875,0.3125,-0.9375,0.0625,94.3125,0.0000,129.6250,
2025-03-09 20:19:36.765,-0.0100,-9.2500,-0.6700,-0.5000,-1.1250,-4.0000,0.1250,94.3125,0.0000,129.6250,
2025-03-09 20:19:36.765,-0.1800,-9.3500,-0.6800,2.0625,-3.1250,-8.8125,0.1875,94.3125,0.0000,129.6250,
2025-03-09 20:19:36.765,-0.2400,-9.3800,-0.7400,3.5000,-3.7500,-12.9375,0.3125,94.3125,0.0000,129.7500,
2025-03-09 20:19:36.785,-0.2300,-9.3200,-0.6800,3.5000,-3.1875,-15.6875,0.4375,94.2500,0.0000,129.8125,
2025-03-09 20:19:36.785,-0.1100,-9.3200,-0.6700,2.1875,-2.6250,-18.0625,0.5625,94.2500,0.0000,129.9375,
2025-03-09 20:19:36.796,-0.1100,-9.3700,-0.6500,1.6875,-3.1875,-22.1250,0.8125,94.1875,0.0000,130.0000,
2025-03-09 20:19:36.826,0.0900,-9.3200,-0.6700,0.8750,-3.5625,-26.3750,1.0000,94.1875,0.0000,130.1875,
2025-03-09 20:19:36.826,0.2500,-9.4000,-0.6400,-0.1875,-4.0625,-31.0625,1.3125,94.1875,0.0000,130.4375,
2025-03-09 20:19:36.826,0.3200,-9.4900,-0.6900,-0.4375,-7.4375,-38.2500,1.6875,94.1875,0.0000,130.7500,
2025-03-09 20:19:36.836,0.4800,-9.5200,-0.7100,1.2500,-12.0625,-49.1875,2.1250,94.1875,0.0000,131.0625,
2025-03-09 20:19:36.860,0.6000,-9.8100,-0.7700,4.5000,-16.3750,-62.5000,2.7500,94.1875,0.0000,131.5625,
2025-03-09 20:19:36.860,0.7800,-9.7300,-0.5600,3.6875,-15.3750,-77.6250,3.5000,94.1250,0.0000,132.1875,
2025-03-09 20:19:36.897,0.8700,-9.7600,-0.7300,-2.0625,-15.5000,-88.5625,4.3125,94.1875,0.0000,132.8750,
2025-03-09 20:19:36.897,0.6800,-9.9500,-0.7800,-11.7500,-13.3125,-100.0000,5.3125,94.3125,0.0000,133.6875,
2025-03-09 20:19:36.908,1.0100,-9.6600,-0.9100,-19.3750,-10.8750,-111.1875,6.3750,94.5000,0.0000,134.6875,
2025-03-09 20:19:36.908,1.0200,-9.4000,-0.9200,-19.1875,-8.2500,-121.8125,7.5000,94.7500,0.0000,135.7500,
2025-03-09 20:19:36.908,1.0900,-9.4800,-0.8000,-11.8125,-6.0000,-128.2500,8.7500,94.8750,0.0000,136.9375,
2025-03-09 20:19:36.939,1.0800,-9.1400,-0.9600,-9.1875,-2.1875,-133.3750,10.0625,95.0000,0.0000,138.1875,
2025-03-09 20:19:36.939,1.1700,-8.9600,-0.8800,-8.3125,1.4375,-136.9375,11.3750,95.0625,0.0000,139.5625,
2025-03-09 20:19:36.952,1.3400,-8.8200,-0.9200,-8.1250,5.3750,-140.0625,12.6875,95.1875,0.0000,141.0000,
2025-03-09 20:19:36.952,2.3700,-8.4500,-0.9500,-4.6875,10.0625,-145.3125,14.1250,95.2500,0.0000,142.4375,
2025-03-09 20:19:36.961,2.5800,-8.4500,-0.8800,7.1875,12.1250,-146.8125,15.5625,95.1250,0.0000,144.0000,
2025-03-09 20:19:36.983,2.5100,-8.4800,-0.8900,17.5625,12.0625,-144.7500,16.9375,95.0000,0.0000,145.4375,
2025-03-09 20:19:37.002,2.7100,-8.5000,-0.5600,23.3750,9.3750,-140.8125,18.3125,94.7500,0.0000,146.8125,
2025-03-09 20:19:37.002,3.1800,-8.7800,-0.4500,20.3125,7.8125,-134.6875,19.6250,94.5625,0.0000,148.1250,
2025-03-09 20:19:37.002,3.0000,-8.7100,-0.4600,14.2500,6.1875,-129.0625,20.8750,94.4375,0.0000,149.4375,
2025-03-09 20:19:37.002,3.3500,-8.7100,-0.5100,6.8125,7.1250,-125.7500,22.1250,94.3750,0.0000,150.6875,
2025-03-09 20:19:37.032,3.7200,-8.8500,-0.6400,1.6250,8.4375,-125.5625,23.3125,94.3750,0.0000,151.9375,
2025-03-09 20:19:37.032,3.5300,-8.1100,-0.9700,3.0000,10.6250,-130.3125,24.5625,94.3750,0.0000,153.3125,
2025-03-09 20:19:37.032,3.6600,-7.6200,-0.9600,6.1250,15.0625,-133.4375,25.8750,94.2500,0.0000,154.6875,
2025-03-09 20:19:37.063,3.8800,-7.6700,-0.9600,8.8750,17.8125,-128.6875,25.8750,94.2500,0.0000,154.6875,
2025-03-09 20:19:37.063,4.4100,-7.6300,-0.6300,12.2500,18.5625,-120.4375,27.1250,94.1250,0.0000,156.0625,
2025-03-09 20:19:37.063,4.7800,-7.7500,-0.5100,14.4375,16.0625,-116.4375,29.4375,93.8125,0.0000,158.5625,
2025-03-09 20:19:37.080,4.8900,-7.8500,-0.2900,16.6250,11.6875,-116.3125,30.5625,93.6250,0.0000,159.6875,
2025-03-09 20:19:37.121,5.1100,-7.6600,-0.3300,18.1250,6.5000,-119.5625,31.7500,93.4375,0.0000,160.8125,
2025-03-09 20:19:37.121,5.1500,-7.6100,-0.3800,19.3125,0.1875,-121.9375,31.7500,93.4375,0.0000,160.8125,
2025-03-09 20:19:37.121,5.4500,-7.9000,-0.5200,17.2500,-3.9375,-125.8125,32.9375,93.3125,0.0000,161.8750,
2025-03-09 20:19:37.121,5.2200,-8.0300,-0.7400,13.3750,-3.8125,-136.2500,35.4375,93.1250,0.0000,164.1875,
2025-03-09 20:19:37.127,4.7500,-6.9000,-0.9000,9.8750,0.0625,-148.2500,36.8750,93.1250,0.0000,165.5625,
2025-03-09 20:19:37.151,5.1900,-6.6500,-0.6900,7.4375,6.5000,-146.6250,38.3125,93.0625,0.0000,167.0000,
2025-03-09 20:19:37.151,5.6000,-6.7200,-0.5300,2.3125,11.0625,-138.9375,38.3125,93.0625,0.0000,167.0000,
2025-03-09 20:19:37.161,6.0700,-6.7900,-0.4800,-0.6250,12.2500,-134.8750,39.6250,93.0000,0.0000,168.3750,
2025-03-09 20:19:37.181,6.6800,-6.5600,-0.4000,-0.7500,10.7500,-137.3750,42.3125,92.9375,0.0000,171.1875,
2025-03-09 20:19:37.181,6.6200,-6.4700,-0.3500,-1.8125,9.8125,-143.1875,43.6875,92.9375,0.0000,172.6875,
2025-03-09 20:19:37.181,6.9300,-6.2700,-0.3300,-1.0625,9.3125,-147.0000,45.1250,92.9375,0.0000,174.1875,
2025-03-09 20:19:37.201,7.2600,-6.2400,-0.3200,-1.1875,6.6250,-151.1875,45.1250,92.9375,0.0000,174.1875,
2025-03-09 20:19:37.224,6.9300,-6.4800,-0.6200,-2.2500,4.3750,-157.1875,46.5625,92.9375,0.0000,175.6875,
2025-03-09 20:19:37.272,6.5700,-6.1700,-0.8000,-3.0625,5.3125,-164.7500,49.6875,93.0625,0.0000,178.8750,
2025-03-09 20:19:37.272,6.8200,-5.6000,-0.6600,-3.1250,11.4375,-164.8750,51.3125,93.0625,0.0000,180.5625,
2025-03-09 20:19:37.277,7.6400,-5.0200,-0.7100,-4.1875,17.0000,-157.6250,52.8125,93.0000,0.0000,182.2500,
2025-03-09 20:19:37.277,7.8100,-5.0100,-0.5600,-6.0000,17.7500,-148.5625,52.8125,93.0000,0.0000,182.2500,
2025-03-09 20:19:37.277,7.8800,-4.9000,-0.2200,-9.9375,18.3125,-143.8750,54.2500,92.9375,0.0000,183.8125,
2025-03-09 20:19:37.277,7.9300,-4.6500,0.0100,-11.8750,16.2500,-137.8125,57.0000,92.8750,0.0000,186.8750,
2025-03-09 20:19:37.277,8.0700,-4.7300,0.0900,-11.0625,12.0625,-129.0000,58.2500,92.8750,0.0000,188.3125,
2025-03-09 20:19:37.302,7.8900,-4.6700,-0.1200,-8.8750,7.1250,-122.5625,59.4375,93.0000,0.0000,189.6250,
2025-03-09 20:19:37.302,7.8900,-4.6700,-0.1200,-7.3750,2.6250,-116.1250,59.4375,93.0000,0.0000,189.6250,
2025-03-09 20:19:37.302,7.5000,-4.6000,-0.3300,-4.6250,-3.2500,-106.3125,60.5625,93.1250,0.0000,190.6250,
2025-03-09 20:19:37.322,7.9400,-4.1400,-0.3600,-4.6250,-7.1875,-100.6250,62.5625,93.6250,0.0000,192.6250,
2025-03-09 20:19:37.354,8.4600,-3.5900,-0.5300,-6.2500,-7.5000,-100.6875,63.5000,93.9375,0.0000,193.6250,
2025-03-09 20:19:37.354,8.6700,-3.6800,-0.7900,0.2500,-11.7500,-103.7500,64.5000,94.3125,0.0000,194.6250,
2025-03-09 20:19:37.354,8.6700,-3.6800,-0.7900,8.1250,-14.0000,-106.3750,64.5000,94.3125,0.0000,194.6250,
2025-03-09 20:19:37.354,8.2200,-3.3900,-0.3300,6.4375,-10.1250,-106.1875,65.5625,94.6875,0.0000,195.5000,
2025-03-09 20:19:37.363,8.2200,-3.0400,-0.4500,5.1875,-8.5000,-101.6250,66.5625,95.0625,0.0000,196.4375,
2025-03-09 20:19:37.384,8.2500,-2.7600,-0.4600,-0.6875,-3.2500,-97.2500,67.5000,95.4375,0.0000,197.3125,
2025-03-09 20:19:37.384,8.3400,-2.6400,-0.3300,-4.3125,-2.5000,-93.3750,68.4375,95.7500,0.0000,198.2500,
2025-03-09 20:19:37.394,8.3400,-2.6400,-0.3300,-5.8750,-2.5625,-89.5000,69.3750,96.0625,0.0000,199.1875,
2025-03-09 20:19:37.417,8.5200,-2.4800,-0.3000,-3.3125,-4.1250,-86.8750,70.1875,96.4375,0.0000,200.0000,
2025-03-09 20:19:37.417,9.2400,-2.4400,-0.6000,-0.0625,-5.6875,-83.5625,71.0625,96.8750,0.0000,200.8750,
2025-03-09 20:19:37.429,9.4800,-2.2900,-0.5300,2.0625,-6.5000,-79.8750,71.8125,97.3750,0.0000,201.6875,
2025-03-09 20:19:37.487,9.6000,-2.2300,-0.5500,4.0625,-7.8125,-78.2500,72.6250,97.8750,0.0000,202.3750,
2025-03-09 20:19:37.487,9.6000,-2.2300,-0.5500,4.2500,-9.1875,-78.8125,73.3125,98.4375,0.0000,203.0625,
2025-03-09 20:19:37.487,9.3500,-1.8900,-0.5800,2.8125,-10.0625,-78.5625,74.0625,99.0625,0.0000,203.6875,
2025-03-09 20:19:37.496,9.2000,-1.7100,-0.5000,3.2500,-14.5000,-77.8125,74.8125,99.8125,0.0000,204.3750,
2025-03-09 20:19:37.496,8.8900,-1.7100,-0.4800,-1.6250,-13.0000,-77.1875,75.5000,100.8750,0.0000,205.0625,
2025-03-09 20:19:37.496,9.1600,-1.6700,-0.7800,-0.9375,-15.8125,-73.9375,76.2500,101.9375,0.0000,205.8125,
2025-03-09 20:19:37.506,8.9600,-1.5900,-0.4900,-3.6250,-11.3750,-70.1875,77.5625,104.5000,0.0000,207.1250,
2025-03-09 20:19:37.517,9.7100,-1.3600,-0.8300,-1.3125,-8.2500,-58.5625,78.1250,105.6875,0.0000,207.8125,
2025-03-09 20:19:37.557,9.5500,-1.3800,-0.8800,-2.3125,-1.1250,-49.4375,79.1250,107.8125,0.0000,208.8750,
2025-03-09 20:19:37.557,9.5000,-1.2700,-0.8100,-2.5625,1.6250,-47.0000,80.0000,109.5000,0.0000,209.9375,
2025-03-09 20:19:37.581,9.3600,-0.9800,-0.8500,-3.0000,8.3125,-52.7500,80.4375,110.1875,0.0000,210.4375,
2025-03-09 20:19:37.628,9.4400,-0.7700,-0.6800,-3.2500,15.1250,-61.5625,81.5000,111.5000,0.0000,211.6250,
2025-03-09 20:19:37.628,9.2900,-0.7900,-0.6700,-1.2500,14.0625,-63.3750,82.7500,113.0000,0.0000,212.7500,
2025-03-09 20:19:37.628,9.5200,-0.3900,-0.5700,-4.6875,17.3750,-56.9375,83.3750,173.9375,0.0000,213.4375,
2025-03-09 20:19:37.638,9.9700,-0.3100,-0.4800,-5.7500,15.1250,-43.0625,84.4375,174.9375,0.0000,214.5625,
2025-03-09 20:19:37.658,9.9200,-0.5100,-0.4900,-5.4375,12.5625,-40.6250,85.3125,175.7500,0.0000,215.5000,
2025-03-09 20:19:37.668,9.5300,-0.1700,-0.4600,-6.3125,12.3750,-40.0000,85.7500,176.1875,0.0000,216.0000,
2025-03-09 20:19:37.690,9.3900,-0.0400,-0.4500,0.9375,13.8750,-42.1250,86.5000,177.0000,0.0000,216.9375,
2025-03-09 20:19:37.720,9.3400,0.0600,-0.4500,2.6875,14.3125,-44.3125,87.3750,177.8125,0.0000,217.6875,
2025-03-09 20:19:37.720,9.4200,0.2000,-0.4200,-1.4375,14.9375,-44.0000,87.8125,178.2500,0.0000,218.1250,
2025-03-09 20:19:37.751,9.5200,0.4400,-0.1800,-1.3750,12.6875,-33.8750,88.6250,179.0625,0.0000,219.0000,
2025-03-09 20:19:37.778,9.6600,0.4900,-0.1100,0.4375,10.1875,-26.6875,89.1250,179.6250,0.0000,219.5000,
2025-03-09 20:19:37.780,9.6600,0.4200,-0.1500,0.3750,4.5000,-18.6875,89.2500,179.8750,0.0000,219.6875,
2025-03-09 20:19:37.791,9.7600,0.4100,-0.2200,0.0625,2.2500,-14.9375,89.2500,-179.6875,0.0000,220.0625,
2025-03-09 20:19:37.813,9.7700,0.5600,-0.3200,1.0000,2.8750,-15.8125,89.0625,-179.3750,0.0000,220.3750,
2025-03-09 20:19:37.841,9.5700,0.6000,-0.2500,2.6250,3.8125,-16.8125,88.9375,-179.1250,0.0000,220.5625,
2025-03-09 20:19:37.841,9.6400,0.6000,-0.2400,1.6250,5.0000,-14.1250,88.8125,-178.9375,0.0000,220.7500,
2025-03-09 20:19:37.852,9.7600,0.6100,-0.1900,0.1875,4.9375,-12.5000,88.5625,-178.6250,0.0000,221.0625,
2025-03-09 20:19:37.863,9.7800,0.6000,-0.2500,-0.1250,3.6875,-10.6875,88.4375,-178.5000,0.0000,221.1250,
2025-03-09 20:19:37.863,9.7700,0.6200,-0.2300,-0.1250,3.6875,-10.6875,88.3125,-178.3750,0.0000,221.2500,
2025-03-09 20:19:37.873,9.7200,0.7300,-0.2500,-0.1250,3.4375,-9.8125,88.1875,-178.2500,0.0000,221.3750,
2025-03-09 20:19:37.904,9.3100,0.6400,-0.2400,-1.3125,6.0625,-8.6875,88.0000,-178.0625,0.0000,221.5625,
2025-03-09 20:19:37.904,9.4700,0.6100,-0.2100,-1.2500,5.8750,-3.6250,88.0000,-178.0000,0.0000,221.6250,
2025-03-09 20:19:37.937,9.8100,0.6200,-0.2000,-1.2500,5.3125,-1.6875,88.0000,-178.0000,0.0000,221.6250,
2025-03-09 20:19:37.938,9.6300,0.7200,-0.1000,-0.9375,4.8125,-5.3750,87.8750,-177.8750,0.0000,221.7500,
2025-03-09 20:19:37.966,9.7000,0.6600,-0.0800,1.6875,4.5625,-6.6250,87.6875,-177.6875,0.0000,221.9375,
2025-03-09 20:19:37.986,9.6400,0.6700,-0.1100,2.1250,4.4375,-6.3750,87.6250,-177.6250,0.0000,222.0000,
2025-03-09 20:19:37.986,9.5500,0.7000,-0.0900,1.2500,5.3750,-6.6250,87.5625,-2.3750,0.0000,222.0625,
2025-03-09 20:19:37.996,9.4700,0.7600,-0.1600,1.8750,6.3125,-7.6250,87.3750,-2.5625,0.0000,222.1875,
2025-03-09 20:19:38.018,9.5200,0.7900,-0.1200,2.4375,6.6250,-8.2500,87.2500,-2.6875,0.0000,222.2500,
2025-03-09 20:19:38.018,9.5500,0.8600,-0.1000,3.1875,6.3750,-8.7500,87.1250,-2.8125,0.0000,222.3750,
2025-03-09 20:19:38.030,9.7500,0.8800,-0.0600,5.0000,5.5625,-7.6250,87.0000,-2.8750,0.0000,222.3750,
2025-03-09 20:19:38.067,9.6500,0.6600,-0.1900,5.3125,2.7500,-2.0000,86.9375,-3.0000,0.0000,222.3750,
2025-03-09 20:19:38.067,9.6200,0.8600,-0.0400,3.8125,2.3750,-0.5000,86.8750,-3.0000,0.0000,222.3125,
2025-03-09 20:19:38.089,9.5300,0.9200,-0.0300,3.7500,1.3750,-1.8125,86.8750,-3.0625,0.0000,222.3125,
2025-03-09 20:19:38.089,9.6000,0.9000,0.0500,4.3750,-0.1250,-2.3750,86.8125,-3.1250,0.0000,222.3750,
2025-03-09 20:19:38.089,9.6800,0.8400,0.0600,3.4375,-1.8125,-1.0625,86.7500,-3.1250,0.0000,222.3750,
2025-03-09 20:19:38.108,9.6100,0.8000,-0.0600,3.8750,-3.5625,-0.6875,86.7500,-3.1875,0.0000,222.3125,
2025-03-09 20:19:38.109,9.5000,0.8200,-0.1100,4.8125,-4.9375,-1.2500,86.7500,-3.1875,0.0000,222.3750,
2025-03-09 20:19:38.119,9.3300,0.8700,-0.1400,3.9375,-5.1875,-3.3125,86.6875,-3.2500,0.0000,222.3750,
2025-03-09 20:19:38.139,9.3100,0.9100,-0.1400,2.3750,-4.8125,-2.8125,86.6250,-3.3125,0.0000,222.4375,
2025-03-09 20:19:38.139,9.4600,0.9000,-0.0300,2.0625,-4.8125,-1.9375,86.5625,-176.5625,0.0000,222.4375,
2025-03-09 20:19:38.139,9.2300,0.8900,0.0000,3.2500,-4.2500,-1.6250,86.5625,-176.5625,0.0000,222.4375,
2025-03-09 20:19:38.157,9.3700,0.9200,-0.2100,4.5625,-3.1875,-0.4375,86.5000,-176.5000,0.0000,222.5000,
2025-03-09 20:19:38.183,9.9500,0.8000,-0.1100,2.5625,-4.4375,0.0000,86.5000,-176.5000,0.0000,222.5000,
2025-03-09 20:19:38.183,9.7300,0.9300,-0.1900,2.6875,-4.9375,0.6875,86.5000,-176.5000,0.0000,222.5000,
2025-03-09 20:19:38.208,9.4500,0.9900,-0.0500,4.0625,-4.6250,1.8750,86.4375,-176.4375,0.0000,222.5000,
2025-03-09 20:19:38.239,9.5400,0.9900,-0.3500,3.6250,-3.6250,3.5000,86.4375,-176.4375,0.0000,222.4375,
2025-03-09 20:19:38.239,9.5300,0.9000,-0.1800,0.5000,-1.9375,4.7500,86.4375,-176.5000,0.0000,222.4375,
2025-03-09 20:19:38.239,9.6500,0.8000,-0.2100,-0.7500,-1.0625,6.3750,86.5000,-176.5000,0.0000,222.4375,
2025-03-09 20:19:38.239,9.6200,0.7900,-0.2200,-0.5000,-0.5625,6.5625,86.5625,-176.5625,0.0000,222.3750,
2025-03-09 20:19:38.239,9.7000,0.8500,-0.1100,0.0625,0.3750,5.5000,86.5625,-176.6250,0.0000,222.3125,
2025-03-09 20:19:38.259,9.5000,0.7700,-0.1800,0.7500,1.8750,1.8750,86.5625,-176.6250,0.0000,222.3125,
2025-03-09 20:19:38.259,9.4200,0.8000,-0.2000,1.1875,1.7500,-0.0625,86.5625,-176.6250,0.0000,222.4375,
2025-03-09 20:19:38.265,9.4300,0.8200,-0.2200,1.1250,1.5625,0.1250,86.5625,-176.5625,0.0000,222.4375,
2025-03-09 20:19:38.283,9.5200,0.6700,-0.1800,2.3125,1.8125,3.2500,86.5625,-176.6250,0.0000,222.3750,
2025-03-09 20:19:38.315,9.7100,0.7700,-0.3000,1.5625,1.3750,5.8125,86.6250,-176.6250,0.0000,222.3125,
2025-03-09 20:19:38.321,9.5900,0.7900,-0.1500,0.2500,2.1250,5.6875,86.6875,-176.6875,0.0000,222.2500,
2025-03-09 20:19:38.321,9.7000,0.7600,-0.1100,0.6250,2.3125,4.8125,86.6875,-176.7500,0.0000,222.2500,
2025-03-09 20:19:38.321,9.5600,0.6100,-0.3100,1.8750,2.4375,3.7500,86.7500,-176.7500,0.0000,222.1875,
2025-03-09 20:19:38.321,9.4700,0.5900,-0.2500,-0.4375,4.0000,2.5625,86.7500,-176.7500,0.0000,222.1875,
2025-03-09 20:19:38.352,9.2600,0.4900,-0.2400,-6.4375,3.7500,6.5625,86.8125,-176.8125,0.0000,222.1875,
2025-03-09 20:19:38.352,9.8600,1.1700,0.0500,-9.0625,3.4375,12.1875,86.9375,-176.9375,0.0000,222.1250,
2025-03-09 20:19:38.362,9.6000,0.6400,-0.0800,-5.0625,3.7500,5.2500,86.9375,-177.0000,0.0000,222.2500,
2025-03-09 20:19:38.394,9.5200,0.5900,-0.1000,-2.9375,4.1875,1.8750,87.0000,-177.0000,0.0000,222.2500,
2025-03-09 20:19:38.394,9.5900,0.5900,-0.2000,0.0625,5.3750,0.7500,87.0000,-177.0000,0.0000,222.2500,
2025-03-09 20:19:38.394,9.6000,0.7200,-0.1300,1.5000,6.5625,-0.8750,86.9375,-176.9375,0.0000,222.2500,
2025-03-09 20:19:38.394,9.6600,0.7000,-0.1600,1.1875,7.2500,-1.1875,86.9375,-3.0000,0.0000,222.2500,
2025-03-09 20:19:38.425,9.6500,0.6500,-0.1600,0.3750,8.0625,-1.8750,86.9375,-3.0000,0.0000,222.2500,
2025-03-09 20:19:38.425,9.5000,0.7600,-0.0800,-0.2500,8.9375,-2.5625,86.8750,-3.0625,0.0000,222.3125,
2025-03-09 20:19:38.435,9.4800,0.6800,-0.0500,-0.9375,9.2500,-2.7500,86.8125,-3.0625,0.0000,222.3125,
2025-03-09 20:19:38.444,9.4900,0.6800,-0.0500,-1.2500,9.3125,-3.0000,86.8125,-3.1250,0.0000,222.3750,
2025-03-09 20:19:38.447,9.5600,0.7900,0.0200,-0.6875,9.6250,-3.4375,86.7500,-3.1875,0.0000,222.4375,
2025-03-09 20:19:38.466,9.5900,0.7600,0.0900,-0.3750,9.4375,-3.0625,86.6875,-3.1875,0.0000,222.5625,
2025-03-09 20:19:38.466,9.5000,0.7500,0.0100,-1.1250,8.4375,-2.5625,86.6250,-3.2500,0.0000,222.6250,
2025-03-09 20:19:38.476,9.3500,0.4100,-0.2500,-0.8750,4.5000,1.1875,86.6250,-3.2500,0.0000,222.6250,
2025-03-09 20:19:38.509,9.6100,0.6700,0.0500,-1.7500,-2.6875,7.0000,86.6875,-3.1875,0.0000,222.5625,
2025-03-09 20:19:38.509,9.7200,0.9400,0.4100,-1.1250,-4.5625,7.2500,86.7500,-3.1250,0.0000,222.5000,
2025-03-09 20:19:38.509,9.4700,0.7400,-0.0400,-0.5000,2.6875,3.0000,86.8125,-3.0625,0.0000,222.5000,
2025-03-09 20:19:38.518,9.5400,0.7400,0.0900,-0.5000,2.7500,3.8750,86.8125,-3.0625,0.0000,222.4375,
2025-03-09 20:19:38.545,9.7900,1.0900,0.3700,-0.5625,1.9375,3.3750,86.8125,-3.0625,0.0000,222.4375,
2025-03-09 20:19:38.545,9.5300,0.7500,0.0300,0.3750,5.1250,-0.9375,86.8125,-3.0625,0.0000,222.4375,
2025-03-09 20:19:38.560,9.5200,0.7400,0.0600,-0.1250,5.5625,-1.5000,86.8125,-3.0625,0.0000,222.4375,
2025-03-09 20:19:38.560,9.4500,0.9300,0.1300,-1.4375,5.2500,-0.6875,86.7500,-3.0625,0.0000,222.5625,
2025-03-09 20:19:38.570,9.5200,0.8500,0.1400,-2.6875,4.5625,1.5000,86.7500,-3.1250,0.0000,222.6250,
2025-03-09 20:19:38.594,9.5300,0.7100,0.1200,-3.7500,3.0000,3.5625,86.7500,-3.0625,0.0000,222.6250,
2025-03-09 20:19:38.594,9.5500,0.6700,0.1300,-3.0625,2.1250,4.0000,86.7500,-3.0625,0.0000,222.6250,
2025-03-09 20:19:38.594,9.5200,0.7000,0.1300,-2.1250,1.6250,3.8125,86.7500,-3.0000,0.0000,222.6250,
2025-03-09 20:19:38.621,9.4700,0.7400,0.1400,-0.6875,1.3125,3.9375,86.8125,-3.0000,0.0000,222.5625,
2025-03-09 20:19:38.621,9.5000,0.7900,0.1600,-0.4375,0.6250,4.6875,86.8125,-3.0000,0.0000,222.5625,
2025-03-09 20:19:38.621,9.5400,0.7000,0.2100,-0.5625,-1.0000,6.3750,86.8750,-2.9375,0.0000,222.5000,
2025-03-09 20:19:38.641,9.5600,0.6600,0.1800,-0.6875,-2.5625,7.6875,86.9375,-2.8750,0.0000,222.4375,
2025-03-09 20:19:38.684,9.5600,0.6200,0.1600,-0.7500,-4.3750,7.8750,87.0000,-2.8125,0.0000,222.3750,
2025-03-09 20:19:38.684,9.5600,0.5600,0.1600,-0.8750,-6.0000,7.5000,87.1250,-2.7500,0.0000,222.3750,
2025-03-09 20:19:38.701,9.5000,0.5900,0.0000,-0.6250,-7.2500,6.7500,87.1875,-2.6875,0.0000,222.3125,
2025-03-09 20:19:38.701,9.5600,0.5700,-0.0500,0.1250,-7.0000,5.9375,87.2500,-2.6250,0.0000,222.3125,
2025-03-09 20:19:38.701,9.5700,0.5800,0.0000,0.5625,-6.2500,5.5625,87.3125,-2.5625,0.0000,222.2500,
2025-03-09 20:19:38.701,9.5400,0.5900,0.0700,0.1875,-6.0000,5.7500,87.3750,-2.5000,0.0000,222.1875,
2025-03-09 20:19:38.701,9.5300,0.5600,0.1000,-0.8125,-6.6250,6.1875,87.4375,-2.4375,0.0000,222.1250,
2025-03-09 20:19:38.711,9.5700,0.4300,0.0800,-1.4375,-7.9375,6.1250,87.5000,-2.3750,0.0000,222.0625,
2025-03-09 20:19:38.752,9.5600,0.4400,0.0000,-1.8125,-9.6250,5.0625,87.5625,-2.3750,0.0000,222.0625,
2025-03-09 20:19:38.752,9.5500,0.4900,-0.0800,-1.8750,-10.0625,3.2500,87.6250,-2.3125,0.0000,222.0625,
2025-03-09 20:19:38.752,9.6000,0.5100,-0.0900,-1.5000,-9.9375,2.1250,87.6250,-2.3125,0.0000,222.0625,
2025-03-09 20:19:38.752,9.5400,0.5900,-0.1200,-0.5000,-9.1250,1.5625,87.6250,-2.3125,0.0000,221.9375,
2025-03-09 20:19:38.805,9.5600,0.5800,-0.1900,0.0000,-8.1250,1.8125,87.6250,-2.3125,0.0000,221.9375,
2025-03-09 20:19:38.805,9.5400,0.6000,-0.0800,0.5000,-6.7500,1.9375,87.6875,-177.6875,0.0000,221.9375,
2025-03-09 20:19:38.805,9.5300,0.5600,-0.0200,0.5625,-6.3125,2.5625,87.6875,-177.6875,0.0000,221.9375,
2025-03-09 20:19:38.805,9.5200,0.4200,-0.0300,0.5000,-6.8750,3.1250,87.6875,-177.6875,0.0000,221.9375,
2025-03-09 20:19:38.805,9.5400,0.4900,-0.1100,0.0000,-7.8125,2.1875,87.6875,-177.6875,0.0000,221.9375,
2025-03-09 20:19:38.836,9.5600,0.6000,-0.1600,-0.3750,-8.3125,1.0625,87.6875,-177.7500,0.0000,221.8750,
2025-03-09 20:19:38.846,9.5500,0.5300,-0.2500,-0.0625,-8.5000,1.1875,87.6875,-177.7500,0.0000,221.8750,
2025-03-09 20:19:38.846,9.5600,0.5500,-0.3200,-0.5625,-7.4375,1.8125,87.6875,-177.7500,0.0000,221.8750,
2025-03-09 20:19:38.866,9.5900,0.5100,-0.3400,-0.3750,-4.8750,2.0625,87.6875,-177.7500,0.0000,221.8750,
2025-03-09 20:19:38.876,9.5500,0.4900,-0.3700,-0.4375,-2.5000,2.5625,87.6875,-177.7500,0.0000,221.8750,
2025-03-09 20:19:38.876,9.5500,0.4400,-0.3500,-0.1250,0.1250,2.4375,87.6875,-177.7500,0.0000,221.8750,
2025-03-09 20:19:38.878,9.5900,0.4000,-0.2600,0.2500,2.1875,1.5625,87.6875,-177.8125,0.0000,221.8125,
2025-03-09 20:19:38.897,9.6000,0.4300,-0.1500,0.6875,3.7500,0.1875,87.6875,-177.8125,0.0000,221.8125,
2025-03-09 20:19:38.897,9.5900,0.5000,-0.1200,0.8125,4.3125,-1.1875,87.6875,-177.8125,0.0000,221.8125,
2025-03-09 20:19:38.908,9.5900,0.5000,-0.1200,0.7500,3.6875,-1.3125,87.6875,-177.8125,0.0000,221.8125,
2025-03-09 20:19:38.918,9.5700,0.5600,-0.0900,0.3125,3.0625,-0.5625,87.6875,-177.7500,0.0000,221.8125,
2025-03-09 20:19:38.930,9.5200,0.5600,-0.1200,-0.3125,2.0625,0.9375,87.6875,-177.7500,0.0000,221.8125,
2025-03-09 20:19:38.949,9.4900,0.4700,-0.1400,-0.5000,1.5000,2.0000,87.6875,-177.7500,0.0000,221.8125,
2025-03-09 20:19:38.949,9.5500,0.4600,-0.0700,-0.3750,1.0000,2.0000,87.7500,-177.8125,0.0000,221.8125,
2025-03-09 20:19:38.959,9.5500,0.4600,-0.0700,-0.1250,0.5000,1.5000,87.7500,-177.8125,0.0000,221.8125,
2025-03-09 20:19:38.985,9.5800,0.5000,-0.0500,-0.0625,-0.7500,1.1875,87.7500,-177.8125,0.0000,221.9375,
2025-03-09 20:19:38.985,9.5600,0.5500,0.0100,-0.1250,-2.4375,1.1875,87.7500,-177.8125,0.0000,221.8750,
2025-03-09 20:19:38.991,9.5100,0.4600,0.0000,-0.2500,-5.0000,2.1250,87.7500,-177.8125,0.0000,221.8750,
2025-03-09 20:19:39.003,9.5100,0.4700,-0.0300,-0.4375,-7.5000,2.1250,87.7500,-177.8750,0.0000,221.8750,
2025-03-09 20:19:39.032,9.5100,0.4700,-0.0300,-0.6875,-9.3750,1.9375,87.7500,-177.8750,0.0000,221.8750,
2025-03-09 20:19:39.041,9.5100,0.4600,-0.1000,-0.4375,-10.6875,1.5000,87.7500,-177.8750,0.0000,221.8750,
2025-03-09 20:19:39.041,9.4900,0.5900,-0.2400,-0.3750,-11.3125,1.4375,87.6875,-177.8750,0.0000,221.8750,
2025-03-09 20:19:39.041,9.6300,0.4100,-0.3200,-0.3750,-11.5000,2.0000,87.6875,-177.8750,0.0000,221.8750,
2025-03-09 20:19:39.041,9.5400,0.5700,-0.3400,-0.8750,-11.1250,2.1875,87.6250,-177.8750,0.0000,221.8750,
2025-03-09 20:19:39.073,9.5400,0.5700,-0.3400,-0.8750,-11.1250,2.1875,87.6250,-177.9375,0.0000,221.8750,
2025-03-09 20:19:39.073,9.5800,0.4800,-0.4200,-0.7500,-10.0000,2.9375,87.5625,-177.9375,0.0000,221.8125,
2025-03-09 20:19:39.115,9.5900,0.4100,-0.5000,-0.8125,-6.1250,3.1875,87.5625,-177.9375,0.0000,221.8125,
2025-03-09 20:19:39.115,9.5500,0.4400,-0.4300,-0.2500,-3.7500,2.5625,87.5000,-178.0000,0.0000,221.8125,
2025-03-09 20:19:39.115,9.5300,0.4500,-0.4300,-0.3750,-1.6875,2.1250,87.5000,-178.0000,0.0000,221.8125,
2025-03-09 20:19:39.115,9.5500,0.4500,-0.3900,-0.8125,1.5000,1.9375,87.5000,-178.0625,0.0000,221.7500,
2025-03-09 20:19:39.157,9.5700,0.4400,-0.4300,-1.0625,2.8750,1.7500,87.5625,-178.0625,0.0000,221.7500,
2025-03-09 20:19:39.157,9.5800,0.4100,-0.4400,-0.9375,4.5625,1.8125,87.5625,-178.0625,0.0000,221.7500,
2025-03-09 20:19:39.157,9.5800,0.3800,-0.4400,-0.8750,6.8125,1.7500,87.5625,-178.0625,0.0000,221.7500,
2025-03-09 20:19:39.161,9.5800,0.4700,-0.3600,-0.6875,9.0000,1.4375,87.6875,-178.1250,0.0000,221.7500,
2025-03-09 20:19:39.191,9.5500,0.3700,-0.3200,-0.4375,12.6875,1.5625,87.7500,-178.1250,0.0000,221.7500,
2025-03-09 20:19:39.201,9.5200,0.4100,-0.2600,-0.5000,13.6875,1.2500,87.8125,-178.1250,0.0000,221.7500,
2025-03-09 20:19:39.221,9.5400,0.4800,-0.1200,-0.3750,14.4375,1.1250,87.9375,-178.1250,0.0000,221.6875,
2025-03-09 20:19:39.221,9.5500,0.4500,-0.0700,-0.5625,14.5000,1.5000,88.0000,-178.1250,0.0000,221.6875,
2025-03-09 20:19:39.231,9.5000,0.4200,-0.0600,-0.2500,12.9375,2.3125,88.0625,-178.1875,0.0000,221.6875,
2025-03-09 20:19:39.241,9.5400,0.3400,-0.0300,-0.0625,11.5625,2.0000,88.1250,-178.1875,0.0000,221.6250,
2025-03-09 20:19:39.281,9.5500,0.3700,-0.0200,0.0625,10.5000,1.7500,88.1875,-178.2500,0.0000,221.6250,
2025-03-09 20:19:39.281,9.5700,0.4000,0.0000,0.1875,9.6875,1.1250,88.2500,-178.2500,0.0000,221.6250,
2025-03-09 20:19:39.281,9.5500,0.3700,-0.0200,0.6875,8.1875,0.5000,88.2500,-178.2500,0.0000,221.6250,
2025-03-09 20:19:39.302,9.5400,0.4200,0.0000,1.0000,7.7500,-0.2500,88.2500,-1.6875,0.0000,221.6250,
2025-03-09 20:19:39.308,9.5400,0.4000,-0.0100,1.0000,6.8125,-0.2500,88.1875,-1.6875,0.0000,221.5625,
2025-03-09 20:19:39.318,9.5500,0.4200,0.0200,0.5625,6.7500,0.1875,88.1875,-1.6875,0.0000,221.5625,
2025-03-09 20:19:39.362,9.5600,0.4000,0.0600,0.3125,5.5000,1.5625,88.1875,-1.6875,0.0000,221.5625,
2025-03-09 20:19:39.362,9.5400,0.4200,0.0500,0.1875,5.1875,1.9375,88.1875,-1.6875,0.0000,221.5625,
2025-03-09 20:19:39.362,9.5500,0.3700,0.0900,-0.0625,4.8125,2.6875,88.1875,-1.6875,0.0000,221.5000,
2025-03-09 20:19:39.405,9.5500,0.3800,0.1000,-0.1250,4.6250,3.0000,88.2500,-1.6250,0.0000,221.5000,
2025-03-09 20:19:39.409,9.5600,0.3600,0.0700,-0.0625,3.0000,2.6875,88.2500,-1.6250,0.0000,221.4375,
2025-03-09 20:19:39.409,9.5400,0.3600,0.1200,-0.1250,2.3125,2.6250,88.2500,-1.5625,0.0000,221.4375,
2025-03-09 20:19:39.409,9.5300,0.4300,0.1100,-0.1875,1.1875,2.9375,88.3125,-1.5625,0.0000,221.3750,
2025-03-09 20:19:39.435,9.5600,0.4000,0.0700,-0.4375,0.3750,3.1875,88.3125,-1.5000,0.0000,221.3750,
2025-03-09 20:19:39.435,9.5700,0.3100,0.0400,-1.1875,0.1250,4.1250,88.3750,-1.5000,0.0000,221.3125,
2025-03-09 20:19:39.440,9.6000,0.2800,0.0000,-0.5625,0.3125,4.0000,88.3750,-1.4375,0.0000,221.3125,
2025-03-09 20:19:39.476,9.5300,0.2800,0.0300,-0.2500,0.6250,2.8750,88.4375,-1.3750,0.0000,221.2500,
2025-03-09 20:19:39.500,9.5200,0.3200,0.0800,-0.1250,0.7500,1.6250,88.4375,-1.3750,0.0000,221.2500,
2025-03-09 20:19:39.500,9.5300,0.3500,0.0800,-0.0625,0.7500,0.9375,88.4375,-1.3125,0.0000,221.2500,
2025-03-09 20:19:39.504,9.5500,0.3900,0.0900,-0.2500,-0.3750,1.7500,88.4375,-1.3125,0.0000,221.1875,
2025-03-09 20:19:39.525,9.5400,0.3000,0.0900,-0.3125,-0.8750,2.0625,88.5000,-1.3125,0.0000,221.1875,
2025-03-09 20:19:39.530,9.5600,0.2600,0.0900,-0.0625,-1.3125,2.0625,88.5000,-1.3125,0.0000,221.1875,
2025-03-09 20:19:39.547,9.5400,0.3000,0.0400,0.1875,-2.0000,0.8125,88.5625,-1.2500,0.0000,221.1250,
2025-03-09 20:19:39.557,9.5500,0.2100,0.0000,0.2500,-2.1875,0.3125,88.5625,-1.2500,0.0000,221.1250,
2025-03-09 20:19:39.585,9.5700,0.2800,0.0100,0.2500,-1.9375,-0.5000,88.5625,-1.2500,0.0000,221.1250,
2025-03-09 20:19:39.587,9.5800,0.3700,0.0100,0.7500,-1.1875,-1.6875,88.5625,-1.3125,0.0000,221.1875,
2025-03-09 20:19:39.587,9.5700,0.4400,0.0100,0.8750,-0.9375,-1.9375,88.5625,-1.3125,0.0000,221.1875,
2025-03-09 20:19:39.606,9.5100,0.3000,0.0000,0.4375,-0.8125,0.3125,88.5625,-1.3125,0.0000,221.1875,
2025-03-09 20:19:39.627,9.5300,0.3400,0.0200,0.4375,-0.5000,0.6250,88.5625,-1.3125,0.0000,221.1875,
2025-03-09 20:19:39.637,9.5500,0.3500,0.0200,0.2500,-0.1250,0.8125,88.5625,-1.3125,0.0000,221.1875,
2025-03-09 20:19:39.664,9.5400,0.3100,0.0700,-0.1875,-1.3125,2.0000,88.5625,-1.3125,0.0000,221.1250,
2025-03-09 20:19:39.668,9.5300,0.3600,0.0500,-0.3125,-1.7500,2.1250,88.5625,-1.2500,0.0000,221.1250,
2025-03-09 20:19:39.677,9.5400,0.3200,0.0000,-0.3750,-1.8750,2.6250,88.6250,-1.2500,0.0000,221.1250,
2025-03-09 20:19:39.703,9.5300,0.3000,-0.0100,-0.2500,-1.6875,2.6875,88.6250,-1.2500,0.0000,221.0625,
2025-03-09 20:19:39.704,9.5500,0.2900,0.0000,-0.1250,-1.3750,2.5000,88.6875,-1.1875,0.0000,221.0625,
2025-03-09 20:19:39.733,9.5700,0.2800,0.0700,0.7500,-2.5625,2.8750,88.7500,-1.1875,0.0000,221.0000,
2025-03-09 20:19:39.733,9.5700,0.2800,0.0800,1.0625,-3.3750,3.0000,88.7500,-1.1250,0.0000,221.0000,
2025-03-09 20:19:39.742,9.5300,0.2500,-0.0100,1.8750,-4.3750,2.8750,88.8125,-1.1250,0.0000,220.9375,
