A1,,,,,,,,,,,
time,accx,accy,accz,gyrox,gyroy,gyroz,w1,w2,w3,w4,
2025-03-09 14:54:13.442,9.7100,0.5200,0.6500,0.5000,-0.4375,0.2500,86.1250,-2.1250,0.0000,259.9375,
2025-03-09 14:54:13.442,9.6700,0.5500,0.6400,0.8125,-0.3750,0.3125,86.1250,-2.1250,0.0000,259.9375,
2025-03-09 14:54:13.442,9.6700,0.5400,0.5800,0.6875,-0.1875,0.1250,86.1250,-2.1250,0.0000,259.9375,
2025-03-09 14:54:13.442,9.6400,0.5100,0.5900,0.3125,-0.0625,0.0625,86.1250,-2.1250,0.0000,259.9375,
2025-03-09 14:54:13.459,9.6200,0.5000,0.5900,-0.0625,-0.1250,0.0000,86.1250,-2.1250,0.0000,259.9375,
2025-03-09 14:54:13.459,9.6000,0.4800,0.5900,-0.5000,0.0000,-0.1250,86.1250,-2.1250,0.0000,259.9375,
2025-03-09 14:54:13.459,9.5900,0.4500,0.5900,-0.8125,-0.0625,0.1250,86.1250,-2.1250,0.0000,259.9375,
2025-03-09 14:54:13.481,9.6200,0.4400,0.5500,-0.9375,-0.1875,0.1875,86.1250,-2.1250,0.0000,259.9375,
2025-03-09 14:54:13.501,9.6200,0.4100,0.5700,-0.9375,-0.3125,0.0625,86.1250,-2.1250,0.0000,259.9375,
2025-03-09 14:54:13.501,9.6500,0.4500,0.5700,-0.6875,-0.2500,0.1250,86.1250,-2.1250,0.0000,259.9375,
2025-03-09 14:54:13.501,9.6800,0.4600,0.6100,-0.2500,-0.2500,-0.1250,86.1250,-2.1250,0.0000,259.9375,
2025-03-09 14:54:13.504,9.6700,0.4200,0.6100,-0.1875,-0.0625,-0.1250,86.1250,-2.1250,0.0000,259.9375,
2025-03-09 14:54:13.512,9.6900,0.4800,0.6100,-0.2500,-0.1875,-0.0625,86.1250,-2.1250,0.0000,259.9375,
2025-03-09 14:54:13.523,9.6900,0.4300,0.6000,-0.1875,-0.2500,-0.1250,86.1250,-2.1250,0.0000,259.9375,
2025-03-09 14:54:13.539,9.6800,0.4300,0.6300,-0.1875,-0.1250,-0.0625,86.1250,-2.1250,0.0000,259.9375,
2025-03-09 14:54:13.548,9.6800,0.4100,0.6200,-0.0625,-0.1250,-0.1250,86.1250,-2.1250,0.0000,259.9375,
2025-03-09 14:54:13.555,9.6800,0.4400,0.6000,-0.0625,-0.1250,-0.1250,86.1250,-2.1250,0.0000,259.9375,
2025-03-09 14:54:13.563,9.6800,0.4700,0.5300,-0.1250,-0.3125,0.0000,86.1250,-2.1250,0.0000,259.9375,
2025-03-09 14:54:13.572,9.6600,0.4900,0.5800,-0.1875,-0.3750,0.0000,86.1250,-2.1250,0.0000,259.9375,
2025-03-09 14:54:13.584,9.6800,0.5000,0.5800,-0.1250,-0.2500,-0.0625,86.1250,-2.1250,0.0000,259.9375,
2025-03-09 14:54:13.594,9.6900,0.4800,0.6000,0.0625,-0.1875,0.1250,86.1250,-2.1250,0.0000,259.9375,
2025-03-09 14:54:13.606,9.6800,0.4600,0.6000,-0.3750,0.3125,0.1250,86.1250,-2.1250,0.0000,259.9375,
2025-03-09 14:54:13.613,9.6600,0.4400,0.6100,-0.3750,0.3125,0.1250,86.1250,-2.1250,0.0000,259.9375,
2025-03-09 14:54:13.624,9.6700,0.4200,0.6200,-0.5000,0.3750,-0.1250,86.1250,-2.1250,0.0000,259.9375,
2025-03-09 14:54:13.636,9.6800,0.3700,0.6600,-0.7500,0.1875,-0.0625,86.1250,-2.1250,0.0000,259.9375,
2025-03-09 14:54:13.646,9.6500,0.3900,0.6200,-0.4375,0.1875,0.0625,86.1250,-2.1250,0.0000,259.9375,
2025-03-09 14:54:13.655,9.6600,0.3800,0.6300,0.0625,0.0000,0.1875,86.1250,-2.1250,0.0000,259.9375,
2025-03-09 14:54:13.671,9.6400,0.4200,0.6300,0.5000,-0.5000,0.2500,86.1250,-2.1250,0.0000,259.9375,
2025-03-09 14:54:13.709,9.6500,0.5600,0.6000,1.0000,-0.9375,0.5000,86.1250,-2.1250,0.0000,259.9375,
2025-03-09 14:54:13.709,9.6700,0.6300,0.5600,0.7500,-0.7500,0.2500,86.1875,-2.1250,0.0000,259.9375,
2025-03-09 14:54:13.709,9.6800,0.6300,0.5800,-0.1250,-0.1875,0.0625,86.1250,-2.1250,0.0000,259.9375,
2025-03-09 14:54:13.709,9.6800,0.5800,0.5900,-1.7500,0.7500,-0.0625,86.1250,-2.1250,0.0000,260.0000,
2025-03-09 14:54:13.709,9.6700,0.3800,0.5900,-2.6875,0.9375,-0.0625,86.1250,-2.1250,0.0000,260.0000,
2025-03-09 14:54:13.718,9.6800,0.3600,0.5700,-3.0625,0.6250,-0.1250,86.1250,-2.1250,0.0000,260.0000,
2025-03-09 14:54:13.729,9.6800,0.3800,0.5600,-2.9375,0.1250,0.0000,86.1250,-2.1250,0.0000,260.0625,
2025-03-09 14:54:13.740,9.7000,0.3900,0.5600,-2.1875,-0.3125,0.1875,86.1250,-2.1250,0.0000,260.0625,
2025-03-09 14:54:13.749,9.7100,0.3900,0.5800,-1.1875,-0.3125,0.0625,86.1250,-2.1250,0.0000,260.0625,
2025-03-09 14:54:13.760,9.6900,0.3800,0.5700,-0.4375,0.1875,-0.2500,86.1250,-2.1250,0.0000,260.0625,
2025-03-09 14:54:13.769,9.6600,0.4000,0.5900,0.1250,0.5625,-0.3750,86.1250,-2.1250,0.0000,260.0625,
2025-03-09 14:54:13.781,9.6500,0.3600,0.6400,0.1250,0.6250,-0.5625,86.1250,-2.1250,0.0000,260.0625,
2025-03-09 14:54:13.794,9.6300,0.3900,0.6500,0.0000,0.3125,-0.6250,86.1250,-2.1875,0.0000,260.1250,
2025-03-09 14:54:13.811,9.6300,0.4300,0.6100,-0.3750,0.3125,-0.6875,86.1250,-2.1875,0.0000,260.1250,
2025-03-09 14:54:13.818,9.6400,0.3800,0.5700,-0.6875,0.0625,-0.5625,86.1250,-2.1875,0.0000,260.1250,
2025-03-09 14:54:13.820,9.6300,0.3700,0.5400,-0.5000,0.0000,-0.4375,86.1250,-2.1875,0.0000,260.1250,
2025-03-09 14:54:13.833,9.6100,0.3600,0.5500,0.0000,-0.1875,-0.1875,86.1250,-2.1875,0.0000,260.1250,
2025-03-09 14:54:13.842,9.6100,0.3900,0.5400,0.3750,-0.4375,-0.0625,86.1250,-2.1875,0.0000,260.1250,
2025-03-09 14:54:13.852,9.6300,0.4900,0.5700,1.1250,-0.5000,0.1250,86.1250,-2.1875,0.0000,260.1250,
2025-03-09 14:54:13.863,9.6300,0.5300,0.5900,1.3125,-0.2500,0.1875,86.1250,-2.1875,0.0000,260.0625,
2025-03-09 14:54:13.878,9.6200,0.5500,0.6000,1.1875,-0.2500,0.3125,86.0625,-2.1875,0.0000,260.0625,
2025-03-09 14:54:13.883,9.6100,0.5700,0.6400,0.8125,-0.1875,0.3125,86.0625,-2.1875,0.0000,260.0625,
2025-03-09 14:54:13.895,9.6100,0.5600,0.6400,0.5000,-0.1875,0.0625,86.0625,-2.1875,0.0000,260.0625,
2025-03-09 14:54:13.912,9.6000,0.5300,0.6000,0.0625,-0.1875,0.0000,86.0625,-2.1875,0.0000,260.1250,
2025-03-09 14:54:13.914,9.6400,0.4800,0.5600,0.0000,0.0625,0.0625,86.0625,-2.1875,0.0000,260.1250,
2025-03-09 14:54:13.923,9.6800,0.4100,0.6000,0.1875,0.2500,0.3750,86.0625,-2.1875,0.0000,260.1250,
2025-03-09 14:54:13.933,9.6800,0.4300,0.6000,0.6250,0.0625,0.5000,86.0625,-2.1875,0.0000,260.1250,
2025-03-09 14:54:13.943,9.6800,0.4300,0.6100,1.0625,-0.1250,0.4375,86.0625,-2.1875,0.0000,260.1250,
2025-03-09 14:54:13.953,9.7000,0.4300,0.6000,1.5000,-0.2500,0.3125,86.0625,-2.1875,0.0000,260.0625,
2025-03-09 14:54:14.004,9.7000,0.4700,0.6200,1.4375,-0.2500,0.1250,86.0625,-2.1875,0.0000,260.0625,
2025-03-09 14:54:14.004,9.6900,0.4500,0.6200,1.0625,-0.0625,0.0000,86.0625,-2.1875,0.0000,260.0625,
2025-03-09 14:54:14.004,9.6700,0.4600,0.6800,0.8750,0.1875,0.0625,86.0625,-2.1875,0.0000,260.0625,
2025-03-09 14:54:14.004,9.6200,0.4500,0.6000,0.9375,0.1250,-0.1875,86.0625,-2.2500,0.0000,260.0625,
2025-03-09 14:54:14.004,9.5900,0.4700,0.6200,1.1250,0.0625,-0.3125,86.0625,-2.2500,0.0000,260.0625,
2025-03-09 14:54:14.014,9.5900,0.4800,0.5800,1.1875,-0.0625,-0.5625,86.0625,-2.2500,0.0000,260.0625,
2025-03-09 14:54:14.035,9.6300,0.4800,0.5700,1.1875,-0.1875,-0.4375,86.0625,-2.2500,0.0000,260.0000,
2025-03-09 14:54:14.035,9.6500,0.5100,0.5800,1.0625,0.0000,-0.6250,86.0625,-2.2500,0.0000,260.0000,
2025-03-09 14:54:14.045,9.6600,0.5200,0.6000,0.9375,0.0625,-0.6875,86.0625,-2.2500,0.0000,260.0000,
2025-03-09 14:54:14.055,9.6800,0.5100,0.5700,0.9375,0.1875,-0.5625,86.0000,-2.2500,0.0000,260.0000,
2025-03-09 14:54:14.055,9.6700,0.4900,0.5600,0.5625,0.3125,-0.5000,86.0000,-2.2500,0.0000,260.0000,
2025-03-09 14:54:14.067,9.6600,0.4800,0.5900,0.3125,0.3750,-0.6250,86.0000,-2.2500,0.0000,260.0000,
2025-03-09 14:54:14.089,9.6800,0.4900,0.5900,0.1250,0.3125,-0.4375,86.0000,-2.2500,0.0000,260.0000,
2025-03-09 14:54:14.096,9.6800,0.5000,0.6000,0.3750,0.1250,-0.3125,86.0000,-2.2500,0.0000,260.0000,
2025-03-09 14:54:14.106,9.6600,0.4900,0.5900,0.4375,0.1250,-0.1250,86.0000,-2.2500,0.0000,260.0000,
2025-03-09 14:54:14.117,9.6700,0.5000,0.5800,0.5000,0.0000,0.1250,86.0000,-2.2500,0.0000,260.0625,
2025-03-09 14:54:14.117,9.7000,0.4900,0.6100,0.5625,0.1875,0.3125,86.0000,-2.2500,0.0000,260.0625,
2025-03-09 14:54:14.127,9.6700,0.4600,0.6000,0.1875,0.2500,0.1250,86.0000,-2.2500,0.0000,260.0625,
2025-03-09 14:54:14.158,9.6700,0.4400,0.5800,-0.0625,0.3125,0.3125,86.0000,-2.3125,0.0000,260.0625,
2025-03-09 14:54:14.167,9.6500,0.4100,0.6100,1.0000,0.0000,0.3750,86.0000,-2.3125,0.0000,260.0625,
2025-03-09 14:54:14.190,9.7200,0.4400,0.5900,1.6250,-0.0625,0.6250,86.0000,-2.3125,0.0000,260.0000,
2025-03-09 14:54:14.200,9.7300,0.4500,0.6100,1.6250,0.2500,0.6875,86.0000,-2.2500,0.0000,260.0000,
2025-03-09 14:54:14.219,9.7300,0.5800,0.6000,0.8125,0.5000,1.3750,86.0000,-2.2500,0.0000,260.0000,
2025-03-09 14:54:14.230,9.6200,0.6500,0.5900,0.0000,-0.5000,2.0000,86.0000,-2.2500,0.0000,259.9375,
2025-03-09 14:54:14.252,9.5600,0.6900,0.5700,-0.2500,-0.2500,1.8750,86.0000,-2.2500,0.0000,259.9375,
2025-03-09 14:54:14.260,9.5700,0.6000,0.5700,-1.8750,1.0000,1.3750,86.0000,-2.2500,0.0000,259.9375,
2025-03-09 14:54:14.310,9.6200,0.4000,0.5900,-2.4375,1.7500,0.8750,86.0000,-2.2500,0.0000,260.0000,
2025-03-09 14:54:14.310,9.6400,0.3900,0.6300,-2.6250,1.4375,0.7500,86.0000,-2.1875,0.0000,260.0000,
2025-03-09 14:54:14.310,9.7600,0.3900,0.6000,-2.2500,0.2500,0.3750,85.9375,-2.1875,0.0000,260.0000,
2025-03-09 14:54:14.341,9.6700,0.3200,0.5600,-1.5000,0.3750,0.5625,85.9375,-2.1875,0.0000,260.0625,
2025-03-09 14:54:14.362,9.6300,0.4000,0.6000,-0.3750,0.1875,0.6250,85.9375,-2.1875,0.0000,260.0625,
2025-03-09 14:54:14.373,9.6700,0.5000,0.6200,-0.6250,-0.3750,0.3750,85.9375,-2.1875,0.0000,260.0625,
2025-03-09 14:54:14.392,9.6800,0.5200,0.6900,-1.1250,-0.4375,0.3125,85.9375,-2.1875,0.0000,260.1250,
2025-03-09 14:54:14.403,9.6800,0.4500,0.6800,-2.1250,-0.0625,0.2500,85.9375,-2.1875,0.0000,260.1250,
2025-03-09 14:54:14.423,9.6800,0.3800,0.6900,-3.0625,0.6250,-0.0625,85.9375,-2.1875,0.0000,260.1250,
2025-03-09 14:54:14.434,9.6400,0.2800,0.6900,-2.1875,0.9375,0.1250,85.9375,-2.1875,0.0000,260.1875,
2025-03-09 14:54:14.455,9.6500,0.3000,0.6600,-0.5000,0.7500,0.3125,85.9375,-2.1875,0.0000,260.2500,
2025-03-09 14:54:14.475,9.6200,0.3400,0.6300,0.9375,0.2500,0.6875,85.9375,-2.1875,0.0000,260.2500,
2025-03-09 14:54:14.491,9.6700,0.3800,0.6700,1.1875,0.5625,0.7500,85.9375,-2.1875,0.0000,260.1875,
2025-03-09 14:54:14.505,9.6900,0.4200,0.7100,0.2500,0.8125,0.6250,85.9375,-2.1875,0.0000,260.1875,
2025-03-09 14:54:14.525,9.7000,0.3500,0.6900,-2.5000,-0.3125,0.0000,85.8750,-2.1875,0.0000,260.1875,
2025-03-09 14:54:14.535,9.7500,0.2600,0.7100,-5.5625,-2.4375,-0.6250,85.9375,-2.1875,0.0000,260.2500,
2025-03-09 14:54:14.546,9.8700,0.3300,0.6000,-5.0625,-3.1250,-0.7500,85.9375,-2.1875,0.0000,260.3125,
2025-03-09 14:54:14.566,9.7500,0.3500,0.5400,0.0000,-0.5000,-0.3125,85.9375,-2.1875,0.0000,260.3750,
2025-03-09 14:54:14.606,9.6100,0.5500,0.5600,2.1875,0.5625,0.0625,85.9375,-2.1875,0.0000,260.3125,
2025-03-09 14:54:14.606,9.5900,0.5100,0.6500,0.0625,0.1875,-0.1250,85.9375,-2.1875,0.0000,260.3125,
2025-03-09 14:54:14.626,9.6100,0.5300,0.5300,0.4375,0.6875,-0.1875,85.9375,-2.1875,0.0000,260.3125,
2025-03-09 14:54:14.636,9.6100,0.6200,0.6000,0.5000,1.1875,-0.0625,85.9375,-2.1875,0.0000,260.3125,
2025-03-09 14:54:14.646,9.5900,0.5900,0.6200,0.5625,1.4375,0.1250,85.8750,-2.2500,0.0000,260.3125,
2025-03-09 14:54:14.656,9.6000,0.5200,0.6200,0.5000,1.6250,0.1250,85.8750,-2.2500,0.0000,260.3125,
2025-03-09 14:54:14.686,9.6400,0.3900,0.6100,0.0625,1.1875,0.0625,85.8750,-2.2500,0.0000,260.3750,
2025-03-09 14:54:14.696,9.6700,0.3900,0.5400,0.3750,1.1250,0.1875,85.8125,-2.2500,0.0000,260.3750,
2025-03-09 14:54:14.726,9.6900,0.4400,0.6000,1.1250,1.0000,0.6250,85.8125,-2.2500,0.0000,260.3125,
2025-03-09 14:54:14.748,9.6400,0.4300,0.6900,0.8750,1.0625,0.6875,85.8125,-2.2500,0.0000,260.3125,
2025-03-09 14:54:14.748,9.6300,0.4400,0.6800,0.4375,1.0000,0.6250,85.8125,-2.1875,0.0000,260.3125,
2025-03-09 14:54:14.778,9.6400,0.3700,0.7000,-0.1875,0.8750,0.8125,85.8125,-2.1875,0.0000,260.2500,
2025-03-09 14:54:14.791,9.6400,0.3000,0.7000,-0.1875,0.8125,0.5625,85.7500,-2.1875,0.0000,260.2500,
2025-03-09 14:54:14.808,9.6800,0.3200,0.7000,0.5625,0.7500,0.6250,85.7500,-2.1875,0.0000,260.2500,
2025-03-09 14:54:14.819,9.6300,0.4100,0.6800,1.5000,0.3125,0.4375,85.7500,-2.1875,0.0000,260.2500,
2025-03-09 14:54:14.839,9.6700,0.4100,0.7000,0.8750,0.6875,0.1250,85.7500,-2.1875,0.0000,260.1875,
2025-03-09 14:54:14.850,9.6400,0.3300,0.6700,0.5000,0.9375,0.0625,85.7500,-2.1875,0.0000,260.1875,
2025-03-09 14:54:14.870,9.6600,0.3500,0.6600,0.5625,0.8125,0.1250,85.7500,-2.1875,0.0000,260.1875,
2025-03-09 14:54:14.900,9.6800,0.4000,0.6700,1.0000,0.5000,-0.0625,85.7500,-2.1875,0.0000,260.1875,
2025-03-09 14:54:14.910,9.6600,0.4100,0.7100,1.5000,0.5000,-0.1875,85.7500,-2.1875,0.0000,260.1875,
2025-03-09 14:54:14.910,9.6000,0.4000,0.7100,1.0000,0.5625,-0.1875,85.7500,-2.1875,0.0000,260.1875,
2025-03-09 14:54:14.921,9.6000,0.4100,0.7100,0.5000,0.2500,-0.3750,85.7500,-2.1875,0.0000,260.1875,
2025-03-09 14:54:14.941,9.6100,0.4300,0.6500,-0.1250,0.1875,-0.2500,85.7500,-2.1875,0.0000,260.1875,
2025-03-09 14:54:14.951,9.6000,0.4300,0.6900,0.2500,-0.1250,-0.2500,85.7500,-2.1875,0.0000,260.1875,
2025-03-09 14:54:14.961,9.6300,0.4500,0.6400,0.5000,-0.1250,-0.0625,85.6875,-2.1875,0.0000,260.1875,
2025-03-09 14:54:14.971,9.6300,0.4600,0.6500,0.5625,-0.0625,-0.1250,85.6875,-2.1875,0.0000,260.1875,
2025-03-09 14:54:14.992,9.6100,0.4700,0.6900,-0.2500,0.0625,-0.1250,85.6875,-2.1875,0.0000,260.1875,
2025-03-09 14:54:15.001,9.6100,0.4100,0.7200,-0.4375,0.3125,-0.1250,85.6875,-2.1875,0.0000,260.1875,
2025-03-09 14:54:15.011,9.6100,0.4100,0.7100,-0.3125,0.1250,0.0625,85.6875,-2.1875,0.0000,260.1875,
2025-03-09 14:54:15.024,9.5900,0.3800,0.6500,-0.1250,0.3125,-0.1875,85.6875,-2.1875,0.0000,260.1875,
2025-03-09 14:54:15.040,9.6700,0.3700,0.6700,0.6875,-0.1875,0.0000,85.6875,-2.1875,0.0000,260.1875,
2025-03-09 14:54:15.053,9.6800,0.3900,0.6800,1.1875,-0.2500,0.0625,85.6875,-2.1875,0.0000,260.1875,
2025-03-09 14:54:15.064,9.7200,0.4100,0.6900,1.3125,-0.2500,0.1875,85.6875,-2.1875,0.0000,260.1250,
2025-03-09 14:54:15.073,9.7400,0.4400,0.6700,1.1250,0.0625,-0.0625,85.6875,-2.1875,0.0000,260.1250,
2025-03-09 14:54:15.083,9.7300,0.4200,0.7100,1.0000,0.1875,-0.1875,85.6875,-2.2500,0.0000,260.1250,
2025-03-09 14:54:15.095,9.7200,0.4100,0.7300,0.7500,0.1250,-0.1250,85.6875,-2.2500,0.0000,260.1250,
2025-03-09 14:54:15.104,9.6700,0.4300,0.7000,0.8125,0.1250,-0.2500,85.6875,-2.2500,0.0000,260.1250,
2025-03-09 14:54:15.114,9.6800,0.4200,0.6900,0.8750,0.2500,-0.5000,85.6875,-2.2500,0.0000,260.1250,
2025-03-09 14:54:15.124,9.6200,0.4100,0.6700,0.9375,0.1875,-0.3125,85.6875,-2.2500,0.0000,260.1250,
2025-03-09 14:54:15.134,9.6200,0.4200,0.6600,1.4375,0.0000,-0.2500,85.6875,-2.2500,0.0000,260.0625,
2025-03-09 14:54:15.134,9.5800,0.4700,0.6300,1.5625,0.0000,-0.4375,85.6875,-2.2500,0.0000,260.0625,
2025-03-09 14:54:15.144,9.5800,0.4900,0.6300,1.4375,-0.1875,-0.2500,85.6875,-2.2500,0.0000,260.0625,
2025-03-09 14:54:15.154,9.5900,0.5000,0.5900,1.1250,-0.2500,-0.1875,85.6875,-2.2500,0.0000,260.0625,
2025-03-09 14:54:15.216,9.5900,0.4600,0.6400,0.8125,0.0625,-0.5625,85.6875,-2.2500,0.0000,260.0625,
2025-03-09 14:54:15.216,9.6000,0.4700,0.6400,0.5000,0.1875,-0.4375,85.6875,-2.2500,0.0000,260.0625,
2025-03-09 14:54:15.216,9.6400,0.4400,0.6600,0.3125,0.1875,-0.2500,85.6875,-2.2500,0.0000,260.0625,
2025-03-09 14:54:15.216,9.6400,0.4400,0.6400,0.4375,0.0625,-0.2500,85.6875,-2.2500,0.0000,260.0625,
2025-03-09 14:54:15.216,9.6800,0.4300,0.6600,0.1875,0.0000,-0.4375,85.6875,-2.2500,0.0000,260.0625,
2025-03-09 14:54:15.216,9.6800,0.4600,0.6300,0.4375,-0.1250,-0.3125,85.6875,-2.2500,0.0000,260.0625,
2025-03-09 14:54:15.236,9.6700,0.4400,0.6500,0.3750,-0.1875,-0.3750,85.6875,-2.2500,0.0000,260.0625,
2025-03-09 14:54:15.236,9.6700,0.4800,0.6800,0.1250,-0.1250,-0.4375,85.6875,-2.2500,0.0000,260.0625,
2025-03-09 14:54:15.266,9.6700,0.4000,0.6700,0.1250,-0.0625,-0.3750,85.6875,-2.2500,0.0000,260.0625,
2025-03-09 14:54:15.266,9.6800,0.3900,0.7100,0.0625,0.1875,-0.2500,85.6875,-2.2500,0.0000,260.0625,
2025-03-09 14:54:15.276,9.6700,0.3800,0.6800,0.0625,0.0625,-0.1875,85.6875,-2.2500,0.0000,260.0625,
2025-03-09 14:54:15.276,9.7000,0.3800,0.6700,0.3125,0.0000,-0.0625,85.6875,-2.2500,0.0000,260.0625,
2025-03-09 14:54:15.286,9.6600,0.4100,0.6500,0.6250,-0.1875,0.0625,85.6875,-2.2500,0.0000,260.0625,
2025-03-09 14:54:15.297,9.6900,0.4600,0.6800,1.2500,-0.1875,0.1875,85.6875,-2.2500,0.0000,260.0625,
2025-03-09 14:54:15.307,9.6800,0.4600,0.6400,1.3125,-0.2500,0.1250,85.6875,-2.2500,0.0000,260.0625,
2025-03-09 14:54:15.317,9.6700,0.4100,0.6800,1.0625,0.3750,-0.0625,85.6875,-2.2500,0.0000,260.0000,
2025-03-09 14:54:15.328,9.6500,0.4000,0.7100,0.6250,0.6875,0.0000,85.6875,-2.2500,0.0000,260.0000,
2025-03-09 14:54:15.348,9.6400,0.3500,0.7400,0.2500,1.0625,-0.0625,85.6250,-2.2500,0.0000,260.0000,
2025-03-09 14:54:15.348,9.6200,0.3600,0.7300,0.2500,1.0625,0.0625,85.6250,-2.2500,0.0000,260.0000,
2025-03-09 14:54:15.357,9.5800,0.4000,0.6900,0.8125,0.6250,0.0000,85.6250,-2.2500,0.0000,260.0000,
2025-03-09 14:54:15.368,9.5900,0.4300,0.6700,1.3125,0.1875,0.1875,85.6250,-2.2500,0.0000,260.0000,
2025-03-09 14:54:15.379,9.6300,0.4300,0.6400,1.5625,-0.0625,0.1875,85.6250,-2.2500,0.0000,260.0000,
2025-03-09 14:54:15.390,9.6700,0.4500,0.6300,1.3750,0.0625,0.4375,85.6250,-2.2500,0.0000,260.0000,
2025-03-09 14:54:15.398,9.6900,0.4200,0.6400,1.1875,0.3125,0.2500,85.6250,-2.2500,0.0000,259.9375,
2025-03-09 14:54:15.409,9.7000,0.4400,0.6700,0.8125,0.4375,-0.0625,85.6250,-2.2500,0.0000,259.9375,
2025-03-09 14:54:15.420,9.6900,0.4800,0.6900,0.6250,0.5625,0.1250,85.6250,-2.2500,0.0000,259.9375,
2025-03-09 14:54:15.430,9.6800,0.4700,0.6900,0.6875,0.2500,0.1875,85.6250,-2.2500,0.0000,259.9375,
2025-03-09 14:54:15.442,9.6900,0.4500,0.7000,0.7500,0.1250,0.0000,85.6250,-2.2500,0.0000,259.9375,
2025-03-09 14:54:15.453,9.6600,0.4200,0.7100,0.6875,0.3125,0.1250,85.6250,-2.2500,0.0000,259.9375,
2025-03-09 14:54:15.460,9.6300,0.4000,0.7200,0.3750,0.5000,0.1250,85.6250,-2.2500,0.0000,259.9375,
2025-03-09 14:54:15.502,9.6200,0.4100,0.6800,0.4375,0.2500,0.1875,85.6250,-2.2500,0.0000,259.9375,
2025-03-09 14:54:15.533,9.5800,0.4300,0.7100,0.3125,0.3125,0.1875,85.6250,-2.2500,0.0000,259.9375,
2025-03-09 14:54:15.533,9.6200,0.4800,0.6800,0.3750,0.1875,0.1250,85.6250,-2.2500,0.0000,259.9375,
2025-03-09 14:54:15.533,9.6100,0.4900,0.6500,0.5000,0.0000,0.2500,85.6250,-2.2500,0.0000,259.9375,
2025-03-09 14:54:15.533,9.6000,0.4700,0.6700,0.3125,-0.1875,0.1875,85.6250,-2.2500,0.0000,259.9375,
2025-03-09 14:54:15.533,9.6200,0.4900,0.6700,0.2500,-0.0625,0.2500,85.6250,-2.2500,0.0000,259.9375,
2025-03-09 14:54:15.533,9.6300,0.4200,0.7100,-0.0625,-0.2500,0.3125,85.6250,-2.2500,0.0000,259.9375,
2025-03-09 14:54:15.544,9.6500,0.4300,0.7200,-0.1875,0.0000,0.1250,85.6250,-2.2500,0.0000,259.9375,
2025-03-09 14:54:15.544,9.6200,0.4100,0.7300,-0.1875,0.1875,0.1250,85.6250,-2.2500,0.0000,259.9375,
2025-03-09 14:54:15.558,9.6100,0.4100,0.7100,0.1250,0.0625,-0.0625,85.6250,-2.2500,0.0000,259.9375,
2025-03-09 14:54:15.564,9.6200,0.4100,0.6900,0.5000,0.0625,0.1875,85.6250,-2.3125,0.0000,259.9375,
2025-03-09 14:54:15.584,9.6000,0.4400,0.6900,0.6875,-0.2500,0.1250,85.6250,-2.3125,0.0000,259.9375,
2025-03-09 14:54:15.593,9.6100,0.4400,0.6900,0.9375,-0.1875,0.0000,85.6250,-2.3125,0.0000,259.9375,
2025-03-09 14:54:15.595,9.6900,0.4500,0.6600,1.0000,-0.3125,0.1250,85.6250,-2.3125,0.0000,259.9375,
2025-03-09 14:54:15.615,9.7000,0.4300,0.6800,0.8125,-0.3750,0.0625,85.6250,-2.3125,0.0000,259.9375,
2025-03-09 14:54:15.615,9.7200,0.4300,0.7100,0.3750,-0.4375,0.0625,85.6250,-2.3125,0.0000,259.9375,
2025-03-09 14:54:15.626,9.7100,0.4300,0.7000,0.1875,-0.3750,-0.0625,85.5625,-2.3125,0.0000,259.9375,
2025-03-09 14:54:15.642,9.6900,0.4400,0.7300,0.0625,-0.2500,-0.1250,85.5625,-2.3125,0.0000,259.9375,
2025-03-09 14:54:15.646,9.6900,0.4000,0.7600,0.1875,0.1875,-0.1250,85.5625,-2.3125,0.0000,259.9375,
2025-03-09 14:54:15.660,9.6500,0.4000,0.7500,0.5000,0.0625,-0.3125,85.5625,-2.3125,0.0000,259.9375,
2025-03-09 14:54:15.667,9.6300,0.3900,0.7100,0.6250,0.0625,-0.0625,85.5625,-2.3125,0.0000,259.9375,
2025-03-09 14:54:15.689,9.6400,0.4300,0.6800,1.1250,0.1875,-0.1875,85.5625,-2.3125,0.0000,259.9375,
2025-03-09 14:54:15.693,9.6400,0.4100,0.6700,1.1875,0.0000,-0.3750,85.5625,-2.3125,0.0000,259.8750,
2025-03-09 14:54:15.697,9.6300,0.4300,0.6400,1.1875,-0.1875,-0.3125,85.5625,-2.3125,0.0000,259.8750,
2025-03-09 14:54:15.709,9.6400,0.4500,0.6500,1.1250,-0.1250,-0.1875,85.5625,-2.3125,0.0000,259.8750,
2025-03-09 14:54:15.718,9.6500,0.4700,0.6200,1.0625,-0.1875,-0.3750,85.5625,-2.3125,0.0000,259.8750,
2025-03-09 14:54:15.730,9.6400,0.4500,0.6400,0.7500,-0.0625,-0.5000,85.5625,-2.3125,0.0000,259.8750,
2025-03-09 14:54:15.738,9.6300,0.4600,0.7100,0.6250,-0.0625,-0.5000,85.5625,-2.3125,0.0000,259.8750,
2025-03-09 14:54:15.758,9.6500,0.4200,0.7100,0.3125,0.1250,-0.5000,85.5625,-2.3125,0.0000,259.8750,
2025-03-09 14:54:15.758,9.6400,0.4300,0.6900,0.1875,0.0625,-0.3750,85.5625,-2.3125,0.0000,259.8750,
2025-03-09 14:54:15.800,9.6500,0.4400,0.6700,0.3750,0.1250,-0.3750,85.5625,-2.3125,0.0000,259.8750,
2025-03-09 14:54:15.800,9.6500,0.4400,0.6600,0.5625,-0.0625,-0.3125,85.5625,-2.3125,0.0000,259.8750,
2025-03-09 14:54:15.811,9.6800,0.4600,0.6600,0.6250,-0.2500,-0.1875,85.5625,-2.3125,0.0000,259.8750,
2025-03-09 14:54:15.811,9.6900,0.4500,0.6500,0.6875,-0.1875,-0.2500,85.5625,-2.3125,0.0000,259.8750,
2025-03-09 14:54:15.811,9.6700,0.4700,0.6500,0.7500,-0.0625,-0.3125,85.5625,-2.3125,0.0000,259.8125,
2025-03-09 14:54:15.820,9.6800,0.4700,0.6400,0.4375,0.0000,-0.3125,85.5625,-2.3125,0.0000,259.8125,
2025-03-09 14:54:15.830,9.6700,0.4700,0.6700,0.4375,0.0000,-0.2500,85.5625,-2.3125,0.0000,259.8125,
2025-03-09 14:54:15.841,9.6500,0.4800,0.6800,0.1250,0.1875,-0.1250,85.5625,-2.3125,0.0000,259.8125,
2025-03-09 14:54:15.851,9.6600,0.4700,0.7100,-0.1250,0.1875,-0.1875,85.5625,-2.3125,0.0000,259.8125,
2025-03-09 14:54:15.861,9.6300,0.4500,0.6900,0.0000,0.1250,-0.2500,85.5625,-2.3125,0.0000,259.8125,
2025-03-09 14:54:15.872,9.6700,0.4300,0.6900,-0.1250,0.2500,-0.1250,85.5625,-2.3125,0.0000,259.8125,
2025-03-09 14:54:15.881,9.6700,0.4000,0.7100,-0.2500,0.3125,-0.3125,85.5625,-2.3125,0.0000,259.8125,
2025-03-09 14:54:15.893,9.6600,0.3700,0.7200,-0.5000,0.3750,-0.3125,85.5625,-2.3125,0.0000,259.8125,
2025-03-09 14:54:15.902,9.6400,0.3700,0.7100,-0.2500,0.3750,-0.3125,85.5625,-2.3125,0.0000,259.8125,
2025-03-09 14:54:15.922,9.6100,0.4200,0.7300,0.2500,-0.0625,-0.3750,85.5625,-2.3125,0.0000,259.8125,
2025-03-09 14:54:15.922,9.6300,0.4500,0.6300,0.8750,-0.1875,-0.4375,85.5625,-2.3125,0.0000,259.8125,
2025-03-09 14:54:15.932,9.6700,0.4900,0.6700,1.0000,-0.1250,-0.4375,85.5625,-2.3125,0.0000,259.8125,
2025-03-09 14:54:15.942,9.6600,0.4700,0.6700,0.9375,0.0000,-0.4375,85.5625,-2.3125,0.0000,259.8125,
2025-03-09 14:54:15.952,9.6900,0.4600,0.6900,0.3750,0.1875,-0.5000,85.5625,-2.3125,0.0000,259.8125,
2025-03-09 14:54:15.963,9.6800,0.4400,0.6800,0.1250,0.1875,-0.3125,85.5625,-2.3125,0.0000,259.8125,
2025-03-09 14:54:15.972,9.7100,0.4600,0.6800,0.0625,0.2500,-0.4375,85.5625,-2.3125,0.0000,259.8125,
2025-03-09 14:54:15.982,9.7000,0.4600,0.6900,0.1250,-0.0625,-0.3125,85.5625,-2.3125,0.0000,259.8125,
2025-03-09 14:54:16.002,9.6400,0.4300,0.7000,0.3750,0.1250,-0.3750,85.5625,-2.3125,0.0000,259.8125,
2025-03-09 14:54:16.003,9.6100,0.4000,0.7200,0.2500,0.3125,-0.3750,85.5625,-2.3125,0.0000,259.8125,
2025-03-09 14:54:16.012,9.6200,0.4300,0.7000,0.3750,0.2500,-0.3750,85.5625,-2.3125,0.0000,259.8125,
2025-03-09 14:54:16.042,9.6100,0.4300,0.7000,0.3750,-0.0625,-0.3750,85.5625,-2.3125,0.0000,259.8125,
2025-03-09 14:54:16.042,9.6300,0.4800,0.7100,0.6250,-0.0625,-0.4375,85.5625,-2.3125,0.0000,259.8125,
2025-03-09 14:54:16.042,9.6400,0.4800,0.6900,0.9375,-0.0625,-0.1875,85.5625,-2.3125,0.0000,259.8125,
2025-03-09 14:54:16.052,9.6400,0.5100,0.7000,1.0000,-0.1250,-0.1875,85.5625,-2.3125,0.0000,259.8125,
2025-03-09 14:54:16.103,9.6700,0.5000,0.6800,0.6875,-0.2500,0.1250,85.5625,-2.3125,0.0000,259.8125,
2025-03-09 14:54:16.103,9.6500,0.4900,0.6600,0.4375,-0.0625,-0.0625,85.5625,-2.3125,0.0000,259.8125,
2025-03-09 14:54:16.103,9.6200,0.4700,0.6900,0.0625,-0.0625,-0.1250,85.5625,-2.3125,0.0000,259.8125,
2025-03-09 14:54:16.103,9.6100,0.4600,0.7100,0.0000,0.0000,0.0000,85.5625,-2.3125,0.0000,259.8125,
2025-03-09 14:54:16.103,9.6500,0.4100,0.7200,-0.1875,0.2500,0.0000,85.5625,-2.3125,0.0000,259.8125,
2025-03-09 14:54:16.113,9.6200,0.4300,0.7100,0.0625,0.1875,0.0000,85.5625,-2.3125,0.0000,259.8125,
2025-03-09 14:54:16.123,9.6300,0.4300,0.6900,0.4375,0.0625,0.1250,85.5625,-2.3125,0.0000,259.8125,
2025-03-09 14:54:16.133,9.6400,0.4500,0.6600,0.8750,-0.1250,0.2500,85.5625,-2.3125,0.0000,259.7500,
2025-03-09 14:54:16.143,9.6900,0.4700,0.6800,1.0625,-0.2500,0.3125,85.5625,-2.3125,0.0000,259.7500,
2025-03-09 14:54:16.153,9.7000,0.4800,0.6900,0.8125,-0.0625,0.0625,85.5625,-2.3125,0.0000,259.7500,
2025-03-09 14:54:16.163,9.7000,0.4700,0.6900,0.6250,0.0625,0.0625,85.5625,-2.3125,0.0000,259.7500,
2025-03-09 14:54:16.173,9.6900,0.4700,0.7100,0.4375,0.1250,-0.0625,85.5625,-2.3125,0.0000,259.7500,
2025-03-09 14:54:16.183,9.7000,0.4500,0.7200,0.3125,0.1875,-0.0625,85.5625,-2.3125,0.0000,259.7500,
2025-03-09 14:54:16.204,9.6800,0.4600,0.7300,0.4375,0.4375,-0.1250,85.5625,-2.3125,0.0000,259.7500,
2025-03-09 14:54:16.204,9.6400,0.4600,0.7200,0.3750,0.1875,-0.1250,85.5625,-2.3125,0.0000,259.7500,
2025-03-09 14:54:16.224,9.6300,0.4800,0.7100,0.5000,0.1875,-0.1250,85.5625,-2.3125,0.0000,259.7500,
2025-03-09 14:54:16.224,9.6300,0.4700,0.6400,0.4375,0.3125,-0.1875,85.5625,-2.3125,0.0000,259.7500,
2025-03-09 14:54:16.234,9.6000,0.4900,0.6600,0.5625,-0.0625,-0.1250,85.5625,-2.3125,0.0000,259.7500,
2025-03-09 14:54:16.244,9.6200,0.4800,0.6500,0.5000,0.1250,-0.1875,85.5625,-2.3125,0.0000,259.7500,
2025-03-09 14:54:16.254,9.6400,0.4900,0.6500,0.1875,0.1250,-0.2500,85.5625,-2.3125,0.0000,259.7500,
2025-03-09 14:54:16.264,9.6300,0.4900,0.6700,0.1875,0.1250,-0.2500,85.5625,-2.3125,0.0000,259.7500,
2025-03-09 14:54:16.274,9.6400,0.4700,0.6600,0.0000,0.1875,-0.3750,85.5625,-2.3125,0.0000,259.7500,
2025-03-09 14:54:16.284,9.6300,0.4700,0.6800,-0.3125,0.0000,-0.2500,85.5625,-2.3125,0.0000,259.7500,
2025-03-09 14:54:16.294,9.6200,0.4500,0.7100,-0.2500,0.2500,-0.2500,85.5625,-2.3125,0.0000,259.7500,
2025-03-09 14:54:16.304,9.6600,0.4400,0.7200,-0.3125,0.1250,-0.1250,85.5625,-2.3125,0.0000,259.7500,
2025-03-09 14:54:16.314,9.6900,0.4500,0.6800,-0.1875,0.0625,-0.1875,85.5625,-2.3125,0.0000,259.7500,
2025-03-09 14:54:16.324,9.6900,0.4800,0.6700,-0.0625,0.1875,0.0625,85.5625,-2.3125,0.0000,259.7500,
2025-03-09 14:54:16.334,9.6900,0.4800,0.7000,-0.0625,-0.0625,0.0625,85.5625,-2.3125,0.0000,259.7500,
2025-03-09 14:54:16.344,9.6800,0.5000,0.7000,-0.3125,0.2500,-0.0625,85.5625,-2.3125,0.0000,259.7500,
2025-03-09 14:54:16.346,9.6800,0.4600,0.7100,-0.3750,0.4375,-0.0625,85.5625,-2.3125,0.0000,259.7500,
2025-03-09 14:54:16.364,9.6600,0.4300,0.7100,-0.1875,0.3750,-0.1250,85.5625,-2.3125,0.0000,259.7500,
2025-03-09 14:54:16.406,9.6700,0.4200,0.7100,0.0625,0.1875,0.0000,85.5625,-2.3125,0.0000,259.7500,
2025-03-09 14:54:16.406,9.6400,0.4000,0.7000,0.4375,0.1875,0.0000,85.5625,-2.3125,0.0000,259.7500,
2025-03-09 14:54:16.406,9.6400,0.4300,0.6900,0.7500,0.1250,0.1250,85.5625,-2.3125,0.0000,259.7500,
2025-03-09 14:54:16.406,9.6700,0.4700,0.7100,1.0625,-0.1875,0.2500,85.5625,-2.3125,0.0000,259.7500,
2025-03-09 14:54:16.415,9.6100,0.4900,0.7000,0.9375,-0.0625,0.1875,85.5625,-2.3125,0.0000,259.7500,
2025-03-09 14:54:16.425,9.6400,0.5100,0.6800,0.5625,0.2500,0.2500,85.5625,-2.3125,0.0000,259.7500,
2025-03-09 14:54:16.439,9.6700,0.4700,0.7100,0.3125,0.2500,0.0000,85.5625,-2.3125,0.0000,259.7500,
2025-03-09 14:54:16.439,9.6800,0.4600,0.7100,-0.2500,0.5000,-0.1875,85.5625,-2.3125,0.0000,259.7500,
2025-03-09 14:54:16.466,9.6300,0.4400,0.7300,0.4375,0.4375,-0.3125,85.5625,-2.3125,0.0000,259.7500,
2025-03-09 14:54:16.468,9.6100,0.4700,0.7300,0.8125,0.3125,-0.1875,85.5625,-2.3125,0.0000,259.7500,
2025-03-09 14:54:16.489,9.6400,0.4900,0.7000,1.1250,0.0000,-0.1250,85.5625,-2.3125,0.0000,259.6875,
2025-03-09 14:54:16.528,9.6900,0.4600,0.6500,0.6875,0.3125,-0.2500,85.5625,-2.3125,0.0000,259.6875,
2025-03-09 14:54:16.538,9.7000,0.5100,0.6700,0.5000,0.1875,-0.1875,85.5625,-2.3125,0.0000,259.6875,
2025-03-09 14:54:16.557,9.7100,0.5000,0.6800,0.0000,0.5625,-0.3750,85.5625,-2.3125,0.0000,259.6875,
2025-03-09 14:54:16.557,9.6300,0.4200,0.7700,-0.3750,0.5000,-0.3750,85.5625,-2.3125,0.0000,259.6875,
2025-03-09 14:54:16.578,9.5900,0.4300,0.7400,-0.0625,0.1875,-0.1875,85.5625,-2.3125,0.0000,259.6875,
2025-03-09 14:54:16.598,9.6000,0.4400,0.7400,0.6875,0.0000,-0.1250,85.5625,-2.3125,0.0000,259.6875,
2025-03-09 14:54:16.609,9.6500,0.4900,0.6600,0.8750,-0.1875,-0.0625,85.5625,-2.3125,0.0000,259.6875,
2025-03-09 14:54:16.628,9.6100,0.4800,0.7100,-0.0625,0.2500,-0.0625,85.5625,-2.3125,0.0000,259.6875,
2025-03-09 14:54:16.660,9.6100,0.4800,0.7400,-0.5625,0.4375,-0.1250,85.5625,-2.3125,0.0000,259.6875,
2025-03-09 14:54:16.670,9.6300,0.4200,0.7300,-0.5625,0.2500,0.0000,85.5625,-2.3125,0.0000,259.6875,
2025-03-09 14:54:16.711,9.6200,0.4400,0.7100,0.5000,-0.2500,0.1875,85.5625,-2.3125,0.0000,259.6875,
2025-03-09 14:54:16.711,9.6300,0.4900,0.7000,0.9375,-0.1250,0.1250,85.5625,-2.3125,0.0000,259.6875,
2025-03-09 14:54:16.732,9.6900,0.4800,0.7100,0.6250,-0.0625,-0.0625,85.5625,-2.3125,0.0000,259.6250,
2025-03-09 14:54:16.741,9.6800,0.4500,0.7400,-0.1875,0.1875,-0.1875,85.5625,-2.3125,0.0000,259.6250,
2025-03-09 14:54:16.762,9.6700,0.4500,0.7800,-0.1250,0.0625,-0.3125,85.5625,-2.3125,0.0000,259.6250,
2025-03-09 14:54:16.762,9.6500,0.4300,0.7500,0.6250,-0.1875,-0.3125,85.5625,-2.3125,0.0000,259.6250,
2025-03-09 14:54:16.795,9.6400,0.4400,0.7000,1.2500,-0.2500,-0.3125,85.5625,-2.3125,0.0000,259.6250,
2025-03-09 14:54:16.803,9.6400,0.5400,0.7000,1.0625,-0.1875,-0.3750,85.5625,-2.3125,0.0000,259.6250,
2025-03-09 14:54:16.814,9.6200,0.5300,0.7100,0.1875,-0.3125,-0.3750,85.5625,-2.3125,0.0000,259.6250,
2025-03-09 14:54:16.833,9.6000,0.5100,0.6800,-0.1250,0.0000,-0.2500,85.5625,-2.3125,0.0000,259.6250,
2025-03-09 14:54:16.853,9.6000,0.4800,0.7100,-0.1875,-0.1250,-0.1875,85.5625,-2.3125,0.0000,259.6250,
2025-03-09 14:54:16.864,9.6100,0.4600,0.7200,0.1875,0.0000,-0.1250,85.5625,-2.3125,0.0000,259.6250,
2025-03-09 14:54:16.884,9.6200,0.4600,0.6700,0.5625,-0.3125,-0.0625,85.5625,-2.3125,0.0000,259.6250,
2025-03-09 14:54:16.897,9.6700,0.5000,0.7100,0.6250,-0.4375,-0.0625,85.5625,-2.3125,0.0000,259.6250,
2025-03-09 14:54:16.916,9.6900,0.5100,0.6900,0.0625,-0.1875,-0.1250,85.5625,-2.3125,0.0000,259.6250,
2025-03-09 14:54:17.008,9.6700,0.4400,0.7100,-0.1875,-0.0625,0.0000,85.5625,-2.3125,0.0000,259.6250,
2025-03-09 14:54:17.008,9.6500,0.4200,0.7500,0.0000,0.0625,0.0625,85.5625,-2.3125,0.0000,259.6250,
2025-03-09 14:54:17.008,9.6400,0.4400,0.7200,0.6250,-0.1250,0.1250,85.5625,-2.3125,0.0000,259.6250,
2025-03-09 14:54:17.011,9.6500,0.4800,0.6700,0.8750,-0.3750,0.0000,85.5625,-2.3125,0.0000,259.5625,
2025-03-09 14:54:17.011,9.6400,0.5300,0.7000,0.7500,-0.2500,-0.0625,85.5625,-2.3125,0.0000,259.5625,
2025-03-09 14:54:17.011,9.6600,0.5100,0.7200,-0.1250,0.1875,-0.2500,85.5625,-2.3125,0.0000,259.5625,
2025-03-09 14:54:17.027,9.6400,0.4400,0.7600,-0.3750,0.1250,-0.4375,85.5625,-2.3125,0.0000,259.5625,
2025-03-09 14:54:17.057,9.6200,0.4700,0.7200,0.4375,0.0625,-0.2500,85.5625,-2.3125,0.0000,259.5625,
2025-03-09 14:54:17.057,9.6000,0.5100,0.7000,0.9375,-0.1250,-0.2500,85.5625,-2.3125,0.0000,259.5625,
2025-03-09 14:54:17.087,9.6500,0.5200,0.6700,1.0625,-0.1875,-0.3125,85.5625,-2.3125,0.0000,259.5625,
2025-03-09 14:54:17.098,9.6900,0.4700,0.6800,-0.1250,0.1250,-0.3750,85.5625,-2.3125,0.0000,259.5625,
2025-03-09 14:54:17.118,9.7200,0.5200,0.7000,-0.3125,0.0625,-0.4375,85.5625,-2.3125,0.0000,259.5625,
2025-03-09 14:54:17.128,9.6900,0.4900,0.6800,0.1250,0.0000,-0.1875,85.5625,-2.3125,0.0000,259.5625,
2025-03-09 14:54:17.148,9.6500,0.4800,0.7400,0.2500,0.2500,-0.2500,85.5625,-2.3125,0.0000,259.5625,
2025-03-09 14:54:17.168,9.6200,0.5500,0.7400,0.1875,0.5000,-0.2500,85.5625,-2.3125,0.0000,259.5625,
2025-03-09 14:54:17.178,9.6400,0.5600,0.7300,-0.8125,1.0625,-0.0625,85.5625,-2.3125,0.0000,259.5625,
2025-03-09 14:54:17.198,9.6200,0.4700,0.7100,-1.5625,1.1875,0.4375,85.5625,-2.3125,0.0000,259.5625,
2025-03-09 14:54:17.208,9.6300,0.4700,0.6700,-1.3125,0.6250,0.5000,85.5625,-2.3125,0.0000,259.5625,
2025-03-09 14:54:17.220,9.6600,0.4900,0.6700,-1.0625,0.0625,0.5625,85.5625,-2.3125,0.0000,259.6250,
2025-03-09 14:54:17.240,9.6100,0.4800,0.6800,-0.5000,0.1250,0.6250,85.5625,-2.3125,0.0000,259.5625,
2025-03-09 14:54:17.259,9.6100,0.4300,0.7600,-0.3125,0.0625,0.8125,85.5625,-2.3125,0.0000,259.5625,
2025-03-09 14:54:17.311,9.5900,0.4400,0.7600,-0.1875,0.1875,0.9375,85.5625,-2.2500,0.0000,259.5625,
2025-03-09 14:54:17.311,9.6600,0.4400,0.7600,-0.0625,0.3125,0.8125,85.5625,-2.2500,0.0000,259.5625,
2025-03-09 14:54:17.311,9.7200,0.4300,0.7200,0.5000,0.0625,0.7500,85.5625,-2.2500,0.0000,259.5000,
2025-03-09 14:54:17.336,9.6900,0.4600,0.7100,1.2500,0.0625,0.6250,85.5625,-2.2500,0.0000,259.5000,
2025-03-09 14:54:17.354,9.6500,0.4900,0.7400,1.3125,0.1250,0.3750,85.5625,-2.2500,0.0000,259.5000,
2025-03-09 14:54:17.363,9.6000,0.4800,0.7200,1.1875,0.1250,0.2500,85.5625,-2.2500,0.0000,259.4375,
2025-03-09 14:54:17.378,9.5900,0.4800,0.7300,0.9375,-0.0625,0.0625,85.5625,-2.2500,0.0000,259.4375,
2025-03-09 14:54:17.387,9.6100,0.5100,0.7000,1.1250,0.1250,0.1875,85.5625,-2.2500,0.0000,259.4375,
2025-03-09 14:54:17.397,9.6100,0.5500,0.6800,1.0625,-0.0625,0.1250,85.5625,-2.2500,0.0000,259.4375,
2025-03-09 14:54:17.414,9.6100,0.5600,0.7000,0.5625,-0.3750,0.1250,85.5625,-2.2500,0.0000,259.4375,
2025-03-09 14:54:17.426,9.6300,0.5000,0.6900,0.2500,-0.7500,0.1250,85.6250,-2.2500,0.0000,259.4375,
2025-03-09 14:54:17.435,9.6600,0.5000,0.6700,0.6875,-0.7500,0.4375,85.6250,-2.2500,0.0000,259.4375,
2025-03-09 14:54:17.445,9.6500,0.4900,0.7100,0.1250,-0.2500,0.3750,85.6250,-2.2500,0.0000,259.4375,
2025-03-09 14:54:17.455,9.6600,0.4500,0.7800,-0.2500,-0.2500,0.3125,85.6250,-2.2500,0.0000,259.4375,
2025-03-09 14:54:17.475,9.6800,0.4600,0.7600,-0.3750,-0.1250,0.3750,85.6250,-2.2500,0.0000,259.4375,
2025-03-09 14:54:17.485,9.6500,0.4500,0.7300,-0.3125,-0.0625,0.6250,85.6250,-2.2500,0.0000,259.4375,
2025-03-09 14:54:17.485,9.6600,0.5100,0.7100,0.1250,-0.2500,0.5000,85.6250,-2.2500,0.0000,259.4375,
2025-03-09 14:54:17.498,9.7000,0.3800,0.7200,0.4375,-0.5625,0.3750,85.6250,-2.2500,0.0000,259.4375,
2025-03-09 14:54:17.505,9.7000,0.3500,0.7300,0.9375,-0.1875,0.3750,85.6250,-2.2500,0.0000,259.3750,
2025-03-09 14:54:17.535,9.6800,0.3600,0.7400,1.0625,-0.1250,0.6250,85.6250,-2.2500,0.0000,259.3750,
2025-03-09 14:54:17.535,9.6900,0.3600,0.7200,1.1250,-0.0625,0.6250,85.6250,-2.2500,0.0000,259.3750,
2025-03-09 14:54:17.545,9.6600,0.4200,0.8000,1.2500,-0.2500,0.5625,85.6250,-2.2500,0.0000,259.3750,
2025-03-09 14:54:17.545,9.6200,0.4400,0.7600,1.1250,-0.3125,0.6875,85.6250,-2.1875,0.0000,259.3125,
2025-03-09 14:54:17.566,9.6100,0.4600,0.7700,1.1250,-0.3125,0.6875,85.6250,-2.1875,0.0000,259.3125,
2025-03-09 14:54:17.607,9.5900,0.4500,0.7000,1.5000,-0.3750,0.6875,85.6250,-2.1875,0.0000,259.3125,
2025-03-09 14:54:17.607,9.6300,0.4600,0.6800,1.7500,-0.2500,0.7500,85.6250,-2.1875,0.0000,259.2500,
2025-03-09 14:54:17.607,9.6000,0.4700,0.6900,1.5625,-0.2500,0.4375,85.6250,-2.1875,0.0000,259.2500,
2025-03-09 14:54:17.607,9.5900,0.5200,0.6800,1.3750,-0.4375,0.5000,85.6250,-2.1875,0.0000,259.2500,
2025-03-09 14:54:17.607,9.6100,0.5100,0.6900,0.6875,-0.3750,0.3125,85.6250,-2.1875,0.0000,259.2500,
2025-03-09 14:54:17.618,9.6400,0.4700,0.7100,0.1250,-0.3750,0.1250,85.6250,-2.1875,0.0000,259.2500,
2025-03-09 14:54:17.628,9.6600,0.4300,0.7100,0.0625,-0.3125,0.1875,85.6250,-2.1875,0.0000,259.2500,
2025-03-09 14:54:17.639,9.6400,0.3800,0.7400,0.5625,-0.2500,0.2500,85.6250,-2.1875,0.0000,259.2500,
2025-03-09 14:54:17.648,9.6000,0.4500,0.7300,1.6250,-0.6875,0.2500,85.6250,-2.1875,0.0000,259.2500,
2025-03-09 14:54:17.668,9.6100,0.5000,0.7200,1.9375,-0.9375,0.5000,85.6250,-2.1875,0.0000,259.1875,
2025-03-09 14:54:17.679,9.6100,0.5300,0.7000,1.5000,-0.8750,0.3750,85.6250,-2.1875,0.0000,259.1875,
2025-03-09 14:54:17.679,9.6500,0.5200,0.6800,1.0625,-0.8125,0.4375,85.6250,-2.1875,0.0000,259.1875,
2025-03-09 14:54:17.694,9.6600,0.4900,0.6800,0.5000,-0.3750,0.2500,85.6250,-2.1875,0.0000,259.1875,
2025-03-09 14:54:17.699,9.6700,0.4400,0.6900,0.0000,-0.1875,0.2500,85.6250,-2.1875,0.0000,259.1875,
2025-03-09 14:54:17.720,9.6900,0.4100,0.7000,-0.2500,-0.3125,0.1250,85.6250,-2.1875,0.0000,259.1875,
2025-03-09 14:54:17.720,9.6900,0.4000,0.7100,-0.0625,-0.6250,0.1250,85.6875,-2.1875,0.0000,259.1875,
2025-03-09 14:54:17.740,9.7200,0.3800,0.6800,0.6250,-0.6250,0.0625,85.6875,-2.1875,0.0000,259.1875,
2025-03-09 14:54:17.740,9.7000,0.3500,0.7300,1.3750,-0.3125,0.0625,85.6875,-2.1875,0.0000,259.1875,
2025-03-09 14:54:17.751,9.6700,0.3600,0.7800,1.7500,-0.1875,0.2500,85.6875,-2.1875,0.0000,259.1875,
2025-03-09 14:54:17.761,9.6700,0.4000,0.8200,2.0625,-0.3125,0.5000,85.6875,-2.1875,0.0000,259.1250,
2025-03-09 14:54:17.772,9.6800,0.4700,0.7900,2.0000,-0.4375,0.6875,85.6875,-2.1875,0.0000,259.1250,
2025-03-09 14:54:17.783,9.6900,0.5200,0.7500,1.6250,0.1250,0.6875,85.6875,-2.1875,0.0000,259.0625,
2025-03-09 14:54:17.798,9.6100,0.5300,0.7000,0.9375,0.1875,0.7500,85.6875,-2.1875,0.0000,259.0625,
2025-03-09 14:54:17.813,9.5800,0.5100,0.6600,0.5000,0.1875,0.6250,85.6875,-2.1875,0.0000,259.0625,
2025-03-09 14:54:17.813,9.5700,0.4400,0.6000,0.2500,0.1875,0.5000,85.6875,-2.1875,0.0000,259.0625,
2025-03-09 14:54:17.813,9.5800,0.4100,0.5900,0.3750,-0.1250,0.5625,85.6875,-2.1875,0.0000,259.0625,
2025-03-09 14:54:17.843,9.5900,0.4400,0.6200,0.9375,-0.1875,0.5000,85.6875,-2.1875,0.0000,259.0625,
2025-03-09 14:54:17.843,9.6000,0.4700,0.6900,1.1250,-0.0625,0.4375,85.6875,-2.1875,0.0000,259.0625,
2025-03-09 14:54:17.853,9.6100,0.4300,0.7100,1.0000,-0.0625,0.5000,85.6875,-2.1875,0.0000,259.0625,
2025-03-09 14:54:17.853,9.5900,0.4700,0.7400,0.7500,0.0625,0.5000,85.6875,-2.1875,0.0000,259.0625,
2025-03-09 14:54:17.873,9.6100,0.4700,0.7300,0.5625,-0.1875,0.6250,85.6875,-2.1875,0.0000,259.0000,
2025-03-09 14:54:17.904,9.6700,0.4500,0.6900,0.6250,-0.4375,0.6250,85.6875,-2.1875,0.0000,259.0000,
2025-03-09 14:54:17.904,9.7300,0.4400,0.7400,0.4375,-0.2500,0.5000,85.6875,-2.1875,0.0000,259.0000,
2025-03-09 14:54:17.904,9.7200,0.4500,0.7600,0.3125,0.2500,0.5000,85.6875,-2.1875,0.0000,259.0000,
2025-03-09 14:54:17.904,9.7300,0.4200,0.7600,0.1875,0.4375,0.4375,85.6875,-2.1875,0.0000,259.0000,
2025-03-09 14:54:17.914,9.7300,0.4300,0.7500,0.5000,0.4375,0.5000,85.6875,-2.1875,0.0000,259.0000,
2025-03-09 14:54:17.924,9.7000,0.4100,0.6900,0.6250,0.0625,0.4375,85.6875,-2.1875,0.0000,259.0000,
2025-03-09 14:54:17.945,9.6800,0.4200,0.6800,0.5625,-0.4375,0.4375,85.6875,-2.1875,0.0000,259.0000,
2025-03-09 14:54:17.945,9.6600,0.4300,0.7000,0.8750,-0.1250,0.1250,85.6875,-2.1875,0.0000,259.0000,
2025-03-09 14:54:17.980,9.6300,0.4500,0.7300,1.1875,-0.0625,0.1250,85.6875,-2.1875,0.0000,259.0000,
2025-03-09 14:54:17.980,9.6100,0.4700,0.7300,1.1250,0.2500,0.3125,85.6875,-2.1875,0.0000,259.0000,
2025-03-09 14:54:17.980,9.5800,0.4900,0.6800,1.0000,0.4375,0.0625,85.6875,-2.1875,0.0000,259.0000,
2025-03-09 14:54:17.996,9.5800,0.5100,0.6700,0.8750,0.3125,0.1875,85.6875,-2.1875,0.0000,258.9375,
2025-03-09 14:54:17.998,9.5800,0.5200,0.6400,0.6875,-0.0625,-0.0625,85.6875,-2.1875,0.0000,258.9375,
2025-03-09 14:54:18.010,9.5800,0.5500,0.6400,0.3125,-0.1875,-0.1875,85.6875,-2.1875,0.0000,258.9375,
2025-03-09 14:54:18.030,9.6000,0.5100,0.6300,0.0000,0.0000,-0.2500,85.6875,-2.1875,0.0000,258.9375,
2025-03-09 14:54:18.030,9.6300,0.4700,0.7000,-0.5000,0.0000,-0.3750,85.6875,-2.1875,0.0000,258.9375,
2025-03-09 14:54:18.050,9.6400,0.4500,0.7400,-0.9375,0.0625,-0.3750,85.6875,-2.1875,0.0000,258.9375,
2025-03-09 14:54:18.050,9.6500,0.4400,0.7300,-1.0000,0.1875,-0.3125,85.6875,-2.1875,0.0000,259.0000,
2025-03-09 14:54:18.067,9.6500,0.4200,0.7400,-0.8750,0.0000,-0.3125,85.6875,-2.1875,0.0000,259.0000,
2025-03-09 14:54:18.078,9.6800,0.4100,0.7200,-1.0000,0.0625,-0.1875,85.6875,-2.1875,0.0000,259.0000,
2025-03-09 14:54:18.078,9.6800,0.3900,0.7200,-0.6875,0.0625,-0.0625,85.6875,-2.1875,0.0000,259.0000,
2025-03-09 14:54:18.088,9.6700,0.4100,0.7100,-0.3750,-0.1250,0.1250,85.6875,-2.1875,0.0000,259.0000,
2025-03-09 14:54:18.100,9.6700,0.4200,0.6800,0.1250,-0.1250,0.1875,85.6875,-2.1875,0.0000,259.0000,
2025-03-09 14:54:18.109,9.6600,0.4300,0.6700,0.1875,0.0000,0.0625,85.6875,-2.1875,0.0000,259.0000,
2025-03-09 14:54:18.121,9.6800,0.4700,0.6900,-0.0625,-0.0625,-0.1250,85.6875,-2.1875,0.0000,259.0000,
2025-03-09 14:54:18.130,9.6500,0.4800,0.7000,0.0000,0.0000,-0.1250,85.6875,-2.1875,0.0000,259.0000,
2025-03-09 14:54:18.141,9.6500,0.4400,0.7100,0.0625,0.1250,-0.1250,85.6875,-2.1875,0.0000,259.0000,
2025-03-09 14:54:18.154,9.6900,0.4300,0.7400,-0.1875,-0.1250,0.0000,85.6875,-2.1875,0.0000,259.0000,
2025-03-09 14:54:18.163,9.7000,0.4500,0.7500,-0.1250,-0.1250,-0.0625,85.6875,-2.1875,0.0000,259.0000,
2025-03-09 14:54:18.172,9.6400,0.4700,0.7700,-0.0625,-0.0625,0.0000,85.6875,-2.1875,0.0000,259.0000,
2025-03-09 14:54:18.205,9.6400,0.4400,0.7200,-0.1250,0.1875,0.0625,85.6875,-2.1875,0.0000,259.0000,
2025-03-09 14:54:18.205,9.5900,0.4300,0.7100,-0.1250,0.3750,0.0625,85.6875,-2.1875,0.0000,259.0000,
2025-03-09 14:54:18.205,9.5800,0.4100,0.6900,0.0000,0.3750,0.1250,85.6875,-2.1875,0.0000,259.0000,
2025-03-09 14:54:18.213,9.6100,0.4200,0.6500,0.3750,0.1875,0.0625,85.6875,-2.1875,0.0000,259.0000,
2025-03-09 14:54:18.222,9.6100,0.4400,0.6700,0.6250,0.1250,0.0625,85.6875,-2.1875,0.0000,259.0000,
2025-03-09 14:54:18.233,9.6600,0.4100,0.7000,0.6875,0.1250,-0.0625,85.6875,-2.1875,0.0000,259.0000,
2025-03-09 14:54:18.243,9.6600,0.4400,0.7500,0.5625,0.1250,0.0625,85.6875,-2.1875,0.0000,259.0000,
2025-03-09 14:54:18.253,9.6700,0.4400,0.7400,0.2500,0.1250,-0.1250,85.6875,-2.1875,0.0000,259.0000,
2025-03-09 14:54:18.264,9.6200,0.4900,0.7400,0.0625,-0.1875,-0.1250,85.6875,-2.1875,0.0000,259.0000,
2025-03-09 14:54:18.274,9.6100,0.5200,0.7100,0.5000,-0.3125,0.0000,85.6875,-2.1875,0.0000,259.0000,
2025-03-09 14:54:18.284,9.6100,0.4700,0.6900,0.6250,-0.1250,-0.1250,85.6875,-2.1875,0.0000,259.0000,
2025-03-09 14:54:18.284,9.6400,0.4400,0.6900,0.5625,0.1250,-0.1875,85.6875,-2.1875,0.0000,259.0000,
2025-03-09 14:54:18.299,9.6700,0.4300,0.6800,0.1250,0.1875,-0.1875,85.6875,-2.1875,0.0000,259.0000,
2025-03-09 14:54:18.316,9.6800,0.4400,0.6900,-0.3125,0.1875,-0.3125,85.6875,-2.1875,0.0000,259.0000,
2025-03-09 14:54:18.316,9.7100,0.4700,0.6900,-0.3750,0.1250,-0.1250,85.6875,-2.1875,0.0000,259.0000,
2025-03-09 14:54:18.325,9.7100,0.4700,0.6800,-0.4375,-0.1875,-0.2500,85.6875,-2.1875,0.0000,259.0000,
2025-03-09 14:54:18.345,9.6700,0.4700,0.7000,-0.3750,0.0625,-0.1875,85.6875,-2.1875,0.0000,259.0000,
2025-03-09 14:54:18.347,9.6300,0.4200,0.7300,-0.5000,0.1250,-0.1250,85.6875,-2.1875,0.0000,259.0000,
2025-03-09 14:54:18.355,9.6200,0.4400,0.7600,-0.2500,0.0000,-0.1250,85.6875,-2.1875,0.0000,259.0000,
2025-03-09 14:54:18.366,9.6200,0.4300,0.7500,0.2500,0.0000,-0.1875,85.6875,-2.1875,0.0000,259.0000,
2025-03-09 14:54:18.380,9.5900,0.4700,0.7300,0.5000,0.0625,0.0000,85.6875,-2.1875,0.0000,259.0000,
2025-03-09 14:54:18.399,9.6000,0.4900,0.6800,0.2500,0.0000,0.0625,85.6875,-2.1875,0.0000,259.0000,
2025-03-09 14:54:18.399,9.5900,0.4700,0.7000,0.0000,-0.1250,0.0625,85.6875,-2.1875,0.0000,259.0000,
2025-03-09 14:54:18.408,9.6100,0.4900,0.6700,-0.3750,-0.2500,0.2500,85.6875,-2.1875,0.0000,259.0000,
2025-03-09 14:54:18.418,9.6500,0.4900,0.6500,-0.5625,-0.1250,0.1875,85.6875,-2.1875,0.0000,259.0000,
2025-03-09 14:54:18.428,9.6200,0.4500,0.7000,-0.7500,-0.1250,0.4375,85.6875,-2.1875,0.0000,259.0000,
2025-03-09 14:54:18.439,9.6200,0.4400,0.7100,-0.6875,0.0625,0.4375,85.6875,-2.1875,0.0000,259.0000,
2025-03-09 14:54:18.460,9.6500,0.4400,0.7400,-0.7500,0.1875,0.3750,85.6875,-2.1875,0.0000,259.0000,
2025-03-09 14:54:18.460,9.6100,0.4000,0.7200,-0.5625,0.1250,0.5000,85.6875,-2.1875,0.0000,259.0000,
2025-03-09 14:54:18.510,9.6400,0.4400,0.7000,-0.4375,0.0000,0.3750,85.6875,-2.1875,0.0000,259.0000,
2025-03-09 14:54:18.510,9.6300,0.4300,0.7100,-0.1875,-0.3125,0.3750,85.6875,-2.1875,0.0000,259.0000,
2025-03-09 14:54:18.510,9.6400,0.4300,0.7100,0.1875,-0.3125,0.1875,85.6875,-2.1875,0.0000,259.0000,
2025-03-09 14:54:18.510,9.6600,0.4300,0.7600,0.0625,-0.1875,0.1875,85.6875,-2.1875,0.0000,259.0000,
2025-03-09 14:54:18.510,9.6800,0.4000,0.7400,0.0000,-0.0625,0.1875,85.6875,-2.1875,0.0000,259.0000,
2025-03-09 14:54:18.530,9.7000,0.4000,0.7600,-0.0625,-0.1250,0.2500,85.6875,-2.1875,0.0000,259.0000,
2025-03-09 14:54:18.533,9.7100,0.4300,0.7500,-0.0625,-0.1250,0.1875,85.6875,-2.1875,0.0000,259.0000,
2025-03-09 14:54:18.541,9.6900,0.4200,0.7700,-0.0625,-0.3750,0.1250,85.6875,-2.1875,0.0000,259.0000,
2025-03-09 14:54:18.561,9.6600,0.4400,0.7800,0.0000,-0.5000,-0.0625,85.6875,-2.1875,0.0000,259.0000,
2025-03-09 14:54:18.562,9.6700,0.4300,0.7700,0.3750,-0.3125,-0.0625,85.6875,-2.1875,0.0000,259.0000,
2025-03-09 14:54:18.572,9.6400,0.4400,0.7200,0.5625,-0.1250,0.0625,85.6875,-2.1875,0.0000,259.0000,
2025-03-09 14:54:18.592,9.6000,0.4400,0.7100,0.5000,-0.2500,-0.1250,85.6875,-2.1875,0.0000,259.0000,
2025-03-09 14:54:18.592,9.6100,0.4500,0.7100,0.3125,-0.3750,-0.1250,85.6875,-2.1875,0.0000,259.0000,
2025-03-09 14:54:18.602,9.6000,0.4600,0.7200,0.2500,-0.2500,-0.1875,85.6875,-2.1875,0.0000,259.0000,
2025-03-09 14:54:18.612,9.6200,0.4600,0.7000,0.0625,-0.1875,-0.1875,85.6875,-2.1875,0.0000,259.0000,
2025-03-09 14:54:18.622,9.6100,0.4500,0.6700,-0.0625,-0.2500,-0.1250,85.6875,-2.1875,0.0000,259.0000,
2025-03-09 14:54:18.632,9.6200,0.4700,0.6700,0.0000,-0.1250,-0.0625,85.6875,-2.1875,0.0000,259.0000,
2025-03-09 14:54:18.642,9.6400,0.4500,0.7100,-0.1250,0.0000,0.1250,85.6875,-2.1875,0.0000,259.0000,
2025-03-09 14:54:18.652,9.6500,0.4500,0.7100,-0.2500,0.1250,-0.0625,85.6875,-2.1875,0.0000,259.0000,
2025-03-09 14:54:18.672,9.6900,0.4100,0.7100,-0.3750,0.1875,-0.1250,85.6875,-2.1875,0.0000,259.0000,
2025-03-09 14:54:18.682,9.7000,0.4100,0.7100,-0.2500,0.3750,-0.1250,85.6875,-2.1875,0.0000,259.0000,
2025-03-09 14:54:18.692,9.6800,0.4300,0.6900,-0.2500,0.4375,0.0625,85.6875,-2.1875,0.0000,259.0000,
2025-03-09 14:54:18.702,9.6500,0.4100,0.6900,0.1250,0.2500,0.0000,85.6875,-2.1875,0.0000,259.0000,
2025-03-09 14:54:18.712,9.6400,0.4500,0.6800,0.1250,-0.1250,-0.1250,85.6875,-2.1875,0.0000,259.0000,
2025-03-09 14:54:18.724,9.6400,0.4400,0.6700,0.5000,-0.1250,-0.1250,85.6875,-2.1875,0.0000,259.0000,
2025-03-09 14:54:18.733,9.6500,0.4400,0.6800,0.5000,-0.0625,0.0000,85.6875,-2.1875,0.0000,259.0000,
2025-03-09 14:54:18.754,9.6500,0.4300,0.7000,0.2500,0.1875,0.0000,85.6875,-2.1875,0.0000,259.0000,
2025-03-09 14:54:18.754,9.6500,0.4400,0.6800,0.2500,0.0000,-0.0625,85.6875,-2.1875,0.0000,259.0000,
2025-03-09 14:54:18.785,9.6400,0.4800,0.7000,0.1875,-0.1250,-0.0625,85.6875,-2.1875,0.0000,259.0000,
2025-03-09 14:54:18.815,9.6500,0.4900,0.7000,0.1250,-0.3750,0.0625,85.6875,-2.1875,0.0000,259.0000,
2025-03-09 14:54:18.815,9.6500,0.4700,0.7200,0.2500,-0.2500,-0.2500,85.6875,-2.1875,0.0000,259.0000,
2025-03-09 14:54:18.815,9.6600,0.4900,0.7200,0.0625,0.0000,-0.1875,85.6875,-2.1875,0.0000,259.0000,
2025-03-09 14:54:18.825,9.6100,0.4600,0.6600,-0.0625,0.0000,-0.1250,85.6875,-2.1875,0.0000,259.0000,
2025-03-09 14:54:18.825,9.6200,0.4500,0.6400,-0.3750,0.0000,-0.2500,85.6875,-2.1875,0.0000,259.0000,
2025-03-09 14:54:18.847,9.6100,0.4700,0.6600,-0.4375,-0.1250,-0.3125,85.6875,-2.1875,0.0000,259.0000,
2025-03-09 14:54:18.866,9.6200,0.4200,0.6800,-0.2500,-0.0625,-0.3750,85.6875,-2.1875,0.0000,259.0000,
2025-03-09 14:54:18.876,9.6900,0.3900,0.7600,-0.3750,0.0000,-0.3125,85.6875,-2.1875,0.0000,259.0000,
2025-03-09 14:54:18.896,9.6800,0.4300,0.7800,-0.3125,-0.0625,-0.3125,85.6875,-2.1875,0.0000,259.0000,
2025-03-09 14:54:18.908,9.6300,0.4600,0.7500,0.1250,0.1250,-0.2500,85.6875,-2.1875,0.0000,259.0000,
2025-03-09 14:54:18.917,9.6700,0.4500,0.7200,0.1250,-0.2500,-0.3125,85.6875,-2.1875,0.0000,259.0000,
2025-03-09 14:54:18.948,9.6600,0.3800,0.6900,-0.2500,0.3125,-0.2500,85.6875,-2.1875,0.0000,259.0000,
2025-03-09 14:54:18.958,9.6500,0.3600,0.7100,-0.0625,0.1875,-0.3125,85.6875,-2.1875,0.0000,259.0000,
2025-03-09 14:54:18.969,9.7000,0.4000,0.7000,0.3125,0.1250,-0.1875,85.6875,-2.1875,0.0000,259.0000,
2025-03-09 14:54:19.000,9.6600,0.4900,0.7100,1.6250,0.4375,0.0000,85.6875,-2.1875,0.0000,259.0000,
2025-03-09 14:54:19.010,9.6200,0.5100,0.7200,1.2500,0.5625,0.1250,85.6875,-2.1875,0.0000,258.9375,
2025-03-09 14:54:19.031,9.6200,0.4800,0.7100,0.1250,0.6250,-0.1250,85.6875,-2.1875,0.0000,258.9375,
2025-03-09 14:54:19.041,9.6100,0.4900,0.7200,-0.1875,0.3750,0.0625,85.6875,-2.1875,0.0000,258.9375,
2025-03-09 14:54:19.112,9.6400,0.4700,0.7200,-0.3125,0.1875,0.2500,85.6875,-2.1875,0.0000,258.9375,
2025-03-09 14:54:19.112,9.6300,0.5100,0.6900,-0.3125,0.3125,0.3125,85.6875,-2.1875,0.0000,258.9375,
2025-03-09 14:54:19.112,9.6000,0.5000,0.7000,-0.2500,0.3125,0.1875,85.6875,-2.1875,0.0000,259.0000,
2025-03-09 14:54:19.112,9.6500,0.4000,0.7300,0.8125,0.2500,0.2500,85.6875,-2.1875,0.0000,258.9375,
2025-03-09 14:54:19.122,9.6400,0.4000,0.6900,1.3125,0.3750,0.0625,85.6875,-2.1875,0.0000,258.9375,
2025-03-09 14:54:19.132,9.6200,0.4100,0.6700,0.6875,-0.3125,0.0000,85.6875,-2.1875,0.0000,258.9375,
2025-03-09 14:54:19.157,9.6700,0.4100,0.7600,1.3125,0.1875,0.1250,85.6875,-2.1875,0.0000,258.9375,
2025-03-09 14:54:19.174,9.7600,0.3600,0.7200,-1.3750,1.0000,-0.0625,85.6875,-2.1875,0.0000,258.8750,
2025-03-09 14:54:19.193,9.8000,0.0700,0.6700,3.3125,1.1250,-0.2500,85.6250,-2.1875,0.0000,258.9375,
2025-03-09 14:54:19.206,9.8000,0.1900,0.7600,6.8750,1.2500,-1.1250,85.6250,-2.1875,0.0000,258.8125,
2025-03-09 14:54:19.215,9.7500,0.5300,0.9400,7.7500,2.0000,-2.9375,85.5625,-2.1875,0.0000,258.8125,
2025-03-09 14:54:19.234,9.7400,0.7800,0.9600,5.3750,5.8750,-6.0000,85.5625,-2.2500,0.0000,258.7500,
2025-03-09 14:54:19.254,9.6600,1.0800,0.9600,-0.3125,14.2500,-6.8750,85.3125,-2.3750,0.0000,258.8125,
2025-03-09 14:54:19.264,9.6200,0.7600,0.8000,-3.2500,16.5000,-6.0000,85.0000,-2.5000,0.0000,258.9375,
2025-03-09 14:54:19.284,9.7300,0.5600,0.7200,-5.4375,16.4375,-4.6875,84.8750,-2.5625,0.0000,259.0625,
2025-03-09 14:54:19.314,10.1800,0.8100,0.8100,-7.8750,21.3750,-6.5625,84.5000,-2.6250,0.0000,259.2500,
2025-03-09 14:54:19.324,10.2100,1.3400,1.4700,-10.8750,26.1875,-7.0625,84.0625,-2.7500,0.0000,259.5000,
2025-03-09 14:54:19.344,10.3900,1.4500,2.1700,-23.0000,37.3750,-7.1250,83.7500,-2.8125,0.0000,259.6875,
2025-03-09 14:54:19.416,10.3700,1.0700,2.7100,-33.1250,47.6250,-7.6250,83.0000,-24.9375,0.0000,260.2500,
2025-03-09 14:54:19.416,10.6500,0.4400,2.8100,-33.6875,51.2500,-7.8125,82.0625,-22.3750,0.0000,260.9375,
2025-03-09 14:54:19.428,10.7000,0.3800,2.8300,-27.0000,58.5000,-8.7500,81.5000,-21.1875,0.0000,261.2500,
2025-03-09 14:54:19.428,10.5900,0.8600,2.9800,-18.6875,66.6875,-9.1875,80.3750,-19.1875,0.0000,261.8125,
2025-03-09 14:54:19.428,10.4000,1.0000,2.9700,-17.3750,71.7500,-8.6875,79.0625,-17.4375,0.0000,262.1875,
2025-03-09 14:54:19.438,10.2500,0.9000,3.1900,-19.4375,82.3750,-7.0625,78.3125,-16.5000,0.0000,262.3750,
2025-03-09 14:54:19.449,10.3500,0.9800,3.4000,-21.5625,86.5000,-7.1875,76.6875,-14.7500,0.0000,262.7500,
2025-03-09 14:54:19.469,10.0700,1.0900,3.6100,-28.3750,96.0000,-8.4375,74.8750,-13.0625,0.0000,263.2500,
2025-03-09 14:54:19.479,10.1200,1.1700,3.6400,-30.4375,98.3125,-8.5625,73.9375,-12.3125,0.0000,263.5000,
2025-03-09 14:54:19.511,10.1400,1.2600,3.9400,-33.5000,105.8125,-7.4375,71.9375,-10.8750,0.0000,264.0000,
2025-03-09 14:54:19.521,10.2500,1.0500,4.3400,-36.2500,114.5625,-6.2500,69.8125,-9.4375,0.0000,264.5625,
2025-03-09 14:54:19.550,10.2200,0.8600,4.5200,-37.3750,120.0000,-6.1875,68.6250,-8.7500,0.0000,264.8125,
2025-03-09 14:54:19.550,9.9300,0.5100,4.8800,-38.3125,125.8125,-6.1875,66.2500,-7.4375,0.0000,265.3125,
2025-03-09 14:54:19.570,9.7400,0.5000,5.0100,-34.7500,127.7500,-4.9375,63.7500,-6.3750,0.0000,265.8125,
2025-03-09 14:54:19.581,9.6100,0.5000,4.9400,-35.6875,128.9375,-3.3750,62.5000,-5.8125,0.0000,266.0000,
2025-03-09 14:54:19.612,9.6000,0.5300,4.9700,-41.8750,132.0000,-0.8750,60.0000,-4.6250,0.0000,266.4375,
2025-03-09 14:54:19.622,9.2100,0.0000,5.4900,-45.7500,134.2500,-0.3125,57.3750,-3.5000,0.0000,266.8750,
2025-03-09 14:54:19.642,9.1200,-0.1000,5.6700,-44.5000,134.7500,-0.0625,56.1250,-2.9375,0.0000,267.0625,
2025-03-09 14:54:19.653,8.6300,-0.0300,5.8600,-40.2500,136.5625,0.4375,53.4375,-1.9375,0.0000,267.4375,
2025-03-09 14:54:19.672,8.5300,0.3000,5.8700,-38.0000,136.7500,2.0625,50.8125,-1.0625,0.0000,267.7500,
2025-03-09 14:54:19.707,8.0300,0.5200,5.9600,-40.6875,136.7500,2.4375,49.5000,-0.6250,0.0000,267.8750,
2025-03-09 14:54:19.707,7.7000,0.2000,6.1500,-47.5000,136.1250,5.1875,46.8750,0.3125,0.0000,268.1875,
2025-03-09 14:54:19.724,7.3100,-0.3400,6.3900,-47.4375,134.4375,7.8125,44.2500,1.3125,0.0000,268.5000,
2025-03-09 14:54:19.735,7.2100,-0.5700,6.4000,-46.0000,131.9375,8.5625,42.9375,1.8125,0.0000,268.5625,
2025-03-09 14:54:19.757,6.4300,-0.1900,6.5700,-43.1875,129.3125,8.1250,40.4375,2.6875,0.0000,268.8125,
2025-03-09 14:54:19.757,6.2900,-0.1900,6.7000,-44.3125,127.1250,9.0625,39.1875,3.1875,0.0000,268.8750,
2025-03-09 14:54:19.764,6.2300,-0.3700,6.9900,-45.9375,124.4375,9.6875,38.0000,3.6250,0.0000,264.3750,
2025-03-09 14:54:19.784,6.3300,-0.5700,7.1400,-46.0000,121.6875,11.0000,36.8125,4.0625,0.0000,264.5000,
2025-03-09 14:54:19.794,6.3400,-0.9200,7.0900,-42.9375,120.2500,12.2500,35.6250,4.5000,0.0000,264.5625,
2025-03-09 14:54:19.815,5.7400,-0.6200,7.1300,-36.5000,117.0625,13.5000,33.3750,5.3125,0.0000,264.6250,
2025-03-09 14:54:19.826,5.1400,-0.5200,7.3700,-35.1875,115.4375,12.6250,32.2500,5.6250,0.0000,260.5625,
2025-03-09 14:54:19.835,4.8800,-0.5200,7.5300,-35.1875,114.1875,12.5625,31.1250,6.0000,0.0000,260.5625,
2025-03-09 14:54:19.845,4.8700,-0.5400,7.7200,-36.5625,112.2500,13.2500,30.0000,6.3750,0.0000,260.6250,
2025-03-09 14:54:19.845,4.8800,-0.6800,7.7700,-37.6250,110.2500,14.6250,28.9375,6.7500,0.0000,260.6250,
2025-03-09 14:54:19.856,4.7100,-1.5800,7.7400,-37.1875,109.1250,15.5000,27.8750,7.1250,0.0000,260.6250,
2025-03-09 14:54:19.866,4.4900,-1.5800,7.6700,-33.0000,107.1250,14.5625,26.8125,7.4375,0.0000,256.7500,
2025-03-09 14:54:19.887,4.3400,-1.2900,7.6200,-27.8125,104.6250,14.3125,25.8125,7.6875,0.0000,256.7500,
2025-03-09 14:54:19.887,4.1800,-1.2500,7.5700,-23.1875,102.0000,15.5625,24.8125,7.9375,0.0000,256.7500,
2025-03-09 14:54:19.908,3.7700,-0.7400,7.4000,-20.6250,99.7500,17.3750,23.8125,8.1250,0.0000,256.6875,
2025-03-09 14:54:19.908,3.5900,-0.6200,7.4600,-23.8125,97.1875,19.0000,22.8750,8.3750,0.0000,256.6250,
2025-03-09 14:54:19.917,3.5400,-0.5200,7.4400,-29.0625,96.4375,20.4375,21.9375,8.6875,0.0000,253.0000,
2025-03-09 14:54:19.927,3.4100,-0.8100,7.9000,-35.6250,97.1250,21.6250,20.9375,9.0625,0.0000,252.9375,
2025-03-09 14:54:19.938,3.4800,-1.1300,8.2300,-40.1875,96.6875,22.4375,20.0000,9.5000,0.0000,252.8750,
2025-03-09 14:54:19.948,3.5400,-1.7700,8.5200,-39.5625,95.5625,21.8750,19.0625,9.8750,0.0000,252.8125,
2025-03-09 14:54:19.959,3.5300,-2.1700,8.6100,-34.8125,94.1250,22.2500,18.1250,10.2500,0.0000,252.7500,
2025-03-09 14:54:19.969,3.1100,-2.2700,8.3100,-30.3125,92.4375,23.3750,17.1875,10.5625,0.0000,249.5625,
2025-03-09 14:54:19.999,2.6300,-1.9600,8.1000,-27.0625,88.8750,22.7500,16.3125,10.8125,0.0000,249.4375,
2025-03-09 14:54:20.010,2.4900,-1.6600,8.0400,-26.1250,84.4375,19.8125,15.4375,11.1250,0.0000,249.3750,
2025-03-09 14:54:20.010,2.3400,-1.5000,8.3200,-26.8125,81.2500,17.5625,14.6875,11.3750,0.0000,249.3125,
2025-03-09 14:54:20.010,2.5200,-1.8100,8.5600,-28.0625,79.3750,16.8125,13.8750,11.6250,0.0000,249.2500,
2025-03-09 14:54:20.020,2.4400,-2.0500,8.5400,-27.3750,78.2500,16.7500,13.1250,11.8750,0.0000,246.2500,
2025-03-09 14:54:20.031,2.1600,-2.3700,8.4700,-26.2500,77.2500,17.5000,12.3125,12.1875,0.0000,246.1875,
2025-03-09 14:54:20.041,1.8200,-2.3700,8.4000,-24.6250,73.7500,16.7500,11.6250,12.3750,0.0000,246.1250,
2025-03-09 14:54:20.050,1.6500,-2.3100,8.3500,-21.0000,70.0000,15.5625,10.9375,12.6250,0.0000,246.0625,
2025-03-09 14:54:20.061,1.4800,-2.0100,8.2600,-18.8750,67.8750,15.2500,10.2500,12.8125,0.0000,246.0000,
2025-03-09 14:54:20.071,1.3900,-1.9400,8.2300,-20.8750,65.1875,15.2500,9.5625,13.0000,0.0000,243.3750,
2025-03-09 14:54:20.092,1.3400,-1.8500,8.3700,-24.4375,62.4375,14.8750,8.9375,13.2500,0.0000,243.3125,
2025-03-09 14:54:20.092,1.3500,-1.9200,8.5600,-27.2500,60.5000,12.8125,8.3750,13.5000,0.0000,243.2500,
2025-03-09 14:54:20.103,1.1600,-2.1000,8.6900,-28.0625,60.6250,12.1250,7.7500,13.7500,0.0000,243.2500,
2025-03-09 14:54:20.112,0.7200,-2.8300,8.5900,-26.6875,59.6250,13.4375,7.1875,14.0000,0.0000,243.1875,
2025-03-09 14:54:20.122,0.6400,-2.9200,8.3600,-24.1875,56.4375,14.6875,6.6250,14.2500,0.0000,240.6875,
2025-03-09 14:54:20.133,0.6100,-2.8800,8.1300,-21.1875,52.7500,16.0625,6.0625,14.4375,0.0000,240.6250,
2025-03-09 14:54:20.133,0.6100,-2.7700,8.0500,-17.7500,48.7500,15.9375,5.5625,14.6250,0.0000,240.5000,
2025-03-09 14:54:20.154,0.6100,-2.5400,8.1400,-14.6875,45.5625,14.9375,5.1250,14.7500,0.0000,240.4375,
2025-03-09 14:54:20.154,0.6900,-2.3200,8.2200,-13.5625,43.0625,13.1875,4.6875,14.9375,0.0000,240.3750,
2025-03-09 14:54:20.165,0.6900,-2.1000,8.2700,-15.1250,39.8125,12.1875,4.2500,15.0625,0.0000,238.0625,
2025-03-09 14:54:20.182,0.3000,-2.2900,8.3800,-17.5000,37.2500,14.1250,3.8750,15.2500,0.0000,238.0000,
2025-03-09 14:54:20.195,0.1300,-2.3600,8.3100,-17.4375,36.0625,14.7500,3.5000,15.3750,0.0000,237.8750,
2025-03-09 14:54:20.195,0.0000,-2.4100,8.3000,-17.1875,34.1250,14.5625,3.1875,15.5625,0.0000,237.8125,
2025-03-09 14:54:20.205,-0.0200,-2.4400,8.2900,-16.6250,31.0000,14.2500,2.8125,15.7500,0.0000,237.6875,
2025-03-09 14:54:20.226,0.0900,-2.3600,8.3400,-14.6875,28.0000,13.3750,2.5625,15.8750,0.0000,235.6875,
2025-03-09 14:54:20.226,0.1300,-2.2600,8.3600,-13.6875,25.3750,12.9375,2.2500,16.0000,0.0000,235.6250,
2025-03-09 14:54:20.236,0.0600,-2.2800,8.4500,-13.6250,23.4375,12.6875,2.0000,16.1250,0.0000,235.5000,
2025-03-09 14:54:20.248,-0.2800,-2.4300,8.4800,-13.7500,22.2500,11.6250,1.7500,16.2500,0.0000,235.4375,
2025-03-09 14:54:20.257,-0.2500,-2.7300,8.4800,-13.8125,19.0000,11.6250,1.5000,16.4375,0.0000,235.3750,
2025-03-09 14:54:20.267,-0.3100,-2.8700,8.5700,-12.4375,14.7500,11.5000,1.3125,16.5625,0.0000,233.3125,
2025-03-09 14:54:20.309,-0.2200,-2.6500,8.4700,-8.7500,11.5000,9.6875,1.1875,16.6250,0.0000,233.2500,
2025-03-09 14:54:20.318,-0.1900,-2.4700,8.3400,-7.4375,9.6875,8.7500,1.0625,16.6875,0.0000,233.1875,
2025-03-09 14:54:20.318,-0.1600,-2.4100,8.3600,-8.3750,7.3750,7.7500,1.0000,16.7500,0.0000,233.1250,
2025-03-09 14:54:20.318,-0.1700,-2.4300,8.5000,-9.8125,5.8125,6.8750,0.8750,16.8750,0.0000,233.0625,
2025-03-09 14:54:20.338,-0.2400,-2.8900,8.8700,-10.5000,5.8750,5.5625,0.8125,17.0000,0.0000,231.2500,
2025-03-09 14:54:20.338,-0.3500,-3.3100,8.8500,-9.6875,5.6875,5.0625,0.7500,17.0625,0.0000,231.2500,
2025-03-09 14:54:20.339,-0.3800,-3.3700,8.5900,-6.5625,2.0625,6.2500,0.6875,17.1250,0.0000,231.1875,
2025-03-09 14:54:20.350,-0.3500,-3.0800,8.3900,-2.6875,-3.1875,7.5625,0.6875,17.1875,0.0000,231.1250,
2025-03-09 14:54:20.362,-0.1200,-2.5900,8.5200,0.0000,-7.3750,6.6875,0.7500,17.1875,0.0000,231.0000,
2025-03-09 14:54:20.372,0.0400,-2.5000,8.6400,1.7500,-9.6875,4.5000,0.8125,17.1250,0.0000,229.3125,
2025-03-09 14:54:20.374,-0.0200,-2.4800,8.6400,2.2500,-10.3750,2.3750,0.9375,17.1250,0.0000,229.2500,
2025-03-09 14:54:20.406,-0.2900,-2.3600,8.3500,1.1875,-11.8750,1.2500,1.0000,17.1250,0.0000,229.2500,
2025-03-09 14:54:20.406,-0.2600,-2.3100,8.4300,-0.4375,-14.1250,-0.6250,1.1250,17.1250,0.0000,229.2500,
2025-03-09 14:54:20.406,-0.1600,-2.4000,8.6200,-1.2500,-15.3750,-2.8750,1.3125,17.1250,0.0000,229.2500,
2025-03-09 14:54:20.414,0.0000,-2.4100,8.8300,-0.8750,-16.5625,-4.3750,1.5000,17.1250,0.0000,227.8125,
2025-03-09 14:54:20.423,-0.0300,-2.7700,8.5500,1.4375,-17.5000,-4.5000,1.6250,17.1250,0.0000,227.8125,
2025-03-09 14:54:20.434,-0.1000,-2.7700,8.3300,3.3750,-19.7500,-4.4375,1.8125,17.0625,0.0000,227.8125,
2025-03-09 14:54:20.454,-0.1100,-2.6500,8.2800,4.5625,-23.1250,-5.6250,2.0625,17.0625,0.0000,227.8750,
2025-03-09 14:54:20.474,-0.0900,-2.6000,8.3000,6.1250,-26.1875,-7.3750,2.3125,17.0000,0.0000,227.8750,
2025-03-09 14:54:20.484,0.3600,-2.5100,8.3400,6.7500,-29.9375,-9.3125,2.6250,16.9375,0.0000,226.5625,
2025-03-09 14:54:20.484,0.5000,-2.4600,8.3200,6.3125,-32.0000,-9.6875,2.9375,16.8750,0.0000,226.6250,
2025-03-09 14:54:20.505,0.4400,-2.4100,8.2400,5.0625,-33.1250,-8.6875,3.3125,16.8125,0.0000,226.6250,
2025-03-09 14:54:20.505,0.2300,-2.3500,8.2900,2.3125,-34.6875,-8.9375,3.6250,16.8125,0.0000,226.6875,
2025-03-09 14:54:20.505,0.2200,-2.4800,8.3000,-0.3125,-36.6875,-10.3125,4.0000,16.8125,0.0000,226.7500,
2025-03-09 14:54:20.516,0.2600,-2.5600,8.2900,-1.7500,-38.4375,-11.4375,4.3750,16.8125,0.0000,225.5625,
2025-03-09 14:54:20.545,0.3100,-2.6400,8.3100,-2.3125,-41.6875,-12.2500,4.7500,16.8125,0.0000,225.6250,
2025-03-09 14:54:20.547,0.8400,-2.6300,8.3600,-3.0625,-46.5000,-12.5625,5.2500,16.8750,0.0000,225.6875,
2025-03-09 14:54:20.566,1.1400,-2.5700,8.2800,-3.1875,-50.6250,-12.5625,5.7500,16.8750,0.0000,225.7500,
2025-03-09 14:54:20.566,1.2700,-2.3100,8.1500,-3.3750,-53.3125,-12.3750,6.2500,16.9375,0.0000,225.8125,
2025-03-09 14:54:20.566,1.2000,-1.7900,7.9400,-4.4375,-55.0000,-13.3125,6.8125,17.0000,0.0000,224.7500,
2025-03-09 14:54:20.607,1.0900,-1.8000,7.8900,-8.1875,-56.1875,-15.8125,6.8125,17.0000,0.0000,224.7500,
2025-03-09 14:54:20.607,0.9800,-1.9300,7.8600,-12.3125,-58.1875,-18.9375,7.9375,17.1875,0.0000,224.9375,
2025-03-09 14:54:20.607,0.9900,-2.1300,7.9500,-14.8750,-61.8125,-21.1250,8.6250,17.3125,0.0000,225.0625,
2025-03-09 14:54:20.607,1.8000,-2.4800,8.0500,-17.1250,-66.7500,-22.6250,9.2500,17.5000,0.0000,225.1875,
2025-03-09 14:54:20.638,2.0900,-2.6100,8.0900,-20.0000,-68.1875,-22.7500,9.2500,17.5000,0.0000,225.1875,
2025-03-09 14:54:20.638,2.1400,-2.4900,8.0500,-21.8750,-67.6250,-22.6875,10.0000,17.6875,0.0000,224.3750,
2025-03-09 14:54:20.638,1.9400,-2.2200,7.9100,-23.2500,-68.6250,-24.4375,11.3750,18.1250,0.0000,224.6875,
2025-03-09 14:54:20.650,1.7800,-2.5100,7.8200,-24.3125,-71.3125,-27.5625,12.1250,18.3125,0.0000,224.8750,
2025-03-09 14:54:20.668,1.8700,-2.7300,7.8300,-22.6250,-78.4375,-31.2500,12.9375,18.5625,0.0000,225.0625,
2025-03-09 14:54:20.678,2.0000,-2.7100,8.0500,-17.2500,-85.2500,-34.0000,12.9375,18.5625,0.0000,225.0625,
2025-03-09 14:54:20.678,2.3600,-2.5200,8.4100,-10.0625,-88.3125,-35.0625,13.8125,18.6875,0.0000,224.3125,
2025-03-09 14:54:20.689,2.9000,-2.5900,8.1800,-5.1250,-90.5625,-34.3750,15.6875,18.8125,0.0000,224.7500,
2025-03-09 14:54:20.710,3.3600,-2.7500,7.8800,-5.0000,-90.0000,-32.1875,16.6250,18.8750,0.0000,224.9375,
2025-03-09 14:54:20.710,3.5800,-2.9200,7.7400,-7.5625,-87.2500,-28.8750,17.5000,18.9375,0.0000,225.0625,
2025-03-09 14:54:20.720,3.5100,-3.0600,7.8500,-8.8750,-85.0000,-27.7500,17.5000,18.9375,0.0000,225.0625,
2025-03-09 14:54:20.731,3.3500,-3.2500,8.0300,-6.5625,-84.3750,-28.8125,18.3750,19.0625,0.0000,224.3125,
2025-03-09 14:54:20.741,3.2200,-3.4600,8.0600,-0.9375,-85.7500,-29.0000,20.0625,19.1250,0.0000,224.6250,
2025-03-09 14:54:20.752,3.1000,-3.6000,7.8700,4.5000,-89.5625,-27.0625,21.0000,19.0625,0.0000,224.6875,
2025-03-09 14:54:20.771,2.9700,-3.3800,7.9300,7.9375,-96.6875,-25.1875,21.9375,19.0625,0.0000,224.8125,
2025-03-09 14:54:20.772,2.9700,-3.3800,7.9300,9.0000,-106.3125,-24.1875,21.9375,19.0625,0.0000,224.8125,
2025-03-09 14:54:20.782,3.6600,-3.0500,8.0600,6.3750,-110.3125,-23.0000,23.0000,19.0000,0.0000,223.8750,
2025-03-09 14:54:20.792,4.9100,-2.9600,7.1100,2.1250,-100.3750,-21.0000,25.0625,19.0625,0.0000,224.0000,
2025-03-09 14:54:20.806,4.7100,-2.6300,6.6800,2.6250,-99.1875,-20.8125,26.0625,19.0625,0.0000,224.0000,
2025-03-09 14:54:20.812,4.7700,-2.2400,6.5900,8.7500,-106.4375,-24.8750,27.1250,19.0625,0.0000,224.0625,
2025-03-09 14:54:20.822,4.4500,-2.7000,7.0200,15.5000,-108.7500,-28.2500,27.1250,19.0625,0.0000,224.0625,
2025-03-09 14:54:20.843,4.4500,-2.7000,7.0200,18.9375,-109.8750,-27.5625,28.1875,18.9375,0.0000,223.4375,
2025-03-09 14:54:20.843,4.2200,-2.9300,7.1000,18.6875,-115.7500,-25.1250,30.4375,18.6875,0.0000,223.5000,
2025-03-09 14:54:20.853,5.0300,-2.6400,7.1700,16.5625,-126.2500,-22.6875,31.6250,18.6250,0.0000,223.5000,
2025-03-09 14:54:20.863,6.9000,-1.9600,6.5300,9.9375,-129.3750,-21.1875,32.8750,18.6875,0.0000,223.5000,
2025-03-09 14:54:20.863,6.5500,-2.1600,6.9500,2.1250,-118.8125,-22.0625,32.8750,18.6875,0.0000,223.5000,
2025-03-09 14:54:20.906,6.5500,-2.1600,6.9500,4.0625,-118.6875,-25.5625,34.0625,18.7500,0.0000,222.9375,
2025-03-09 14:54:20.906,6.4400,-2.3000,6.8400,14.5000,-124.5000,-31.0000,36.4375,18.7500,0.0000,223.1250,
2025-03-09 14:54:20.906,6.2900,-2.7500,7.1800,23.8125,-122.6250,-33.6875,37.6875,18.5625,0.0000,223.1875,
2025-03-09 14:54:20.915,6.0200,-3.0400,7.3100,30.8750,-120.5625,-31.8125,37.6875,18.5625,0.0000,223.1875,
2025-03-09 14:54:20.915,6.0200,-3.0400,7.3100,35.7500,-123.6250,-30.0625,38.8750,18.3125,0.0000,223.1875,
2025-03-09 14:54:20.945,5.9300,-3.1200,7.2500,40.8750,-130.3750,-29.3750,40.1250,18.0625,0.0000,222.5625,
2025-03-09 14:54:20.955,7.7300,-2.0800,6.5200,45.9375,-139.3750,-28.0625,41.4375,17.8125,0.0000,222.5000,
2025-03-09 14:54:20.955,8.6500,-1.9800,6.0300,46.1250,-143.2500,-25.6250,42.7500,17.5000,0.0000,222.4375,
2025-03-09 14:54:20.955,7.6400,-2.0900,5.7700,42.4375,-135.5625,-23.8750,44.1875,17.1875,0.0000,222.3125,
2025-03-09 14:54:20.965,7.6400,-2.0900,5.7700,42.3125,-131.8125,-23.9375,45.5000,16.9375,0.0000,222.2500,
2025-03-09 14:54:20.976,7.3900,-1.7500,5.5700,48.6250,-135.0000,-24.6250,46.8125,16.6875,0.0000,221.6875,
2025-03-09 14:54:20.986,7.6800,-1.5100,5.7100,52.6250,-135.4375,-24.3750,48.1250,16.3750,0.0000,221.5625,
2025-03-09 14:54:21.008,7.4400,-1.8400,6.0300,50.8125,-132.4375,-22.8125,49.4375,16.0000,0.0000,221.4375,
2025-03-09 14:54:21.017,7.5700,-1.8000,5.9000,46.0625,-133.0625,-19.7500,50.7500,15.6875,0.0000,221.3125,
2025-03-09 14:54:21.017,7.5700,-1.8000,5.9000,40.2500,-138.6875,-16.6250,52.0000,15.4375,0.0000,221.1250,
2025-03-09 14:54:21.028,8.3700,-1.5700,5.7500,33.7500,-146.5625,-12.1875,53.3750,15.3125,0.0000,220.4375,
2025-03-09 14:54:21.048,10.1500,-1.0800,4.9300,28.5625,-142.3125,-9.5000,54.7500,15.3750,0.0000,220.2500,
2025-03-09 14:54:21.050,10.2600,-1.7700,5.2200,28.3125,-131.0625,-12.6250,56.1250,15.5000,0.0000,220.0625,
2025-03-09 14:54:21.059,9.7900,-0.7100,5.0200,41.3750,-131.3125,-17.6875,57.3750,15.5625,0.0000,219.9375,
2025-03-09 14:54:21.078,9.8800,-0.9700,5.2600,52.8125,-133.5000,-18.3750,59.9375,15.1875,0.0000,218.8125,
2025-03-09 14:54:21.090,9.4600,-0.9800,5.4200,68.0625,-134.5000,-21.4375,61.2500,14.8750,0.0000,218.5625,
2025-03-09 14:54:21.110,9.3100,-1.0700,5.3800,72.3125,-134.2500,-20.8125,62.5625,14.5000,0.0000,218.2500,
2025-03-09 14:54:21.110,9.3600,-0.7300,5.0200,74.1250,-134.2500,-18.4375,63.8750,14.0625,0.0000,217.9375,
2025-03-09 14:54:21.131,9.1900,-0.5300,4.7100,69.6250,-134.3125,-13.8750,66.4375,13.3125,0.0000,216.3750,
2025-03-09 14:54:21.144,9.4500,-1.0600,4.6400,57.3125,-130.1250,-10.0625,67.7500,13.1875,0.0000,216.0000,
2025-03-09 14:54:21.150,9.9200,-1.2600,4.6100,54.0625,-130.9375,-10.3125,69.0000,13.0625,0.0000,215.6250,
2025-03-09 14:54:21.170,10.1600,-1.4200,4.5000,54.8750,-129.3125,-9.3125,71.5000,13.1250,0.0000,214.9375,
2025-03-09 14:54:21.200,10.0500,-1.1900,4.3400,58.7500,-118.5625,-8.9375,72.6250,13.0625,0.0000,214.0625,
2025-03-09 14:54:21.211,9.8100,-0.3800,4.1800,64.2500,-93.3750,-6.3125,73.6250,13.0000,0.0000,213.6250,
2025-03-09 14:54:21.211,10.3300,0.0600,4.2900,59.4375,-82.1250,-4.5625,75.3125,12.7500,0.0000,212.7500,
2025-03-09 14:54:21.231,10.6400,0.0100,3.8500,47.5000,-80.8750,-3.6875,76.8750,12.8125,0.0000,211.2500,
2025-03-09 14:54:21.241,10.9500,-0.3600,2.8100,20.0625,-78.2500,-1.6875,77.6875,13.1875,0.0000,211.0000,
2025-03-09 14:54:21.261,11.1500,-0.6300,2.0500,11.6875,-67.2500,-1.3750,79.1250,14.4375,0.0000,210.6875,
2025-03-09 14:54:21.283,11.0800,-0.5400,2.1000,13.8750,-58.8125,-2.9375,80.3125,15.6875,0.0000,210.0625,
2025-03-09 14:54:21.295,10.5700,0.0800,2.2900,18.4375,-37.8125,-3.8750,80.7500,16.0625,0.0000,209.9375,
2025-03-09 14:54:21.314,10.4500,0.3200,2.0900,5.8750,-19.4375,-2.9375,81.3750,16.4375,0.0000,209.6875,
2025-03-09 14:54:21.323,10.1800,0.1800,1.8300,-5.0000,-12.3750,-2.7500,81.6875,16.6875,0.0000,209.6875,
2025-03-09 14:54:21.343,9.9800,-0.1400,1.8200,-23.0625,-6.2500,-2.5000,81.7500,16.8125,0.0000,209.8125,
2025-03-09 14:54:21.364,9.5800,-0.4500,2.0900,-21.6250,-0.3750,-2.5625,81.8750,17.1875,0.0000,210.2500,
2025-03-09 14:54:21.376,9.5100,-0.4100,2.1800,-15.6250,6.9375,-2.8125,81.8750,17.0625,0.0000,210.4375,
2025-03-09 14:54:21.394,9.7800,-0.1200,2.1800,-8.7500,21.6250,-2.1875,81.6875,16.6875,0.0000,210.5625,
2025-03-09 14:54:21.414,9.9700,-0.2100,2.4300,-12.4375,30.1875,-0.4375,81.2500,15.7500,0.0000,210.7500,
2025-03-09 14:54:21.424,10.0300,-0.2400,2.6700,-14.8125,35.0625,0.6250,80.6875,15.0000,0.0000,210.9375,
2025-03-09 14:54:21.444,10.3900,-0.3700,3.1100,-19.4375,47.3750,1.3125,80.3125,14.6250,0.0000,211.1250,
2025-03-09 14:54:21.464,10.6600,-0.4400,3.4000,-22.1250,66.1875,2.1875,79.3125,13.8125,0.0000,211.4375,
2025-03-09 14:54:21.508,10.6700,-0.1100,4.0200,-23.9375,74.7500,3.0000,77.9375,12.9375,0.0000,211.6250,
2025-03-09 14:54:21.508,10.6800,0.0100,4.2000,-33.1250,88.1875,3.6875,77.1875,12.5625,0.0000,211.8125,
2025-03-09 14:54:21.515,10.4700,-0.2600,4.5000,-48.8125,103.7500,4.5000,75.4375,12.0000,0.0000,212.3750,
2025-03-09 14:54:21.525,10.5800,-0.6900,4.6600,-55.5000,110.4375,5.6250,73.3750,11.8125,0.0000,213.1875,
2025-03-09 14:54:21.545,10.7700,-1.1000,4.7700,-63.0625,122.9375,10.8125,72.2500,11.8750,0.0000,213.5625,
2025-03-09 14:54:21.567,10.8700,-1.1400,4.9600,-64.2500,133.9375,12.5000,69.8125,12.2500,0.0000,214.3750,
2025-03-09 14:54:21.576,10.5400,-0.9500,5.2300,-64.7500,138.1250,13.0000,67.1875,12.6875,0.0000,215.1250,
2025-03-09 14:54:21.595,10.3100,-0.9000,5.3000,-68.0000,146.5625,18.2500,65.8125,12.9375,0.0000,215.5000,
2025-03-09 14:54:21.617,10.0800,-0.4700,5.7700,-76.2500,154.4375,26.1250,62.9375,13.6875,0.0000,216.1250,
2025-03-09 14:54:21.627,9.8700,-0.7400,6.1000,-84.6250,158.7500,28.3750,59.8750,14.8125,0.0000,216.8125,
2025-03-09 14:54:21.659,9.6100,-0.9700,6.2300,-100.1875,166.4375,29.4375,58.2500,15.5000,0.0000,217.1875,
2025-03-09 14:54:21.665,9.0700,-1.9600,6.5300,-102.2500,170.2500,29.5000,55.0000,16.8750,0.0000,218.0000,
2025-03-09 14:54:21.690,8.4700,-2.7200,6.6800,-96.7500,172.7500,31.4375,51.6875,18.2500,0.0000,218.8125,
2025-03-09 14:54:21.708,8.0100,-3.0700,6.7500,-78.1875,171.5000,38.3125,49.9375,18.8125,0.0000,219.0625,
2025-03-09 14:54:21.714,8.0200,-3.1100,6.6700,-54.5625,166.5000,42.2500,46.6250,19.8125,0.0000,219.3750,
2025-03-09 14:54:21.732,7.6700,-3.1600,6.5700,-41.4375,166.5000,42.6250,43.3125,20.4375,0.0000,219.4375,
2025-03-09 14:54:21.763,7.3500,-3.0900,6.5000,-29.1250,167.3125,43.3125,41.6250,20.5625,0.0000,219.3750,
2025-03-09 14:54:21.765,6.6200,-2.9500,6.6900,-15.8125,166.6875,48.4375,38.2500,20.6250,0.0000,219.1250,
2025-03-09 14:54:21.808,6.5400,-2.9100,6.6100,-15.7500,164.6250,49.4375,34.9375,20.7500,0.0000,218.8125,
2025-03-09 14:54:21.813,6.4600,-2.8200,6.4800,-14.0625,162.6250,49.0625,33.3125,20.8125,0.0000,218.6875,
2025-03-09 14:54:21.815,6.0100,-2.4000,6.3700,-9.1875,159.9375,45.0000,30.0625,20.8125,0.0000,218.3750,
2025-03-09 14:54:21.833,5.1500,-2.6700,6.8100,-11.3125,155.6875,45.5625,26.9375,20.8750,0.0000,218.0625,
2025-03-09 14:54:21.854,4.8800,-2.5200,6.7900,-11.3125,155.6875,45.5625,25.3750,20.9375,0.0000,217.9375,
2025-03-09 14:54:21.864,4.2700,-2.6400,6.4100,-18.1875,145.2500,43.5000,22.3750,21.1250,0.0000,217.6250,
2025-03-09 14:54:21.874,3.8400,-2.3800,6.4500,-25.6250,134.4375,39.2500,19.6250,21.5000,0.0000,217.4375,
2025-03-09 14:54:21.894,3.7200,-2.4400,6.6100,-29.5625,130.7500,38.6875,18.2500,21.7500,0.0000,217.3125,
2025-03-09 14:54:21.914,3.0200,-2.9900,6.9300,-38.0000,125.0625,38.2500,15.7500,22.3750,0.0000,217.1875,
2025-03-09 14:54:21.934,2.2400,-3.1100,6.7400,-35.6875,115.0000,35.6250,13.3750,23.0000,0.0000,217.0000,
2025-03-09 14:54:21.945,2.0900,-3.0400,6.7300,-32.3750,109.7500,32.7500,12.2500,23.3125,0.0000,216.9375,
2025-03-09 14:54:21.969,2.0500,-3.1700,6.7500,-24.1875,100.1250,34.3125,10.1875,23.8125,0.0000,216.7500,
2025-03-09 14:54:21.980,1.2800,-3.5100,7.1600,-17.5000,91.6875,33.2500,8.2500,24.1250,0.0000,216.5625,
2025-03-09 14:54:21.997,1.0800,-3.7000,7.0700,-16.7500,86.7500,31.1875,7.3750,24.3125,0.0000,216.4375,
2025-03-09 14:54:22.009,0.8300,-3.8600,7.1400,-14.7500,80.9375,29.8125,6.5000,24.4375,0.0000,216.3750,
2025-03-09 14:54:22.017,0.4600,-3.5800,7.0100,-5.2500,69.8750,28.0625,5.0000,24.5625,0.0000,216.1250,
2025-03-09 14:54:22.038,0.3100,-3.4400,7.0200,-3.7500,65.3750,28.0000,4.3125,24.6250,0.0000,216.0000,
2025-03-09 14:54:22.038,0.0300,-3.3300,6.9800,-3.6250,61.2500,27.6875,3.6875,24.6250,0.0000,215.8750,
2025-03-09 14:54:22.047,-0.0700,-3.3500,7.0100,-5.0000,57.4375,26.9375,3.0625,24.6875,0.0000,215.6875,
2025-03-09 14:54:22.068,-0.2000,-3.6900,7.1800,-5.5625,50.5000,23.5000,1.9375,24.8125,0.0000,215.4375,
2025-03-09 14:54:22.109,-0.4900,-3.8500,7.0700,-3.3750,45.8125,22.0625,1.4375,24.8125,0.0000,215.3750,
2025-03-09 14:54:22.109,-0.6800,-3.7600,6.9700,-1.4375,38.5000,22.1250,1.0000,24.8125,0.0000,215.1875,
2025-03-09 14:54:22.109,-0.9100,-3.6900,6.9900,-0.3125,30.9375,21.5625,0.6875,24.8125,0.0000,215.0625,
2025-03-09 14:54:22.109,-0.4800,-3.3200,6.9700,-1.5625,24.0625,20.1250,0.3750,24.8750,0.0000,214.9375,
2025-03-09 14:54:22.120,-0.5900,-3.3200,7.0700,-4.1250,19.6250,19.5000,0.1250,24.8750,0.0000,214.8125,
2025-03-09 14:54:22.129,-0.4900,-3.3300,7.0200,-6.8750,15.3750,17.5625,0.0000,24.9375,0.0000,214.6875,
2025-03-09 14:54:22.140,-0.7100,-3.3500,7.0200,-9.0625,11.6875,15.5000,-0.1875,25.0625,0.0000,214.5625,
2025-03-09 14:54:22.150,-0.9200,-3.4300,6.9900,-6.7500,6.4375,13.3125,-0.3125,25.1250,0.0000,214.4375,
2025-03-09 14:54:22.170,-1.0200,-3.5700,7.0700,2.8125,-4.1875,9.1250,-0.3750,25.1250,0.0000,214.2500,
2025-03-09 14:54:22.181,-1.0800,-3.3800,7.0500,5.6875,-10.5625,7.6250,-0.3125,25.0625,0.0000,214.2500,
2025-03-09 14:54:22.191,-0.9600,-3.3200,7.0100,6.0000,-16.1875,6.6250,-0.1875,25.0000,0.0000,214.1250,
2025-03-09 14:54:22.203,-0.8200,-3.2600,6.9600,4.5625,-19.0000,4.7500,-0.0625,24.9375,0.0000,214.0625,
2025-03-09 14:54:22.211,-0.6900,-3.2500,6.8800,2.6875,-20.6250,1.5625,-0.0625,24.9375,0.0000,213.9375,
2025-03-09 14:54:22.222,-0.8900,-3.2900,6.9600,1.1875,-23.1875,-1.4375,-0.0625,24.9375,0.0000,213.8750,
2025-03-09 14:54:22.232,-0.7600,-3.3800,7.0000,0.8750,-27.7500,-4.3125,0.0000,24.9375,0.0000,213.8125,
2025-03-09 14:54:22.242,-0.5700,-3.4200,7.1800,1.2500,-32.5625,-6.8750,0.1250,24.9375,0.0000,213.7500,
2025-03-09 14:54:22.254,-0.3600,-3.5700,7.3900,3.5625,-36.3125,-9.0000,0.5000,24.9375,0.0000,213.7500,
2025-03-09 14:54:22.264,-0.1300,-3.7500,7.4600,6.4375,-39.1250,-9.8125,0.8750,24.8750,0.0000,213.8125,
2025-03-09 14:54:22.278,-0.1700,-3.7500,7.4600,7.8125,-41.8125,-10.4375,1.3125,24.7500,0.0000,213.8125,
2025-03-09 14:54:22.278,-0.2600,-3.6900,7.5100,7.3125,-45.3750,-12.0625,1.7500,24.6875,0.0000,213.8125,
2025-03-09 14:54:22.285,-0.4400,-3.5400,7.6000,4.4375,-49.0625,-14.1875,2.2500,24.6875,0.0000,213.8750,
2025-03-09 14:54:22.309,-0.4300,-3.5500,7.7300,1.4375,-53.5625,-15.8750,2.7500,24.6875,0.0000,213.8750,
2025-03-09 14:54:22.309,0.0500,-3.6400,7.6400,-0.6250,-58.1250,-18.3125,3.3125,24.6875,0.0000,213.9375,
2025-03-09 14:54:22.315,0.5300,-3.7000,7.6300,-2.0625,-58.6875,-21.1250,3.9375,24.6875,0.0000,214.0000,
2025-03-09 14:54:22.325,0.7300,-3.5600,7.6500,-1.8125,-59.1875,-23.0000,4.5625,24.6875,0.0000,214.1250,
2025-03-09 14:54:22.346,0.6900,-3.3200,7.5700,-1.0000,-62.0000,-24.3750,5.1875,24.7500,0.0000,214.2500,
2025-03-09 14:54:22.346,0.7000,-3.1700,7.4500,-2.4375,-66.3125,-26.0625,5.8750,24.7500,0.0000,214.3750,
2025-03-09 14:54:22.368,0.6200,-2.9900,7.5000,-6.0625,-70.2500,-27.5000,6.6250,24.8125,0.0000,214.4375,
2025-03-09 14:54:22.413,0.7200,-3.1400,7.8200,-11.5625,-75.1875,-29.2500,7.3750,24.9375,0.0000,214.6250,
2025-03-09 14:54:22.413,1.3700,-3.4100,7.7300,-17.6250,-79.2500,-32.2500,8.2500,25.1250,0.0000,214.5625,
2025-03-09 14:54:22.413,2.0100,-3.7100,7.6400,-23.1875,-75.2500,-35.3125,9.0625,25.3125,0.0000,214.8125,
2025-03-09 14:54:22.413,1.7700,-3.8300,8.0700,-23.0000,-72.0000,-36.9375,9.8125,25.5625,0.0000,215.0000,
2025-03-09 14:54:22.417,1.5200,-3.7000,8.0000,-16.5000,-73.1250,-38.0625,10.6250,25.6875,0.0000,215.2500,
2025-03-09 14:54:22.418,1.4500,-3.6600,7.9700,-8.1875,-76.2500,-39.7500,11.4375,25.8125,0.0000,215.4375,
2025-03-09 14:54:22.427,1.6200,-3.4800,7.8900,0.3125,-80.9375,-41.6250,12.3125,25.7500,0.0000,215.6875,
2025-03-09 14:54:22.440,1.7200,-3.4900,7.7900,7.8750,-85.5625,-43.8750,13.2500,25.6875,0.0000,215.8750,
2025-03-09 14:54:22.448,1.9600,-3.5500,7.8300,14.3125,-91.3125,-45.8125,14.2500,25.5625,0.0000,216.1250,
2025-03-09 14:54:22.458,2.3500,-3.6500,7.8200,16.3125,-96.3750,-46.0625,15.2500,25.3750,0.0000,216.3750,
2025-03-09 14:54:22.470,3.4700,-3.7100,7.4500,12.3750,-94.6875,-44.2500,16.3125,25.2500,0.0000,216.5625,
2025-03-09 14:54:22.478,3.3800,-3.5900,7.4800,7.0000,-87.9375,-41.7500,17.2500,25.1875,0.0000,216.7500,
2025-03-09 14:54:22.490,3.0300,-3.3600,7.3800,5.8750,-86.8125,-41.7500,18.1875,25.1250,0.0000,217.0000,
2025-03-09 14:54:22.499,2.8300,-3.3300,7.2000,8.7500,-91.4375,-43.7500,19.1250,25.0625,0.0000,217.1875,
2025-03-09 14:54:22.509,2.8900,-3.5300,7.2600,11.0000,-98.2500,-44.5625,20.1875,24.9375,0.0000,217.3750,
2025-03-09 14:54:22.521,3.2300,-3.6200,7.6000,10.1875,-108.0625,-43.8750,21.3125,24.8750,0.0000,217.5625,
2025-03-09 14:54:22.532,4.2800,-3.8900,7.4300,3.5000,-113.2500,-43.0000,22.5000,24.8750,0.0000,217.6875,
2025-03-09 14:54:22.541,4.6000,-4.2100,7.1700,-4.6250,-106.0625,-41.1875,23.5625,24.9375,0.0000,217.9375,
2025-03-09 14:54:22.550,4.1600,-3.7600,7.2900,-1.7500,-103.0625,-40.8125,24.6875,25.0000,0.0000,218.1250,
2025-03-09 14:54:22.561,4.0500,-3.4300,7.4100,10.1875,-103.3125,-41.3750,25.7500,24.9375,0.0000,218.2500,
2025-03-09 14:54:22.572,4.2600,-3.3400,7.3700,18.9375,-102.8125,-41.3750,26.8125,24.7500,0.0000,218.4375,
2025-03-09 14:54:22.581,4.4000,-3.4500,7.4200,20.5625,-104.9375,-41.1250,27.8750,24.6250,0.0000,218.5625,
2025-03-09 14:54:22.591,4.6100,-3.3800,7.5500,19.8125,-110.4375,-40.7500,29.0000,24.4375,0.0000,218.6875,
2025-03-09 14:54:22.601,5.2000,-3.2100,7.7000,18.6250,-115.8750,-40.2500,30.1875,24.3125,0.0000,218.8125,
2025-03-09 14:54:22.611,6.2900,-3.0900,7.3100,15.9375,-114.5625,-39.3125,31.3750,24.2500,0.0000,218.9375,
2025-03-09 14:54:22.622,5.8900,-2.8600,7.3500,15.0000,-109.1250,-39.0625,32.5000,24.1875,0.0000,219.0625,
2025-03-09 14:54:22.631,5.7600,-2.5800,7.3400,19.5625,-110.0000,-39.2500,33.6250,24.0625,0.0000,219.1250,
2025-03-09 14:54:22.642,5.8600,-2.5600,7.2600,24.3125,-110.5000,-38.0625,34.7500,23.8750,0.0000,219.2500,
2025-03-09 14:54:22.652,6.1100,-3.1100,7.1900,24.3125,-110.5625,-35.6875,35.8750,23.6875,0.0000,219.3125,
2025-03-09 14:54:22.662,6.1100,-3.2700,7.1600,22.3750,-113.5000,-33.0625,37.0000,23.6250,0.0000,219.3750,
2025-03-09 14:54:22.694,6.0400,-3.3300,7.0600,20.7500,-118.0000,-31.0625,38.1875,23.5625,0.0000,219.3750,
2025-03-09 14:54:22.710,7.2100,-2.8500,6.9600,19.9375,-125.5000,-28.9375,39.3750,23.5625,0.0000,219.3750,
2025-03-09 14:54:22.710,7.6700,-2.9900,6.6000,17.1875,-125.9375,-27.1250,40.6250,23.5625,0.0000,219.3125,
2025-03-09 14:54:22.710,7.3400,-2.8500,6.5800,14.9375,-114.6875,-28.2500,41.7500,23.6250,0.0000,219.3750,
2025-03-09 14:54:22.713,7.2000,-2.6800,6.7400,20.2500,-112.3750,-29.5625,42.8750,23.5625,0.0000,219.3750,
2025-03-09 14:54:22.723,7.5400,-2.9300,6.5500,32.6875,-114.1875,-29.2500,44.0000,23.4375,0.0000,219.3125,
2025-03-09 14:54:22.723,7.5600,-3.0600,6.6300,44.2500,-113.0000,-26.4375,45.1250,23.1875,0.0000,219.1250,
2025-03-09 14:54:22.738,7.5500,-3.0800,6.6200,50.2500,-113.8125,-24.5625,46.1875,22.9375,0.0000,218.9375,
2025-03-09 14:54:22.754,7.1600,-2.3800,6.3900,49.9375,-115.7500,-24.1875,47.3125,22.6875,0.0000,218.8125,
2025-03-09 14:54:22.754,7.1200,-1.9800,6.0800,45.3125,-119.0000,-23.5000,48.5000,22.5000,0.0000,218.6250,
2025-03-09 14:54:22.775,7.4700,-1.8100,5.8800,40.6250,-123.0000,-22.9375,49.6875,22.3750,0.0000,218.5000,
2025-03-09 14:54:22.787,7.7500,-0.9700,5.5800,33.8125,-126.1250,-20.5625,50.8750,22.3750,0.0000,218.1250,
2025-03-09 14:54:22.787,7.8000,-0.8800,4.7900,19.3750,-121.6875,-17.9375,52.0000,22.5625,0.0000,218.0625,
2025-03-09 14:54:22.796,7.2700,-0.7700,4.9100,8.3125,-114.1875,-20.0625,53.1250,22.8125,0.0000,218.0625,
2025-03-09 14:54:22.815,6.9800,-0.9500,5.0600,4.0000,-114.6875,-25.4375,54.2500,23.0625,0.0000,218.1250,
2025-03-09 14:54:22.815,7.4700,-1.4900,5.0400,4.8750,-115.6250,-26.9375,55.3750,23.3125,0.0000,218.1875,
2025-03-09 14:54:22.835,8.5600,-2.4200,5.3600,4.6250,-113.8125,-26.5625,56.5000,23.5625,0.0000,218.1250,
2025-03-09 14:54:22.837,9.0000,-2.3700,5.5100,5.1875,-114.3125,-25.3125,57.5625,23.8125,0.0000,218.1875,
2025-03-09 14:54:22.847,9.6400,-2.1800,5.6100,10.1250,-115.8750,-23.0000,58.6875,24.1250,0.0000,218.1875,
2025-03-09 14:54:22.856,10.8700,-2.3000,4.9600,17.6250,-115.6250,-19.5000,59.8125,24.4375,0.0000,218.1250,
2025-03-09 14:54:22.866,10.0800,-2.4400,4.6800,25.5000,-106.6250,-18.3750,60.8125,24.6875,0.0000,218.0000,
2025-03-09 14:54:22.876,9.2600,-2.2900,4.7700,32.5625,-100.4375,-21.4375,61.8125,24.7500,0.0000,217.8125,
2025-03-09 14:54:22.887,9.0600,-2.2600,4.7900,43.1250,-103.6875,-22.6875,62.8125,24.7500,0.0000,217.6250,
2025-03-09 14:54:22.897,8.9400,-2.6800,5.0100,52.1875,-104.5000,-19.8750,63.8125,24.7500,0.0000,217.3750,
2025-03-09 14:54:22.927,8.8500,-2.7700,5.2700,54.8750,-101.4375,-16.5625,64.7500,24.7500,0.0000,217.0625,
2025-03-09 14:54:22.927,8.8700,-2.5600,5.4300,53.8750,-99.1250,-14.0000,65.6875,24.8750,0.0000,216.7500,
2025-03-09 14:54:22.928,9.5500,-1.8600,5.3400,51.5625,-97.9375,-11.5000,65.6875,24.8750,0.0000,216.7500,
2025-03-09 14:54:22.937,10.2900,-1.7500,5.0400,49.1875,-99.1250,-8.9375,66.5625,25.0625,0.0000,216.3750,
2025-03-09 14:54:22.970,11.0000,-1.6600,4.6800,50.1875,-99.6250,-7.3125,68.3750,25.7500,0.0000,215.6250,
2025-03-09 14:54:22.970,11.0300,-1.7200,4.3300,54.0000,-93.8750,-6.1875,69.2500,26.0625,0.0000,215.1875,
2025-03-09 14:54:22.989,9.9100,-1.6700,4.1900,58.6250,-86.0000,-7.6250,70.0000,26.3125,0.0000,214.7500,
2025-03-09 14:54:22.989,9.7400,-1.4500,4.0000,64.3750,-83.2500,-10.6250,70.0000,26.3125,0.0000,214.7500,
2025-03-09 14:54:23.031,9.6900,-1.3700,3.9300,68.3750,-79.8750,-11.0625,70.7500,26.4375,0.0000,214.3125,
2025-03-09 14:54:23.031,9.6900,-0.8100,3.9800,66.4375,-73.3125,-10.2500,72.1875,26.5625,0.0000,213.4375,
2025-03-09 14:54:23.031,9.5300,-0.3900,4.0500,58.8750,-65.3125,-8.8750,72.8125,26.6875,0.0000,213.0000,
2025-03-09 14:54:23.031,9.4900,-0.3600,4.1200,47.1875,-58.2500,-7.1250,73.3125,26.8750,0.0000,212.6875,
2025-03-09 14:54:23.032,9.4800,-0.3700,4.0500,35.0625,-53.1250,-7.1250,73.3125,26.8750,0.0000,212.6875,
2025-03-09 14:54:23.041,9.7200,-0.6500,3.6900,24.5000,-49.0000,-7.3125,73.8125,27.1250,0.0000,212.3125,
2025-03-09 14:54:23.053,9.8500,-0.8000,3.4400,16.8125,-45.0625,-6.5625,74.6875,27.7500,0.0000,212.0625,
2025-03-09 14:54:23.066,9.8300,-0.9200,3.2100,13.1250,-41.8750,-5.4375,75.0625,28.1875,0.0000,212.0000,
2025-03-09 14:54:23.073,9.8600,-0.8800,2.7600,12.0625,-39.5625,-4.8750,75.4375,28.5625,0.0000,211.8750,
2025-03-09 14:54:23.083,9.8300,-0.7800,2.5700,11.7500,-38.3750,-4.5625,75.4375,28.5625,0.0000,211.8750,
2025-03-09 14:54:23.093,9.7900,-0.7300,2.4200,9.5000,-36.6250,-4.3750,75.8125,29.0000,0.0000,211.7500,
2025-03-09 14:54:23.103,9.7400,-0.7400,2.3700,5.5625,-33.7500,-4.0000,76.4375,29.9375,0.0000,211.6250,
2025-03-09 14:54:23.113,9.6200,-0.6900,2.3100,2.5625,-30.2500,-4.1875,76.6875,30.3750,0.0000,211.6250,
2025-03-09 14:54:23.123,9.5700,-0.7300,2.2800,-0.2500,-26.1250,-4.1250,76.9375,30.8125,0.0000,211.6250,
2025-03-09 14:54:23.133,9.5400,-0.8400,2.2400,-2.2500,-22.6250,-4.5000,76.9375,30.8125,0.0000,211.6250,
2025-03-09 14:54:23.143,9.5400,-0.8400,2.2400,-3.8125,-19.7500,-4.4375,77.1250,31.1250,0.0000,211.6875,
2025-03-09 14:54:23.153,9.5400,-1.0300,2.1500,-4.6875,-17.5000,-4.3125,77.5000,31.7500,0.0000,211.8125,
2025-03-09 14:54:23.163,9.4800,-1.0600,2.1300,-4.3750,-15.6250,-3.4375,77.6250,32.0000,0.0000,211.8750,
2025-03-09 14:54:23.184,9.4300,-1.0400,2.1200,-2.8750,-14.3750,-3.0625,77.7500,32.2500,0.0000,211.8750,
2025-03-09 14:54:23.184,9.4300,-1.0400,2.1200,-0.7500,-13.8125,-2.8125,77.7500,32.2500,0.0000,211.8750,
2025-03-09 14:54:23.193,9.3500,-1.0100,2.0800,1.3750,-13.1250,-2.5000,77.8750,32.5000,0.0000,211.9375,
2025-03-09 14:54:23.203,9.4300,-0.9900,2.0400,3.0625,-12.2500,-1.9375,78.0625,32.6875,0.0000,211.9375,
2025-03-09 14:54:23.215,9.4500,-0.9700,2.0100,3.6875,-11.3750,-1.6875,78.1250,32.7500,0.0000,211.9375,
2025-03-09 14:54:23.229,9.4900,-0.8500,1.9900,2.6875,-10.7500,-1.6875,78.2500,32.8125,0.0000,211.9375,
2025-03-09 14:54:23.229,9.4900,-0.8500,1.9900,0.8750,-10.3125,-1.5000,78.2500,32.8125,0.0000,211.9375,
2025-03-09 14:54:23.235,9.5200,-0.8000,1.9200,-1.2500,-9.6875,-1.3125,78.3125,32.8750,0.0000,211.9375,
2025-03-09 14:54:23.253,9.4300,-0.8700,1.7500,-3.1875,-9.3750,-1.5000,78.4375,33.0625,0.0000,212.0000,
2025-03-09 14:54:23.265,9.3300,-0.9100,1.7200,-4.9375,-8.8750,-1.3125,78.5625,33.2500,0.0000,212.0000,
2025-03-09 14:54:23.307,9.2700,-1.0200,1.6900,-6.0625,-8.6250,-1.4375,78.6250,33.4375,0.0000,212.0625,
2025-03-09 14:54:23.311,9.2700,-1.0200,1.6900,-6.0000,-8.5000,-1.3125,78.6250,33.4375,0.0000,212.0625,
2025-03-09 14:54:23.311,9.2200,-1.1100,1.6500,-6.0000,-8.5000,-1.3125,78.6875,33.6875,0.0000,212.1250,
2025-03-09 14:54:23.311,9.3400,-1.3700,1.5100,-3.9375,-8.3750,-0.8125,78.7500,33.8750,0.0000,212.1875,
2025-03-09 14:54:23.320,9.3500,-1.4100,1.5400,-2.1875,-8.0000,-0.1875,78.8125,34.1250,0.0000,212.1875,
2025-03-09 14:54:23.326,9.4400,-1.3400,1.6100,-0.5625,-7.5000,0.3125,78.8750,34.3750,0.0000,212.1875,
2025-03-09 14:54:23.326,9.4400,-1.3400,1.6100,0.8125,-7.8125,0.6875,78.9375,34.5625,0.0000,212.1875,
2025-03-09 14:54:23.337,9.4200,-1.2800,1.5600,1.8750,-8.1875,0.3125,79.0000,34.8125,0.0000,212.1875,
2025-03-09 14:54:23.358,9.4100,-1.1800,1.4600,2.7500,-8.1875,-0.1875,79.0625,35.0625,0.0000,212.1250,
2025-03-09 14:54:23.358,9.4500,-1.2200,1.4100,3.0000,-7.6875,-1.1250,79.1250,35.3125,0.0000,212.1250,
2025-03-09 14:54:23.378,9.4600,-1.2400,1.4200,4.5000,-6.4375,-3.6875,79.2500,35.5625,0.0000,212.0625,
2025-03-09 14:54:23.388,9.4300,-1.3000,1.4300,6.0625,-5.8125,-4.4375,79.3125,35.6250,0.0000,212.0625,
2025-03-09 14:54:23.399,9.3800,-1.3300,1.4300,7.7500,-5.8750,-5.1250,79.3750,35.6250,0.0000,212.0000,
2025-03-09 14:54:23.411,9.4100,-1.3400,1.4300,9.5000,-6.6250,-5.1875,79.4375,35.6250,0.0000,212.0000,
2025-03-09 14:54:23.429,9.4400,-1.2600,1.4500,11.4375,-7.7500,-5.2500,79.5000,35.5625,0.0000,211.9375,
2025-03-09 14:54:23.429,9.4400,-1.2600,1.4500,11.4375,-7.7500,-5.2500,79.6250,35.5625,0.0000,211.8750,
2025-03-09 14:54:23.439,9.5000,-1.0800,1.4900,13.5625,-8.6875,-4.8125,79.6875,35.5000,0.0000,211.6875,
2025-03-09 14:54:23.449,9.4200,-0.8600,1.5200,15.9375,-9.5000,-3.4375,79.7500,35.5000,0.0000,211.6250,
2025-03-09 14:54:23.470,9.3400,-0.8100,1.5500,17.3125,-9.5000,-3.0625,79.8750,35.5000,0.0000,211.5000,
2025-03-09 14:54:23.470,9.4300,-0.7100,1.4600,17.3750,-9.6875,-2.5625,79.9375,35.5000,0.0000,211.3750,
2025-03-09 14:54:23.492,9.4600,-0.6900,1.4200,17.0625,-8.9375,-1.5625,80.1250,35.5625,0.0000,211.0625,
2025-03-09 14:54:23.501,9.5700,-0.5400,1.3900,14.5625,-8.2500,0.2500,80.1875,35.6250,0.0000,210.9375,
2025-03-09 14:54:23.511,9.6200,-0.5200,1.3700,12.6875,-7.6250,0.8125,80.2500,35.7500,0.0000,210.8125,
2025-03-09 14:54:23.521,9.6900,-0.5100,1.3900,11.6250,-7.3125,1.2500,80.3125,35.9375,0.0000,210.6875,
2025-03-09 14:54:23.542,9.7100,-0.5300,1.3900,10.6250,-6.6250,1.2500,80.4375,36.1250,0.0000,210.5000,
2025-03-09 14:54:23.552,9.7400,-0.5900,1.4100,8.5625,-5.1250,1.0625,80.5000,36.1250,0.0000,210.4375,
2025-03-09 14:54:23.593,9.6000,-0.7000,1.4600,8.2500,-4.3750,0.8750,80.5000,36.1250,0.0000,210.3750,
2025-03-09 14:54:23.613,9.4800,-0.8100,1.5400,7.7500,-4.5000,0.5625,80.6250,36.1250,0.0000,210.2500,
2025-03-09 14:54:23.613,9.4500,-0.9000,1.5400,6.6875,-4.1875,0.3125,80.6250,36.1250,0.0000,210.1875,
2025-03-09 14:54:23.613,9.4400,-0.9700,1.5100,5.1875,-3.2500,-0.0625,80.6250,36.1875,0.0000,210.1250,
2025-03-09 14:54:23.623,9.4400,-1.0700,1.4100,4.5625,-1.8125,-0.3125,80.6875,36.3125,0.0000,210.0625,
2025-03-09 14:54:23.633,9.4900,-1.0900,1.4300,5.1250,-1.8125,-0.5000,80.6875,36.3125,0.0000,210.0000,
2025-03-09 14:54:23.653,9.4600,-1.0700,1.4200,8.1250,-0.8125,-0.5000,80.6875,36.3125,0.0000,209.9375,
2025-03-09 14:54:23.663,9.4600,-1.0500,1.4400,9.2500,-0.5000,-0.5000,80.6875,36.2500,0.0000,209.8125,
2025-03-09 14:54:23.673,9.5200,-1.0500,1.4800,10.3125,-0.2500,-0.5625,80.6875,36.0625,0.0000,209.6875,
2025-03-09 14:54:23.683,9.5200,-0.9400,1.5500,11.0625,0.1250,-0.5000,80.6875,35.9375,0.0000,209.5625,
2025-03-09 14:54:23.703,9.5100,-0.8700,1.5700,10.6875,0.5625,-0.5000,80.6875,35.7500,0.0000,209.4375,
2025-03-09 14:54:23.715,9.4200,-0.7400,1.5100,9.9375,-0.1250,-0.2500,80.6250,35.6250,0.0000,209.3750,
2025-03-09 14:54:23.729,9.4000,-0.6800,1.4100,7.9375,-0.4375,-0.0625,80.6250,35.3750,0.0000,209.2500,
2025-03-09 14:54:23.734,9.4200,-0.7400,1.4100,5.5625,-0.1250,0.1875,80.6250,35.3125,0.0000,209.1875,
2025-03-09 14:54:23.755,9.4800,-0.9300,1.4100,3.3750,1.6250,0.5625,80.6250,35.2500,0.0000,209.1875,
2025-03-09 14:54:23.779,9.5000,-0.9800,1.4300,2.8125,1.3125,0.3750,80.6250,35.0000,0.0000,209.1250,
2025-03-09 14:54:23.787,9.4800,-0.9600,1.4800,3.0000,0.6250,0.4375,80.5625,34.8750,0.0000,209.0625,
2025-03-09 14:54:23.810,9.3700,-0.9500,1.5500,3.6875,0.0000,0.1875,80.5625,34.8125,0.0000,209.0000,
2025-03-09 14:54:23.812,9.3200,-1.0000,1.5600,3.8125,-0.0625,0.1875,80.5625,34.7500,0.0000,209.0000,
2025-03-09 14:54:23.827,9.3400,-0.9400,1.4800,3.8750,-0.0625,0.4375,80.5000,34.6250,0.0000,208.9375,
2025-03-09 14:54:23.837,9.3400,-0.9200,1.4700,3.6250,0.0625,0.5625,80.5000,34.6250,0.0000,208.8750,
2025-03-09 14:54:23.847,9.3800,-0.9400,1.4500,3.0000,0.3125,0.8125,80.5000,34.5625,0.0000,208.8125,
2025-03-09 14:54:23.869,9.3600,-0.9600,1.4200,2.3750,0.0625,1.3125,80.5000,34.6250,0.0000,208.8125,
2025-03-09 14:54:23.912,9.3800,-0.9600,1.4300,2.3750,-0.1875,1.3125,80.4375,34.6875,0.0000,208.6875,
2025-03-09 14:54:23.912,9.3800,-1.0300,1.4400,2.4375,-0.5625,1.2500,80.4375,34.6875,0.0000,208.6875,
2025-03-09 14:54:23.912,9.3500,-1.0700,1.4700,2.3125,-0.6875,1.0625,80.4375,34.7500,0.0000,208.6875,
2025-03-09 14:54:23.912,9.3200,-1.0600,1.5000,1.8125,-1.5000,1.0625,80.4375,34.8125,0.0000,208.6250,
2025-03-09 14:54:23.930,9.3100,-1.1600,1.5100,2.1875,-2.0000,1.0625,80.4375,35.0000,0.0000,208.5625,
2025-03-09 14:54:23.942,9.3100,-1.1500,1.4700,2.7500,-2.3750,1.3750,80.4375,35.1875,0.0000,208.4375,
2025-03-09 14:54:23.950,9.3200,-1.1000,1.4600,3.7500,-2.6250,1.8125,80.4375,35.3125,0.0000,208.3750,
2025-03-09 14:54:23.961,9.3200,-1.0100,1.4400,5.5625,-3.4375,2.5625,80.4375,35.5000,0.0000,208.3125,
2025-03-09 14:54:23.991,9.4100,-0.8900,1.4200,5.8750,-3.8125,2.8750,80.4375,35.8750,0.0000,208.1250,
2025-03-09 14:54:23.992,9.4200,-0.9100,1.4100,5.7500,-3.9375,2.6250,80.4375,36.0625,0.0000,208.0625,
2025-03-09 14:54:24.001,9.4300,-0.9400,1.4300,5.3750,-3.8125,2.2500,80.4375,36.2500,0.0000,208.0000,
2025-03-09 14:54:24.013,9.4900,-0.9100,1.4100,5.1875,-3.9375,1.5625,80.4375,36.3750,0.0000,207.9375,
2025-03-09 14:54:24.032,9.4700,-0.9100,1.4100,4.8125,-3.8750,1.4375,80.5000,36.6250,0.0000,207.8125,
2025-03-09 14:54:24.044,9.3800,-0.9500,1.3800,4.0625,-4.0000,1.5625,80.5000,36.8125,0.0000,207.7500,
2025-03-09 14:54:24.053,9.3200,-1.0300,1.2900,3.5000,-4.1875,1.6250,80.5625,37.0000,0.0000,207.6875,
2025-03-09 14:54:24.064,9.3100,-1.0800,1.2600,2.3750,-4.5625,1.8750,80.5625,37.1875,0.0000,207.6250,
2025-03-09 14:54:24.085,9.3800,-1.1700,1.3200,0.7500,-4.3125,1.9375,80.6250,37.7500,0.0000,207.5625,
2025-03-09 14:54:24.085,9.4200,-1.1900,1.3500,1.5000,-4.5000,1.7500,80.6250,38.0000,0.0000,207.5000,
2025-03-09 14:54:24.095,9.4600,-1.1900,1.3800,2.9375,-4.5625,1.7500,80.6250,38.2500,0.0000,207.4375,
2025-03-09 14:54:24.115,9.4600,-1.1600,1.3700,4.3750,-4.8750,1.5625,80.6250,38.4375,0.0000,207.3750,
2025-03-09 14:54:24.136,9.4500,-1.1000,1.3800,5.9375,-5.7500,0.8125,80.6875,38.8750,0.0000,207.2500,
2025-03-09 14:54:24.136,9.4400,-1.0600,1.3700,6.3125,-5.9375,0.6250,80.7500,39.0625,0.0000,207.2500,
2025-03-09 14:54:24.146,9.3800,-1.0500,1.3100,5.3125,-5.9375,0.4375,80.7500,39.2500,0.0000,207.1875,
2025-03-09 14:54:24.157,9.3500,-1.1100,1.2500,4.4375,-5.9375,0.4375,80.8125,39.4375,0.0000,207.1250,
2025-03-09 14:54:24.213,9.3300,-1.2100,1.1300,3.1250,-5.9375,0.9375,80.8750,39.9375,0.0000,207.0625,
2025-03-09 14:54:24.218,9.5100,-1.4100,1.0400,3.4375,-6.0000,1.1250,80.8750,40.2500,0.0000,207.0000,
2025-03-09 14:54:24.218,9.6000,-1.6000,0.9900,5.1250,-5.3750,1.6875,80.9375,40.5000,0.0000,206.9375,
2025-03-09 14:54:24.218,9.5900,-1.7300,1.0300,8.0000,-4.1875,2.8125,80.9375,40.7500,0.0000,206.8125,
2025-03-09 14:54:24.234,9.5800,-1.4400,1.4300,15.0625,-2.8750,6.1875,80.9375,41.1875,0.0000,206.5000,
2025-03-09 14:54:24.240,9.6000,-1.3300,1.4600,15.8125,-3.4375,7.6250,80.8750,41.5000,0.0000,206.2500,
2025-03-09 14:54:24.269,9.6200,-1.3200,1.4000,16.2500,-4.0625,9.6250,80.8750,42.0000,0.0000,206.0625,
2025-03-09 14:54:24.270,9.4800,-1.7200,0.8200,21.0625,-4.6875,12.7500,80.7500,43.0625,0.0000,205.4375,
2025-03-09 14:54:24.290,9.5000,-2.0300,0.9600,26.3125,-5.8125,14.7500,80.6250,44.2500,0.0000,204.7500,
2025-03-09 14:54:24.300,9.5100,-2.1100,1.1400,25.4375,-5.8750,15.9375,80.5625,44.8750,0.0000,204.3750,
2025-03-09 14:54:24.320,9.4600,-2.3200,1.3800,27.6250,-3.9375,18.1875,80.3750,46.2500,0.0000,203.5625,
2025-03-09 14:54:24.342,9.1300,-2.3900,1.4300,41.0000,4.8750,18.9375,80.1250,46.7500,0.0000,202.5625,
2025-03-09 14:54:24.355,9.2600,-2.3700,1.4100,49.1250,6.2500,20.2500,79.9375,46.8125,0.0000,201.9375,
2025-03-09 14:54:24.375,9.7700,-2.7400,1.1700,54.6250,4.3750,24.3750,79.5000,47.1250,0.0000,200.5625,
2025-03-09 14:54:24.394,9.4700,-2.7900,1.3900,63.0000,9.1875,28.9375,79.0000,47.3125,0.0000,199.0625,
2025-03-09 14:54:24.405,9.2500,-2.7900,1.6100,65.8750,11.4375,31.8125,78.7500,47.3125,0.0000,198.1875,
2025-03-09 14:54:24.424,9.5800,-3.6700,1.3300,68.0000,17.0000,43.1250,77.9375,47.4375,0.0000,196.3750,
2025-03-09 14:54:24.444,9.9700,-5.1000,1.2100,79.5625,21.7500,64.0625,76.8750,48.0625,0.0000,194.0000,
2025-03-09 14:54:24.534,9.9400,-4.5500,1.3800,82.8750,22.5000,76.1250,76.1875,48.6250,0.0000,192.6250,
2025-03-09 14:54:24.534,10.2500,-4.5900,1.9600,72.2500,21.2500,92.8125,74.5625,50.2500,0.0000,189.7500,
2025-03-09 14:54:24.534,10.5400,-4.4800,1.8300,70.3750,25.9375,105.3125,72.7500,51.8750,0.0000,186.7500,
2025-03-09 14:54:24.534,10.5500,-4.4400,2.0800,69.0625,30.4375,113.6250,71.6875,52.5625,0.0000,185.1875,
2025-03-09 14:54:24.534,10.4100,-4.2600,2.4800,60.6250,32.5000,121.0625,70.5625,53.3125,0.0000,183.6250,
2025-03-09 14:54:24.544,10.3400,-3.9600,2.5200,51.8125,32.5625,126.8750,69.3750,54.1250,0.0000,182.0625,
2025-03-09 14:54:24.544,9.9900,-5.3600,2.3700,31.6875,34.1875,136.3125,66.8750,55.8125,0.0000,179.0625,
2025-03-09 14:54:24.555,10.0100,-5.9200,2.4300,21.8750,37.6875,142.0625,65.5625,56.6250,0.0000,177.6250,
2025-03-09 14:54:24.566,9.9300,-6.6300,2.5800,13.3750,41.5625,150.3125,64.1250,57.5000,0.0000,176.1875,
2025-03-09 14:54:24.580,9.3200,-5.6600,3.5600,9.4375,47.2500,166.6250,60.9375,59.0000,0.0000,173.1875,
2025-03-09 14:54:24.586,9.1500,-4.8200,3.6600,10.8125,48.3750,172.8750,59.3125,59.6875,0.0000,171.6250,
2025-03-09 14:54:24.596,9.2400,-4.1300,3.4600,12.5625,47.5625,174.5625,57.5625,60.3125,0.0000,170.0000,
2025-03-09 14:54:24.628,9.4500,-4.2900,3.1600,13.5000,49.3125,173.6875,55.8750,60.8125,0.0000,168.4375,
2025-03-09 14:54:24.628,9.3400,-5.4100,3.2200,14.4375,54.9375,171.9375,54.1875,61.1250,0.0000,166.8750,
2025-03-09 14:54:24.628,9.1100,-5.4300,3.5300,16.3750,61.4375,172.5000,52.4375,61.3750,0.0000,165.3750,
2025-03-09 14:54:24.637,8.9200,-5.0900,3.9700,14.9375,66.6250,171.7500,50.6250,61.5000,0.0000,163.8750,
2025-03-09 14:54:24.647,8.3300,-5.0100,4.7600,14.9375,66.6250,171.7500,48.8750,61.6250,0.0000,162.4375,
2025-03-09 14:54:24.662,8.1000,-4.9700,4.4300,18.2500,69.3750,166.2500,47.1250,61.6250,0.0000,161.0000,
2025-03-09 14:54:24.678,8.0200,-5.1600,4.0500,29.9375,74.1250,160.1875,45.4375,61.4375,0.0000,159.6250,
2025-03-09 14:54:24.678,7.9200,-5.9500,3.7000,28.0000,76.8125,159.8750,43.7500,61.3125,0.0000,158.3125,
2025-03-09 14:54:24.689,7.4300,-7.8000,3.9500,27.3750,79.2500,161.6250,42.0000,61.0625,0.0000,156.9375,
2025-03-09 14:54:24.699,7.2000,-8.5700,4.3800,29.5000,79.7500,163.8750,40.2500,60.8750,0.0000,155.6250,
2025-03-09 14:54:24.710,7.0200,-8.6200,4.4900,33.7500,77.5000,165.0625,38.4375,60.6875,0.0000,154.2500,
2025-03-09 14:54:24.721,6.2500,-7.2500,4.3700,39.3125,73.9375,163.5000,36.7500,60.3750,0.0000,152.8125,
2025-03-09 14:54:24.729,6.4100,-7.0400,4.2800,45.1875,69.8750,157.8125,35.0625,60.0625,0.0000,151.4375,
2025-03-09 14:54:24.741,6.6300,-7.2700,4.1400,46.2500,68.0625,152.4375,33.4375,59.7500,0.0000,150.1250,
2025-03-09 14:54:24.750,6.5800,-7.4400,3.8600,44.4375,69.3125,151.2500,31.8750,59.4375,0.0000,148.8750,
2025-03-09 14:54:24.771,5.6000,-7.7200,3.9800,43.1875,69.1250,153.6250,30.2500,59.1250,0.0000,147.5625,
2025-03-09 14:54:24.810,5.5300,-8.1000,4.3300,47.8125,65.9375,152.9375,28.6250,58.7500,0.0000,146.2500,
2025-03-09 14:54:24.810,5.6700,-8.2200,4.6200,55.8750,62.2500,151.8125,27.0625,58.3750,0.0000,144.9375,
2025-03-09 14:54:24.815,5.2600,-6.7300,4.3300,62.0625,63.6875,154.1250,25.5000,57.8750,0.0000,143.5625,
2025-03-09 14:54:24.815,4.7500,-6.1100,4.2400,62.3750,70.3750,153.8125,23.8750,57.3750,0.0000,142.2500,
2025-03-09 14:54:24.815,4.2000,-6.0600,4.1300,60.9375,74.5000,149.0625,22.2500,56.8750,0.0000,141.0000,
2025-03-09 14:54:24.821,3.6400,-6.0300,4.1100,57.5000,72.5625,143.6875,20.6875,56.3750,0.0000,139.8750,
2025-03-09 14:54:24.834,3.4400,-6.0400,4.7300,54.8125,68.8125,140.7500,19.1875,55.9375,0.0000,138.7500,
2025-03-09 14:54:24.841,3.5500,-5.9600,4.7900,56.0625,66.8750,138.7500,17.7500,55.4375,0.0000,137.6250,
2025-03-09 14:54:24.853,3.5300,-5.6500,4.7400,57.5000,66.5625,138.6250,16.2500,55.0000,0.0000,136.5000,
2025-03-09 14:54:24.864,3.3000,-5.0500,4.7700,57.1875,65.9375,137.2500,14.8125,54.5000,0.0000,135.3750,
2025-03-09 14:54:24.872,2.8300,-4.8100,4.7800,56.6250,67.3125,131.6250,13.3750,54.0000,0.0000,134.3750,
2025-03-09 14:54:24.883,2.3400,-4.6100,4.7300,56.2500,67.5625,123.6250,12.0625,53.5000,0.0000,133.3750,
2025-03-09 14:54:24.884,2.0700,-4.6600,4.6500,55.6250,65.3125,115.6250,10.7500,53.0000,0.0000,132.5000,
2025-03-09 14:54:24.905,1.7500,-4.8400,4.6900,53.1875,64.3125,107.3750,9.5625,52.5000,0.0000,131.7500,
2025-03-09 14:54:24.905,1.5300,-4.5500,4.7900,46.4375,64.5625,100.9375,8.4375,52.0625,0.0000,131.0000,
2025-03-09 14:54:24.915,1.3000,-4.4100,5.0000,36.5625,63.3125,95.1875,7.3125,51.7500,0.0000,130.3750,
2025-03-09 14:54:24.945,1.0400,-4.1900,5.0400,30.5625,60.4375,92.1875,6.2500,51.4375,0.0000,129.7500,
2025-03-09 14:54:24.966,0.4400,-3.9800,4.6500,28.3750,57.6250,86.4375,5.2500,51.1875,0.0000,129.1875,
2025-03-09 14:54:24.966,0.2500,-4.2100,4.5100,26.0000,53.0625,79.3750,4.3125,50.9375,0.0000,128.6250,
2025-03-09 14:54:24.966,0.2000,-4.2700,4.4400,21.1875,46.5625,73.4375,3.5000,50.7500,0.0000,128.1250,
2025-03-09 14:54:24.966,0.3100,-4.7400,4.7000,13.1875,42.5000,66.1875,2.7500,50.6250,0.0000,127.6875,
2025-03-09 14:54:24.976,0.3000,-4.9800,4.8400,5.6250,40.6875,59.6250,2.0000,50.5625,0.0000,127.2500,
2025-03-09 14:54:24.987,0.0700,-5.5100,4.9700,0.0625,39.3750,55.3750,1.3750,50.5625,0.0000,126.9375,
2025-03-09 14:54:25.007,-0.1300,-5.8100,4.9600,-0.3750,35.3750,53.4375,0.7500,50.5625,0.0000,126.5625,
2025-03-09 14:54:25.007,-0.8100,-5.8300,5.0500,0.8750,29.6875,49.5625,0.1875,50.5625,0.0000,126.1875,
2025-03-09 14:54:25.017,-1.0300,-5.8000,5.1600,3.1250,24.8750,44.6250,-0.2500,50.5000,0.0000,125.8750,
2025-03-09 14:54:25.028,-1.0900,-5.4600,5.2700,5.8125,22.3125,39.8750,-0.6875,50.4375,0.0000,125.6250,
2025-03-09 14:54:25.037,-0.8500,-4.7500,5.2900,7.3125,20.0625,34.0000,-1.0625,50.3750,0.0000,125.3750,
2025-03-09 14:54:25.047,-0.8400,-4.7200,5.3100,5.2500,18.1875,27.1875,-1.3750,50.3125,0.0000,125.1875,
2025-03-09 14:54:25.058,-0.9400,-4.8300,5.3900,1.4375,14.6250,21.3750,-1.6250,50.3125,0.0000,125.0625,
2025-03-09 14:54:25.069,-1.0500,-4.9300,5.4800,-2.1250,10.0625,15.8750,-1.8125,50.3750,0.0000,124.9375,
2025-03-09 14:54:25.110,-1.2600,-5.4800,5.4800,-4.6875,5.9375,9.6875,-1.8750,50.3750,0.0000,124.8750,
2025-03-09 14:54:25.110,-1.4000,-5.5300,5.5000,-6.6250,2.2500,3.4375,-1.9375,50.4375,0.0000,124.8125,
2025-03-09 14:54:25.110,-1.4800,-5.3600,5.5600,-5.5000,-0.7500,-4.0625,-1.8750,50.5000,0.0000,124.8750,
2025-03-09 14:54:25.121,-1.4600,-5.0200,5.5900,-1.3750,-2.9375,-12.3750,-1.8125,50.5000,0.0000,125.0000,
2025-03-09 14:54:25.121,-1.3300,-4.9800,5.5600,2.4375,-5.9375,-20.5625,-1.6250,50.5000,0.0000,125.1250,
2025-03-09 14:54:25.130,-1.0700,-5.0100,5.5400,2.7500,-10.8125,-27.3750,-1.3125,50.5000,0.0000,125.3750,
2025-03-09 14:54:25.142,-0.7200,-5.1200,5.4600,-0.1250,-16.3750,-31.7500,-1.0000,50.5000,0.0000,125.6250,
2025-03-09 14:54:25.161,-0.1500,-5.5100,5.1900,-4.7500,-21.3125,-33.6250,-0.6250,50.5000,0.0000,125.8125,
2025-03-09 14:54:25.161,-0.1200,-5.6900,5.0300,-8.0000,-25.1875,-35.0000,-0.1875,50.6250,0.0000,126.0625,
2025-03-09 14:54:25.172,-0.1500,-5.7900,4.9000,-8.6875,-29.0625,-37.1875,0.1875,50.6875,0.0000,126.2500,
2025-03-09 14:54:25.187,-0.0500,-5.4600,4.7500,-6.6875,-33.2500,-41.1250,0.7500,50.7500,0.0000,126.5000,
2025-03-09 14:54:25.192,0.0600,-5.2200,4.8000,-5.6250,-37.3125,-46.2500,1.3125,50.8125,0.0000,126.7500,
2025-03-09 14:54:25.203,0.1900,-5.0300,4.9400,-7.6250,-40.6250,-52.5000,1.9375,50.8750,0.0000,127.0625,
2025-03-09 14:54:25.212,0.3700,-4.9800,5.1300,-14.3125,-43.5625,-58.7500,2.6250,51.0000,0.0000,127.4375,
2025-03-09 14:54:25.223,0.5200,-5.3200,5.6300,-25.0625,-45.7500,-64.3750,3.4375,51.2500,0.0000,127.8750,
2025-03-09 14:54:25.234,0.4900,-5.3800,5.8100,-38.3750,-48.0000,-70.2500,4.2500,51.6250,0.0000,128.3125,
2025-03-09 14:54:25.244,0.3100,-5.5100,5.7200,-49.5000,-50.5000,-76.7500,5.1250,52.1250,0.0000,128.8750,
2025-03-09 14:54:25.244,0.1000,-5.4100,5.4100,-49.5625,-53.8125,-83.0000,6.0625,52.5625,0.0000,129.4375,
2025-03-09 14:54:25.264,0.3400,-5.0200,5.1100,-43.0625,-57.5000,-90.5000,7.1250,53.0000,0.0000,130.0625,
2025-03-09 14:54:25.275,0.6400,-5.0000,4.8200,-37.4375,-60.0625,-96.6250,8.1875,53.3125,0.0000,130.7500,
2025-03-09 14:54:25.275,1.1900,-5.2700,4.4700,-32.7500,-63.5000,-98.8125,9.3125,53.6250,0.0000,131.4375,
2025-03-09 14:54:25.290,2.3200,-6.0100,4.2800,-30.4375,-64.5625,-97.5000,9.3125,53.6250,0.0000,131.4375,
2025-03-09 14:54:25.294,2.6800,-6.3000,4.6400,-32.5000,-62.3750,-97.5625,10.5000,53.9375,0.0000,132.1250,
2025-03-09 14:54:25.315,2.7000,-6.4200,5.0100,-38.6875,-60.6250,-100.6875,12.7500,54.5625,0.0000,133.5000,
2025-03-09 14:54:25.316,2.5900,-6.4500,5.2400,-45.8125,-60.1250,-105.2500,13.8750,55.0000,0.0000,134.3125,
2025-03-09 14:54:25.325,2.5900,-6.2600,5.4600,-49.1250,-61.1250,-110.3125,15.1250,55.4375,0.0000,135.1250,
2025-03-09 14:54:25.347,2.6500,-6.1300,5.3900,-50.0000,-62.1875,-115.3125,15.1250,55.4375,0.0000,135.1250,
2025-03-09 14:54:25.347,2.8300,-6.2500,5.0800,-51.9375,-63.4375,-118.6875,16.3750,55.8750,0.0000,136.0000,
2025-03-09 14:54:25.367,3.0500,-7.1100,4.5200,-53.1875,-63.3750,-117.3125,18.9375,56.8125,0.0000,137.8750,
2025-03-09 14:54:25.377,3.0400,-7.2400,4.5800,-50.8125,-62.7500,-114.8125,20.1875,57.3125,0.0000,138.7500,
2025-03-09 14:54:25.407,3.0200,-7.2100,4.7000,-46.4375,-61.0000,-115.5000,21.5000,57.6875,0.0000,139.6875,
2025-03-09 14:54:25.407,3.1600,-7.1100,4.8500,-42.0000,-59.0000,-117.7500,21.5000,57.6875,0.0000,139.6875,
2025-03-09 14:54:25.407,3.4700,-6.4500,5.3900,-41.3125,-58.6875,-121.6250,22.7500,58.0625,0.0000,140.6250,
2025-03-09 14:54:25.416,3.8600,-6.2400,5.5000,-46.6875,-57.8750,-127.2500,25.3750,58.7500,0.0000,142.6875,
2025-03-09 14:54:25.416,4.3300,-6.0400,5.4500,-54.0625,-56.5625,-134.0625,26.8125,59.1875,0.0000,143.8125,
2025-03-09 14:54:25.426,5.4000,-6.0000,4.8700,-61.2500,-57.0625,-139.1250,28.2500,59.6875,0.0000,145.0625,
2025-03-09 14:54:25.437,6.0400,-6.2800,4.4700,-64.5625,-60.0000,-140.6875,28.2500,59.6875,0.0000,145.0625,
2025-03-09 14:54:25.447,6.4100,-6.5000,4.2100,-62.4375,-62.4375,-138.5625,29.6875,60.1875,0.0000,146.3750,
2025-03-09 14:54:25.457,6.3000,-6.4300,4.1800,-59.3750,-63.5625,-135.6875,32.6250,61.2500,0.0000,148.8125,
2025-03-09 14:54:25.467,5.3400,-5.8000,4.4800,-56.4375,-62.6250,-135.8125,34.0625,61.7500,0.0000,150.0000,
2025-03-09 14:54:25.490,5.2000,-5.4800,4.4800,-54.3750,-62.0000,-139.3125,35.5000,62.1875,0.0000,151.2500,
2025-03-09 14:54:25.490,5.2000,-5.4800,4.4800,-56.8750,-59.5625,-145.8750,35.5000,62.1875,0.0000,151.2500,
2025-03-09 14:54:25.498,5.5000,-5.2500,4.5200,-63.6875,-54.5625,-153.4375,37.0625,62.6250,0.0000,152.6250,
2025-03-09 14:54:25.528,7.9600,-6.7500,3.3300,-67.1250,-49.2500,-157.3125,40.1875,63.5625,0.0000,155.6875,
2025-03-09 14:54:25.528,8.6200,-7.6400,3.0300,-60.0000,-44.3750,-153.3125,40.1875,63.5625,0.0000,155.6875,
2025-03-09 14:54:25.528,8.7100,-8.0800,2.9700,-44.5000,-39.5625,-145.9375,43.1250,64.0625,0.0000,158.6875,
2025-03-09 14:54:25.538,8.7100,-8.0800,2.9700,-25.9375,-40.4375,-139.0625,43.1250,64.0625,0.0000,158.6875,
2025-03-09 14:54:25.548,8.1100,-7.8500,3.2600,-10.1250,-44.5625,-135.8750,44.5000,64.0625,0.0000,159.9375,
2025-03-09 14:54:25.559,7.7300,-6.3000,3.8400,-2.3125,-48.5000,-138.5000,47.3125,63.8125,0.0000,162.2500,
2025-03-09 14:54:25.568,7.8800,-5.4300,3.9700,-6.3125,-50.8750,-145.0000,48.8125,63.6875,0.0000,163.4375,
2025-03-09 14:54:25.579,8.5400,-4.8100,3.5400,-22.0625,-50.5000,-152.3750,50.3125,63.6875,0.0000,164.8125,
2025-03-09 14:54:25.591,8.9600,-5.5400,2.7800,-40.5000,-47.8750,-153.0000,50.3125,63.6875,0.0000,164.8125,
2025-03-09 14:54:25.599,8.9600,-5.5400,2.7800,-45.5625,-45.2500,-144.1250,51.8750,63.7500,0.0000,166.3750,
2025-03-09 14:54:25.609,8.9700,-7.8600,2.6000,-34.8750,-41.3125,-133.2500,54.6250,63.9375,0.0000,169.1875,
2025-03-09 14:54:25.619,8.7700,-7.9500,2.9200,-19.5000,-39.3125,-124.8125,55.8750,63.8750,0.0000,170.3750,
2025-03-09 14:54:25.639,8.3300,-7.2100,3.3200,-7.1875,-39.5625,-119.8125,57.1250,63.6875,0.0000,171.3750,
2025-03-09 14:54:25.639,8.3300,-7.2100,3.3200,-3.8125,-40.6875,-116.7500,57.1250,63.6875,0.0000,171.3750,
2025-03-09 14:54:25.650,8.4900,-6.5300,3.6600,-1.2500,-39.5625,-114.0000,58.3125,63.5000,0.0000,172.3750,
2025-03-09 14:54:25.662,8.3100,-2.8300,3.7600,-21.8125,-36.6875,-114.3750,59.4375,63.2500,0.0000,173.3750,
2025-03-09 14:54:25.702,8.9000,-3.3000,3.5200,-45.8750,-35.8750,-122.5000,60.6250,63.1250,0.0000,174.5000,
2025-03-09 14:54:25.702,9.6700,-3.7200,2.5300,-53.0000,-33.1250,-124.8750,61.8125,63.1875,0.0000,175.8750,
2025-03-09 14:54:25.702,9.6700,-3.7200,2.5300,-50.0000,-27.1250,-121.6875,63.0625,63.1875,0.0000,177.3750,
2025-03-09 14:54:25.702,9.7300,-3.8200,2.3900,-44.3125,-19.3750,-117.5000,64.1875,63.1250,0.0000,178.8125,
2025-03-09 14:54:25.711,9.7100,-4.2700,2.5500,-43.1875,-15.1875,-116.7500,65.3125,62.8125,0.0000,180.1875,
2025-03-09 14:54:25.732,10.1800,-4.2100,2.6500,-45.8750,-13.5000,-117.3125,66.3750,62.3125,0.0000,181.6250,
2025-03-09 14:54:25.732,10.4300,-3.9400,2.6000,-48.3125,-9.5000,-118.5000,67.4375,61.8125,0.0000,183.0625,
2025-03-09 14:54:25.742,10.4300,-3.9400,2.6000,-51.6875,-2.5000,-120.8125,68.5000,61.1250,0.0000,184.5625,
2025-03-09 14:54:25.766,10.3400,-3.6700,2.5500,-51.6875,-2.5000,-120.8125,69.5000,60.1875,0.0000,186.1250,
2025-03-09 14:54:25.766,10.0400,-3.6100,2.0800,-48.8125,8.0000,-121.2500,70.5000,58.9375,0.0000,187.7500,
2025-03-09 14:54:25.773,10.0300,-3.4000,2.0000,-41.0000,11.1250,-119.5000,71.5000,57.4375,0.0000,189.3125,
2025-03-09 14:54:25.783,10.0100,-3.5100,1.9600,-35.0000,11.4375,-117.8125,72.3750,55.6250,0.0000,190.8125,
2025-03-09 14:54:25.803,9.9100,-3.5100,1.7600,-29.2500,10.6875,-114.8125,74.0625,51.1875,0.0000,193.6250,
2025-03-09 14:54:25.823,9.8100,-3.9500,1.6100,-19.8750,10.2500,-109.3125,74.8125,48.6250,0.0000,194.9375,
2025-03-09 14:54:25.833,9.7600,-2.9700,1.5700,-13.8125,9.1875,-105.1250,75.5625,45.8125,0.0000,196.1875,
2025-03-09 14:54:25.841,9.8800,-2.7600,1.4200,-10.5000,7.8125,-99.1250,76.7500,39.6875,0.0000,198.3750,
2025-03-09 14:54:25.843,10.0300,-2.6600,1.2800,-7.1875,5.4375,-95.0000,77.3125,36.5000,0.0000,199.5000,
2025-03-09 14:54:25.863,9.8500,-1.9800,1.1700,-5.6250,0.8750,-88.6875,77.7500,33.1250,0.0000,200.3750,
2025-03-09 14:54:25.878,9.6900,-1.7900,1.2300,-10.1875,-1.1875,-85.4375,78.1875,29.7500,0.0000,201.3125,
2025-03-09 14:54:25.885,9.6100,-1.7100,1.3000,-15.2500,-3.6250,-81.1875,78.6250,26.2500,0.0000,202.2500,
2025-03-09 14:54:25.917,9.5600,-1.6900,1.2700,-20.5000,-6.1250,-77.1875,79.3125,19.5625,0.0000,204.0625,
2025-03-09 14:54:25.917,9.5100,-1.5200,1.2200,-31.5625,-10.1250,-68.6250,79.6250,16.3125,0.0000,205.0000,
2025-03-09 14:54:25.936,9.4300,-1.5300,1.2600,-36.3125,-10.5000,-63.8750,79.8750,13.1875,0.0000,205.8750,
2025-03-09 14:54:25.936,9.5000,-1.3600,1.3900,-38.8125,-11.8125,-59.6250,80.3125,7.4375,0.0000,207.6875,
2025-03-09 14:54:25.966,9.5400,-1.4300,1.4000,-41.7500,-12.6250,-56.4375,80.5000,4.6875,0.0000,208.5625,
2025-03-09 14:54:25.966,9.4700,-1.5300,1.3700,-47.7500,-10.6250,-49.6875,80.6250,2.0000,0.0000,209.5000,
2025-03-09 14:54:26.007,9.4900,-1.6200,1.4600,-46.4375,-10.3750,-41.7500,80.8125,-0.8125,0.0000,210.9375,
2025-03-09 14:54:26.037,9.5500,-1.5000,1.5400,-43.3750,-12.4375,-38.1250,81.0625,-1.0625,0.0000,212.0000,
2025-03-09 14:54:26.037,9.4400,-1.1600,1.6000,-37.7500,-14.7500,-31.1250,81.1875,-1.1250,0.0000,212.4375,
2025-03-09 14:54:26.037,9.3700,-1.1200,1.6300,-35.5625,-14.2500,-28.3125,81.3125,-2.7500,0.0000,213.0000,
2025-03-09 14:54:26.037,9.4100,-1.1800,1.7500,-32.4375,-13.5625,-26.3750,81.5625,-5.7500,0.0000,214.1250,
2025-03-09 14:54:26.057,9.2500,-1.1500,1.8700,-28.0000,-13.3750,-24.0000,81.6250,-7.1250,0.0000,214.5625,
2025-03-09 14:54:26.058,9.4400,-1.1200,1.7900,-23.0000,-11.3750,-16.5000,81.7500,-8.3125,0.0000,214.9375,
2025-03-09 14:54:26.088,9.5600,-0.8800,1.6100,-15.8750,-6.8125,-11.3125,81.8750,-8.4375,0.0000,215.4375,
2025-03-09 14:54:26.098,9.4800,-0.7300,1.5800,-11.2500,-3.5625,-9.7500,81.8750,-8.1250,0.0000,215.6875,
2025-03-09 14:54:26.108,9.2700,-0.1600,1.4900,-0.3125,-0.0625,-6.5000,81.9375,-8.6250,0.0000,215.8125,
2025-03-09 14:54:26.130,9.3600,0.0500,1.4600,5.5625,0.3125,-4.1875,81.8750,-9.4375,0.0000,215.8750,
2025-03-09 14:54:26.150,9.3500,0.0900,1.4500,6.4375,0.6250,-3.3750,81.8750,-10.0625,0.0000,215.8125,
2025-03-09 14:54:26.170,9.4500,0.1800,1.3900,5.6250,-0.4375,-2.8125,81.8750,-10.3125,0.0000,215.7500,
2025-03-09 14:54:26.181,9.5800,0.1700,1.3100,7.2500,-3.0000,-2.8125,81.8750,-10.8750,0.0000,215.7500,
2025-03-09 14:54:26.201,9.6300,0.1600,1.2500,8.5000,-3.6250,-2.3125,81.9375,-11.4375,0.0000,215.6250,
2025-03-09 14:54:26.212,9.6000,0.2200,1.2200,12.2500,-5.3125,-1.6250,82.0000,-11.7500,0.0000,215.5625,
2025-03-09 14:54:26.221,9.5900,0.2500,1.2200,13.0000,-5.8125,-1.2500,82.0000,-12.0625,0.0000,215.4375,
2025-03-09 14:54:26.241,9.6000,0.3800,1.2000,12.9375,-6.2500,-0.6875,82.1250,-12.6250,0.0000,215.2500,
2025-03-09 14:54:26.252,9.6200,0.4200,1.2100,12.1250,-6.5000,-0.1875,82.1875,-12.8125,0.0000,215.1250,
2025-03-09 14:54:26.262,9.6600,0.5100,1.2200,11.1250,-6.1875,-0.1875,82.2500,-13.0625,0.0000,215.0000,
2025-03-09 14:54:26.294,9.6500,0.5500,1.2700,8.7500,-5.4375,-0.9375,82.3125,-13.3125,0.0000,214.9375,
2025-03-09 14:54:26.308,9.6500,0.5600,1.3300,6.5625,-5.8750,-1.7500,82.3750,-14.0000,0.0000,214.8750,
2025-03-09 14:54:26.308,9.6400,0.5100,1.3600,5.0000,-6.5000,-2.5625,82.4375,-14.4375,0.0000,214.6875,
2025-03-09 14:54:26.315,9.5900,0.4000,1.3600,5.0625,-7.0000,-2.9375,82.5000,-14.8125,0.0000,214.6875,
2025-03-09 14:54:26.324,9.5800,0.3400,1.3400,7.1250,-6.8750,-2.5625,82.5625,-15.2500,0.0000,214.6250,
2025-03-09 14:54:26.338,9.5900,0.4200,1.2800,7.6875,-6.8750,-2.3125,82.6875,-16.0625,0.0000,214.5625,
2025-03-09 14:54:26.344,9.5500,0.5000,1.3100,7.5625,-6.3750,-2.6875,82.6875,-16.5000,0.0000,214.5000,
2025-03-09 14:54:26.365,9.5700,0.4900,1.3200,6.8750,-5.3750,-2.9375,82.7500,-16.8750,0.0000,214.5000,
2025-03-09 14:54:26.389,9.5700,0.5400,1.2900,5.3750,-3.7500,-3.4375,82.7500,-17.3125,0.0000,214.5000,
2025-03-09 14:54:26.390,9.6400,0.5700,1.2700,4.7500,-3.1250,-3.7500,82.8125,-18.1875,0.0000,214.5000,
2025-03-09 14:54:26.400,9.6700,0.6800,1.2400,3.9375,-2.7500,-3.8750,82.8125,-18.6250,0.0000,214.5000,
2025-03-09 14:54:26.456,9.6500,0.7100,1.2000,2.8750,-2.8125,-3.7500,82.8125,-19.1250,0.0000,214.5000,
2025-03-09 14:54:26.456,9.6400,0.7400,1.1700,0.5000,-1.8750,-3.5000,82.8125,-19.5625,0.0000,214.5625,
2025-03-09 14:54:26.456,9.6900,0.6800,1.1500,-0.8750,-1.1250,-3.3125,82.8125,-20.3750,0.0000,214.6875,
2025-03-09 14:54:26.456,9.6900,0.6400,1.1800,-2.3125,-0.5000,-3.5625,82.8125,-20.6875,0.0000,214.7500,
2025-03-09 14:54:26.456,9.6900,0.5800,1.1800,-3.8125,0.1250,-3.6875,82.7500,-21.0000,0.0000,214.8125,
2025-03-09 14:54:26.486,9.6900,0.5400,1.2100,-4.6250,0.3750,-3.9375,82.7500,-21.2500,0.0000,214.8750,
2025-03-09 14:54:26.486,9.7200,0.4800,1.1800,-5.0625,0.1250,-4.1875,82.6875,-21.7500,0.0000,215.0625,
2025-03-09 14:54:26.509,9.7100,0.4600,1.2100,-4.8125,0.0625,-4.0625,82.6875,-22.0000,0.0000,215.2500,
2025-03-09 14:54:26.509,9.6800,0.4500,1.1700,-4.1250,0.3125,-3.6875,82.6875,-22.2500,0.0000,215.3125,
2025-03-09 14:54:26.526,9.6500,0.4800,1.1500,-3.2500,0.7500,-3.5000,82.6875,-22.4375,0.0000,215.3750,
2025-03-09 14:54:26.536,9.6200,0.5400,1.1400,-1.9375,1.1250,-3.0000,82.6250,-22.7500,0.0000,215.4375,
2025-03-09 14:54:26.546,9.6100,0.5800,1.1800,-1.6875,1.5000,-3.1250,82.6250,-22.9375,0.0000,215.5000,
2025-03-09 14:54:26.566,9.6200,0.5800,1.1800,-1.9375,2.0625,-3.1875,82.5625,-23.0625,0.0000,215.5625,
2025-03-09 14:54:26.612,9.5900,0.5600,1.1800,-2.3750,2.5625,-3.6250,82.5625,-23.2500,0.0000,215.6250,
2025-03-09 14:54:26.612,9.5600,0.4100,1.1900,-4.5000,3.0000,-4.9375,82.4375,-23.6250,0.0000,215.7500,
2025-03-09 14:54:26.612,9.5500,0.3500,1.2100,-5.6250,2.8125,-5.6250,82.3750,-23.8125,0.0000,215.8750,
2025-03-09 14:54:26.613,9.5800,0.2900,1.1900,-6.2500,2.3750,-6.2500,82.3750,-24.0625,0.0000,216.0000,
2025-03-09 14:54:26.619,9.6100,0.1800,1.2200,-6.7500,1.7500,-6.6875,82.3125,-24.3750,0.0000,216.1250,
2025-03-09 14:54:26.647,9.6200,0.1000,1.2600,-5.1250,0.5625,-6.8125,82.2500,-25.1250,0.0000,216.3125,
2025-03-09 14:54:26.647,9.5600,0.0900,1.3500,-3.1250,0.3125,-7.1250,82.1875,-25.5625,0.0000,216.4375,
2025-03-09 14:54:26.657,9.5700,0.1200,1.3800,-0.1875,-0.1875,-7.5625,82.1875,-26.0625,0.0000,216.5000,
2025-03-09 14:54:26.677,9.5800,0.2500,1.3600,2.8125,-1.0000,-7.9375,82.1875,-26.3125,0.0000,216.5000,
2025-03-09 14:54:26.687,9.5800,0.6300,1.3900,8.2500,-1.5000,-8.8750,82.1250,-27.4375,0.0000,216.5625,
2025-03-09 14:54:26.697,9.5600,0.7500,1.3900,9.8750,-2.0625,-9.0000,82.0625,-28.1250,0.0000,216.5000,
2025-03-09 14:54:26.717,9.5300,0.8600,1.3600,10.8125,-2.5000,-8.4375,82.0625,-28.8750,0.0000,216.5000,
2025-03-09 14:54:26.719,9.5100,0.9500,1.3200,10.7500,-2.6875,-7.5000,82.0625,-29.5000,0.0000,216.4375,
2025-03-09 14:54:26.737,9.4400,1.0600,1.2800,7.8125,-3.0000,-6.1250,82.0625,-30.6875,0.0000,216.4375,
2025-03-09 14:54:26.757,9.4100,1.0500,1.2800,5.8750,-3.5000,-5.6875,82.0625,-31.1875,0.0000,216.4375,
2025-03-09 14:54:26.757,9.4600,1.0400,1.2800,4.8750,-3.9375,-4.9375,82.0625,-31.6875,0.0000,216.4375,
2025-03-09 14:54:26.777,9.4500,1.0500,1.3000,4.7500,-4.2500,-4.1875,82.0625,-32.1250,0.0000,216.4375,
2025-03-09 14:54:26.777,9.5000,1.1000,1.3200,4.6875,-4.5625,-3.6875,82.0625,-32.6875,0.0000,216.5000,
2025-03-09 14:54:26.787,9.5300,1.1600,1.3100,4.6875,-4.6250,-3.1875,82.0625,-33.1875,0.0000,216.5000,
2025-03-09 14:54:26.798,9.5800,1.2600,1.3300,3.6875,-4.1875,-2.9375,82.0000,-33.6875,0.0000,216.3125,
2025-03-09 14:54:26.810,9.5800,1.3100,1.3500,1.8125,-3.3750,-3.0000,82.0000,-34.2500,0.0000,216.3750,
2025-03-09 14:54:26.819,9.5900,1.3100,1.3600,-0.1875,-2.6250,-3.0000,81.9375,-34.6875,0.0000,216.4375,
2025-03-09 14:54:26.828,9.5600,1.3000,1.3900,-2.1875,-1.9375,-3.2500,81.8750,-35.1250,0.0000,216.5000,
2025-03-09 14:54:26.838,9.5400,1.2200,1.4300,-4.5000,-1.6875,-3.8750,81.8750,-35.5000,0.0000,216.6250,
2025-03-09 14:54:26.848,9.5400,1.1700,1.4500,-7.0000,-1.8750,-4.0625,81.8125,-35.8125,0.0000,216.9375,
2025-03-09 14:54:26.858,9.5400,1.0900,1.4300,-9.2500,-1.8750,-4.3750,81.7500,-36.0625,0.0000,217.1250,
2025-03-09 14:54:26.898,9.6100,0.9100,1.4200,-10.5625,-1.8750,-4.4375,81.6875,-36.3125,0.0000,217.2500,
2025-03-09 14:54:26.908,9.6500,0.7900,1.4100,-11.0000,-1.8125,-4.3125,81.6875,-36.5000,0.0000,217.3750,
2025-03-09 14:54:26.908,9.7200,0.7400,1.3800,-10.1250,-1.6250,-4.1250,81.6875,-36.6875,0.0000,217.5000,
2025-03-09 14:54:26.908,9.7700,0.6700,1.3400,-8.5625,-1.7500,-3.6250,81.6875,-36.8750,0.0000,217.6250,
2025-03-09 14:54:26.908,9.7600,0.7200,1.3200,-5.9375,-1.8750,-3.1250,81.6875,-37.0625,0.0000,217.6875,
2025-03-09 14:54:26.929,9.8100,0.7500,1.3000,-3.3750,-1.6875,-2.3125,81.6875,-37.2500,0.0000,217.7500,
2025-03-09 14:54:26.929,9.7800,0.8100,1.2800,-1.0625,-1.7500,-1.4375,81.6875,-37.3750,0.0000,217.8125,
2025-03-09 14:54:26.939,9.7300,0.9800,1.2700,1.1250,-1.5625,-0.8125,81.6875,-37.4375,0.0000,217.8125,
2025-03-09 14:54:26.959,9.6500,1.0900,1.2600,2.3750,-0.9375,-0.2500,81.6875,-37.5000,0.0000,217.7500,
2025-03-09 14:54:26.959,9.5800,1.1600,1.2800,2.5000,-0.6875,-0.0625,81.6875,-37.5625,0.0000,217.7500,
2025-03-09 14:54:26.969,9.4600,1.3100,1.2300,1.7500,-0.4375,0.0000,81.6875,-37.5625,0.0000,217.7500,
2025-03-09 14:54:26.999,9.4200,1.3500,1.2000,-0.6250,-0.5625,0.1250,81.6875,-37.5625,0.0000,217.7500,
2025-03-09 14:54:27.029,9.4100,1.3600,1.1700,-4.2500,-1.0000,-0.0625,81.6875,-37.5625,0.0000,217.8125,
2025-03-09 14:54:27.029,9.3700,1.3100,1.1700,-8.1875,-1.0000,-0.7500,81.6875,-37.5625,0.0000,217.8750,
2025-03-09 14:54:27.029,9.3500,1.1700,1.1600,-11.6250,-0.8750,-1.4375,81.6875,-37.5625,0.0000,217.9375,
2025-03-09 14:54:27.029,9.3800,1.0500,1.1800,-14.3125,-0.3750,-2.5000,81.6875,-37.5625,0.0000,218.1250,
2025-03-09 14:54:27.039,9.3600,0.9600,1.1900,-16.0625,0.2500,-3.5625,81.6250,-37.6250,0.0000,218.3125,
2025-03-09 14:54:27.039,9.3800,0.8800,1.2300,-16.8750,0.1875,-4.5625,81.6250,-37.7500,0.0000,218.5000,
