A1,,,,,,,,,,,
time,accx,accy,accz,gyrox,gyroy,gyroz,w1,w2,w3,w4,
2025-03-09 16:43:41.339,-0.2000,-0.0300,9.6400,-0.1875,0.0625,-0.1250,-0.5625,0.3750,0.0000,214.9375,
2025-03-09 16:43:41.349,-0.2100,-0.0600,9.6600,-0.1875,-0.1250,0.0000,-0.5625,0.3750,0.0000,214.9375,
2025-03-09 16:43:41.358,-0.2000,-0.0700,9.6500,-0.1250,0.0000,0.0625,-0.5625,0.3750,0.0000,214.9375,
2025-03-09 16:43:41.366,-0.2200,-0.0600,9.6900,0.0625,0.0000,-0.0625,-0.5625,0.3750,0.0000,214.9375,
2025-03-09 16:43:41.379,-0.2200,-0.0400,9.6800,-0.1250,-0.0625,-0.0625,-0.5625,0.3750,0.0000,214.9375,
2025-03-09 16:43:41.389,-0.2100,-0.0400,9.6600,0.0000,0.0625,-0.1875,-0.5625,0.3750,0.0000,214.9375,
2025-03-09 16:43:41.400,-0.2100,-0.0300,9.6700,-0.1250,-0.1250,-0.0625,-0.5625,0.3750,0.0000,214.9375,
2025-03-09 16:43:41.410,-0.2000,-0.0400,9.6500,-0.0625,-0.1250,0.0625,-0.5625,0.3750,0.0000,214.9375,
2025-03-09 16:43:41.418,-0.2000,-0.0400,9.6700,-0.0625,0.0000,0.0625,-0.5625,0.3750,0.0000,214.9375,
2025-03-09 16:43:41.428,-0.2200,-0.0600,9.6700,-0.2500,-0.0625,0.0625,-0.5625,0.3750,0.0000,214.9375,
2025-03-09 16:43:41.473,-0.2200,-0.0400,9.6600,-0.1875,-0.0625,0.0000,-0.5625,0.3750,0.0000,214.9375,
2025-03-09 16:43:41.473,-0.2000,-0.0400,9.6400,-0.2500,-0.0625,-0.0625,-0.5625,0.3750,0.0000,214.9375,
2025-03-09 16:43:41.473,-0.1900,-0.0300,9.6700,-0.3125,0.0000,-0.0625,-0.5625,0.3750,0.0000,214.9375,
2025-03-09 16:43:41.473,-0.2100,-0.0600,9.7000,-0.5625,-0.0625,-0.0625,-0.5625,0.3750,0.0000,214.9375,
2025-03-09 16:43:41.477,-0.2200,-0.0500,9.7300,-0.4375,-0.0625,0.0000,-0.5625,0.3750,0.0000,214.9375,
2025-03-09 16:43:41.488,-0.2100,-0.0400,9.6700,-0.3750,0.1250,-0.0625,-0.5625,0.3750,0.0000,214.9375,
2025-03-09 16:43:41.500,-0.2100,-0.0400,9.6300,-0.1250,-0.0625,-0.0625,-0.5625,0.3750,0.0000,214.9375,
2025-03-09 16:43:41.509,-0.2300,-0.0600,9.6500,0.0000,-0.0625,0.1250,-0.5625,0.3750,0.0000,214.9375,
2025-03-09 16:43:41.517,-0.2000,-0.0400,9.6700,0.0625,0.0000,-0.0625,-0.6250,0.3750,0.0000,214.9375,
2025-03-09 16:43:41.528,-0.2100,-0.0400,9.6600,0.1875,-0.0625,0.0625,-0.6250,0.3750,0.0000,214.9375,
2025-03-09 16:43:41.538,-0.2000,-0.0400,9.7100,-0.0625,0.0000,-0.0625,-0.6250,0.3750,0.0000,214.9375,
2025-03-09 16:43:41.549,-0.2000,-0.0400,9.6400,-0.1250,0.0625,0.0000,-0.6250,0.3750,0.0000,214.9375,
2025-03-09 16:43:41.565,-0.2200,-0.0300,9.6600,-0.1875,-0.1250,0.0000,-0.6250,0.3750,0.0000,214.9375,
2025-03-09 16:43:41.566,-0.2100,-0.0400,9.6700,-0.1250,-0.1250,0.1250,-0.6250,0.3750,0.0000,214.9375,
2025-03-09 16:43:41.579,-0.2000,-0.0400,9.6700,0.1875,0.1250,-0.1250,-0.6250,0.3750,0.0000,214.9375,
2025-03-09 16:43:41.587,-0.2200,-0.0500,9.6900,0.1875,0.0000,0.0000,-0.6250,0.3750,0.0000,214.9375,
2025-03-09 16:43:41.599,-0.2200,-0.0500,9.6700,0.0625,-0.1875,0.0000,-0.6250,0.3750,0.0000,214.9375,
2025-03-09 16:43:41.609,-0.2000,-0.0400,9.6700,-0.0625,-0.1250,-0.0625,-0.6250,0.3125,0.0000,214.9375,
2025-03-09 16:43:41.617,-0.2100,-0.0500,9.6800,0.0625,-0.0625,0.0000,-0.6250,0.3125,0.0000,214.9375,
2025-03-09 16:43:41.628,-0.2200,-0.0300,9.6800,0.0000,0.0625,0.0625,-0.6250,0.3125,0.0000,214.9375,
2025-03-09 16:43:41.639,-0.2100,-0.0400,9.6600,0.0625,-0.0625,0.1250,-0.6250,0.3125,0.0000,214.9375,
2025-03-09 16:43:41.648,-0.2100,-0.0400,9.6600,0.1250,0.0625,0.0625,-0.6250,0.3125,0.0000,214.9375,
2025-03-09 16:43:41.657,-0.2400,-0.0400,9.7000,0.1250,-0.0625,0.0625,-0.6250,0.3125,0.0000,214.9375,
2025-03-09 16:43:41.666,-0.2000,-0.0600,9.6800,0.0000,-0.2500,0.1250,-0.6250,0.3125,0.0000,214.9375,
2025-03-09 16:43:41.680,-0.2100,-0.0600,9.6800,-0.0625,-0.0625,0.0000,-0.6250,0.3125,0.0000,214.9375,
2025-03-09 16:43:41.688,-0.2000,-0.0500,9.6800,0.0000,0.0625,0.0625,-0.6250,0.3125,0.0000,214.9375,
2025-03-09 16:43:41.698,-0.2100,-0.0500,9.6500,0.0000,0.0000,-0.1250,-0.6250,0.3125,0.0000,214.9375,
2025-03-09 16:43:41.707,-0.2100,-0.0800,9.7100,-0.1250,0.0625,0.1250,-0.6250,0.3125,0.0000,214.9375,
2025-03-09 16:43:41.717,-0.2000,-0.0400,9.6700,0.0000,-0.1875,0.0000,-0.6250,0.3125,0.0000,214.9375,
2025-03-09 16:43:41.729,-0.2100,-0.0400,9.6800,-0.3750,-0.1250,0.0625,-0.6250,0.3125,0.0000,214.9375,
2025-03-09 16:43:41.768,-0.2100,-0.0500,9.6900,-0.1250,0.1250,-0.0625,-0.6250,0.3125,0.0000,214.9375,
2025-03-09 16:43:41.768,-0.2300,-0.0600,9.6600,0.1250,-0.0625,0.0625,-0.6250,0.3125,0.0000,214.9375,
2025-03-09 16:43:41.768,-0.2000,-0.0500,9.6800,0.1250,-0.1875,0.0625,-0.6250,0.3125,0.0000,214.9375,
2025-03-09 16:43:41.768,-0.2400,-0.0600,9.6900,0.0625,-0.1875,0.0000,-0.6875,0.3125,0.0000,214.9375,
2025-03-09 16:43:41.777,-0.2200,-0.0500,9.6700,0.1875,0.0000,0.1250,-0.6875,0.3125,0.0000,214.9375,
2025-03-09 16:43:41.788,-0.1900,-0.0500,9.6900,-0.0625,0.0625,0.0000,-0.6875,0.3125,0.0000,214.9375,
2025-03-09 16:43:41.798,-0.2000,-0.0700,9.6600,-0.1250,0.0000,0.0000,-0.6875,0.3125,0.0000,214.9375,
2025-03-09 16:43:41.808,-0.2100,-0.0500,9.6600,-0.1250,0.0625,0.1250,-0.6875,0.3125,0.0000,214.9375,
2025-03-09 16:43:41.817,-0.2100,-0.0800,9.6800,0.0000,-0.0625,0.1250,-0.6875,0.3125,0.0000,214.9375,
2025-03-09 16:43:41.828,-0.2100,-0.0600,9.6800,-0.1250,-0.0625,0.0625,-0.6875,0.3125,0.0000,214.9375,
2025-03-09 16:43:41.838,-0.2000,-0.0300,9.6600,0.1250,0.0000,-0.0625,-0.6875,0.3125,0.0000,214.9375,
2025-03-09 16:43:41.849,-0.2500,-0.0500,9.6600,0.0000,0.0625,0.0625,-0.6875,0.3125,0.0000,214.9375,
2025-03-09 16:43:41.865,-0.2200,-0.0600,9.6800,0.1250,-0.0625,-0.1250,-0.6875,0.3125,0.0000,214.9375,
2025-03-09 16:43:41.867,-0.2100,-0.0700,9.7000,-0.0625,0.0625,0.0000,-0.6875,0.3125,0.0000,214.9375,
2025-03-09 16:43:41.877,-0.2100,-0.0400,9.6800,0.0625,-0.1250,0.0000,-0.6875,0.3125,0.0000,214.9375,
2025-03-09 16:43:41.887,-0.2500,-0.0700,9.6800,-0.0625,0.0000,0.1875,-0.6875,0.3125,0.0000,214.9375,
2025-03-09 16:43:41.897,-0.2300,-0.0500,9.6700,0.1250,-0.1250,0.5625,-0.6875,0.3125,0.0000,214.9375,
2025-03-09 16:43:41.908,-0.1600,-0.0200,9.6400,0.0625,-0.0625,1.3125,-0.6875,0.3125,0.0000,214.9375,
2025-03-09 16:43:41.918,-0.1500,0.0100,9.6800,0.0000,0.0625,1.1250,-0.6875,0.3125,0.0000,214.9375,
2025-03-09 16:43:41.927,-0.2200,-0.0100,9.6600,-0.0625,-0.1250,0.5000,-0.6875,0.3125,0.0000,214.9375,
2025-03-09 16:43:41.937,-0.2700,-0.0700,9.6500,0.0000,-0.1250,0.6250,-0.6875,0.3125,0.0000,214.9375,
2025-03-09 16:43:41.948,-0.1700,-0.0200,9.6700,0.0000,0.0000,0.5625,-0.6875,0.3125,0.0000,214.9375,
2025-03-09 16:43:41.966,-0.2100,-0.0400,9.6900,-0.1250,-0.0625,0.0000,-0.6875,0.3125,0.0000,214.9375,
2025-03-09 16:43:41.966,-0.1900,-0.0500,9.6700,-0.1250,-0.0625,0.1250,-0.6875,0.3125,0.0000,214.9375,
2025-03-09 16:43:41.978,-0.2200,-0.0700,9.6900,0.0000,-0.0625,-0.0625,-0.6875,0.3125,0.0000,214.9375,
2025-03-09 16:43:41.995,-0.2100,-0.0500,9.6600,0.0625,0.0000,0.0625,-0.6875,0.3125,0.0000,214.9375,
2025-03-09 16:43:41.998,-0.2200,-0.0600,9.6600,0.0625,-0.0625,0.0000,-0.6875,0.3125,0.0000,214.9375,
2025-03-09 16:43:42.008,-0.2100,-0.0900,9.6700,-0.1250,-0.0625,-0.0625,-0.6875,0.3125,0.0000,214.9375,
2025-03-09 16:43:42.016,-0.2100,-0.0400,9.6800,-0.0625,0.0000,0.0000,-0.6875,0.3125,0.0000,214.9375,
2025-03-09 16:43:42.028,-0.2200,-0.0600,9.6800,-0.1250,0.0625,0.0625,-0.6875,0.3125,0.0000,214.9375,
2025-03-09 16:43:42.067,-0.2200,-0.0300,9.6700,-0.1250,-0.1250,0.0000,-0.6875,0.3125,0.0000,214.9375,
2025-03-09 16:43:42.075,-0.2000,-0.0500,9.6500,-0.1250,-0.1875,0.0625,-0.6875,0.3125,0.0000,214.9375,
2025-03-09 16:43:42.076,-0.2100,-0.0600,9.6700,-0.2500,-0.0625,0.1250,-0.6875,0.3125,0.0000,214.9375,
2025-03-09 16:43:42.076,-0.2400,-0.0800,9.6600,-0.1250,0.0000,0.2500,-0.6875,0.3125,0.0000,214.9375,
2025-03-09 16:43:42.078,-0.2700,-0.0900,9.6700,0.0625,-0.0625,0.9375,-0.6875,0.3125,0.0000,214.8750,
2025-03-09 16:43:42.091,-0.0700,0.0200,9.6500,0.1250,-0.1250,2.3750,-0.6875,0.3125,0.0000,214.8750,
2025-03-09 16:43:42.099,-0.2100,-0.0300,9.6500,-0.2500,0.0000,0.8750,-0.6875,0.3125,0.0000,214.8750,
2025-03-09 16:43:42.109,-0.2300,-0.0500,9.7000,-0.2500,-0.1250,0.0625,-0.6875,0.3125,0.0000,214.8750,
2025-03-09 16:43:42.117,-0.2300,-0.0800,9.6900,0.0625,-0.0625,0.4375,-0.6875,0.3125,0.0000,214.8750,
2025-03-09 16:43:42.137,-0.2200,-0.0500,9.6700,0.0000,0.0000,0.4375,-0.6875,0.3125,0.0000,214.8750,
2025-03-09 16:43:42.138,-0.2600,-0.0400,9.6800,-0.1875,0.0000,0.6875,-0.6875,0.3125,0.0000,214.8750,
2025-03-09 16:43:42.148,-0.2000,-0.0700,9.6300,0.3750,0.0625,1.7500,-0.6875,0.3125,0.0000,214.8125,
2025-03-09 16:43:42.159,-0.2200,-0.0600,9.6800,-0.1250,0.0625,0.6875,-0.6875,0.3125,0.0000,214.8125,
2025-03-09 16:43:42.179,-0.2400,-0.0600,9.6900,-0.1875,-0.0625,0.1875,-0.6875,0.3125,0.0000,214.8125,
2025-03-09 16:43:42.182,-0.2600,-0.0600,9.6900,0.1875,-0.0625,1.3750,-0.6875,0.3125,0.0000,214.8125,
2025-03-09 16:43:42.188,-0.1700,-0.0900,9.6700,0.1250,0.1875,1.3125,-0.6875,0.3125,0.0000,214.8125,
2025-03-09 16:43:42.197,-0.1900,-0.2100,9.6100,0.5000,0.0625,3.0625,-0.6875,0.3125,0.0000,214.7500,
2025-03-09 16:43:42.207,-0.2400,-0.2100,9.6600,0.5625,0.0625,7.3125,-0.6875,0.3125,0.0000,214.6875,
2025-03-09 16:43:42.225,-0.2000,-0.0500,9.6500,0.1250,0.0625,9.0000,-0.6875,0.3125,0.0000,214.6250,
2025-03-09 16:43:42.227,-0.1800,-0.0200,9.6800,-0.0625,0.1250,5.9375,-0.6875,0.3125,0.0000,214.5625,
2025-03-09 16:43:42.237,-0.3500,-0.2100,9.7400,-0.1875,-0.1875,3.0625,-0.6875,0.3125,0.0000,214.5625,
2025-03-09 16:43:42.249,-0.3000,-0.1700,9.7000,0.3750,0.0625,9.7500,-0.6875,0.3125,0.0000,214.4375,
2025-03-09 16:43:42.256,-0.1700,-0.0400,9.6600,0.5000,0.3125,15.0000,-0.6875,0.3125,0.0000,214.3125,
2025-03-09 16:43:42.267,-0.1300,0.0300,9.6900,0.0625,0.1250,13.4375,-0.6875,0.3125,0.0000,214.1875,
2025-03-09 16:43:42.287,-0.2000,0.1300,9.6400,-0.2500,0.2500,8.5000,-0.6875,0.3125,0.0000,214.0625,
2025-03-09 16:43:42.287,-0.1900,-0.0800,9.6900,-0.4375,-0.0625,1.3750,-0.6875,0.3125,0.0000,214.0625,
2025-03-09 16:43:42.297,-0.3300,-0.1000,9.7400,-0.4375,-0.1875,0.4375,-0.6875,0.3125,0.0000,214.0625,
2025-03-09 16:43:42.309,-0.3900,-0.5200,9.6800,0.6250,0.1875,8.0000,-0.6875,0.3125,0.0000,214.0000,
2025-03-09 16:43:42.336,-0.1600,-0.0900,9.6400,0.8750,-0.0625,21.0000,-0.6875,0.3125,0.0000,213.8125,
2025-03-09 16:43:42.336,-0.0800,0.2900,9.6300,-0.1250,-0.0625,17.6250,-0.6875,0.3125,0.0000,213.6250,
2025-03-09 16:43:42.386,-0.2100,-0.0500,9.7000,-0.4375,-0.0625,8.1875,-0.6875,0.3125,0.0000,213.5625,
2025-03-09 16:43:42.387,-0.1700,-0.0300,9.6600,0.0000,-0.0625,6.8750,-0.6875,0.3125,0.0000,213.5000,
2025-03-09 16:43:42.387,-0.2200,-0.0100,9.6900,0.0000,-0.1250,5.4375,-0.6875,0.3125,0.0000,213.4375,
2025-03-09 16:43:42.387,-0.1700,-0.0200,9.7000,0.1250,0.1250,7.5000,-0.6875,0.3125,0.0000,213.3125,
2025-03-09 16:43:42.387,-0.1500,0.0000,9.6400,0.1250,0.2500,8.0625,-0.6875,0.3125,0.0000,213.2500,
2025-03-09 16:43:42.387,-0.3200,-0.2300,9.7000,-0.0625,0.0000,6.5000,-0.6875,0.3125,0.0000,213.1875,
2025-03-09 16:43:42.399,-0.2300,-0.0700,9.6500,0.1250,0.0625,10.1250,-0.6875,0.3125,0.0000,213.1250,
2025-03-09 16:43:42.406,-0.1900,-0.0400,9.7000,-0.1875,-0.1875,5.2500,-0.6875,0.3125,0.0000,213.0625,
2025-03-09 16:43:42.417,-0.2200,-0.0700,9.6600,-0.3750,-0.1250,0.1250,-0.6875,0.3125,0.0000,213.0625,
2025-03-09 16:43:42.427,-0.1900,-0.0200,9.6800,-0.2500,0.0000,0.1250,-0.6875,0.3125,0.0000,213.0625,
2025-03-09 16:43:42.436,-0.2100,-0.0700,9.6800,-0.1875,0.1250,0.0625,-0.6875,0.3125,0.0000,213.0625,
2025-03-09 16:43:42.446,-0.2100,-0.0600,9.6800,-0.2500,-0.0625,0.2500,-0.6875,0.3125,0.0000,213.0625,
2025-03-09 16:43:42.458,-0.2600,-0.1100,9.6700,-0.1250,0.0000,0.5000,-0.6875,0.3125,0.0000,213.0625,
2025-03-09 16:43:42.467,-0.3600,-0.2400,9.6900,-0.1250,0.0625,3.3125,-0.6875,0.3125,0.0000,213.0000,
2025-03-09 16:43:42.478,-0.3600,-0.1300,9.6400,0.1250,0.1250,9.7500,-0.7500,0.3125,0.0000,212.9375,
2025-03-09 16:43:42.489,-0.2900,-0.1500,9.6600,0.0625,-0.0625,12.6875,-0.7500,0.3125,0.0000,212.8125,
2025-03-09 16:43:42.506,-0.1200,0.1100,9.6200,-0.1250,-0.3125,14.8125,-0.7500,0.3125,0.0000,212.6875,
2025-03-09 16:43:42.510,-0.1800,0.0000,9.6500,-0.2500,0.3125,10.6875,-0.7500,0.3125,0.0000,212.5625,
2025-03-09 16:43:42.526,-0.2100,-0.0500,9.6600,-0.3125,0.2500,7.7500,-0.7500,0.3125,0.0000,212.5000,
2025-03-09 16:43:42.526,-0.2500,-0.1200,9.7200,-0.3750,0.1250,7.1875,-0.7500,0.3125,0.0000,212.4375,
2025-03-09 16:43:42.536,-0.0500,0.1200,9.6700,-0.1250,0.0000,7.0000,-0.7500,0.3125,0.0000,212.3125,
2025-03-09 16:43:42.547,-0.2100,-0.0700,9.6700,-0.3125,-0.1250,1.9375,-0.7500,0.3125,0.0000,212.3125,
2025-03-09 16:43:42.559,-0.2200,-0.0700,9.6900,-0.0625,-0.0625,-0.0625,-0.7500,0.3125,0.0000,212.3125,
2025-03-09 16:43:42.566,-0.2200,-0.0400,9.6800,-0.0625,0.0000,0.1250,-0.7500,0.3125,0.0000,212.3125,
2025-03-09 16:43:42.578,-0.2200,-0.0700,9.6600,0.0000,-0.0625,0.0625,-0.7500,0.3125,0.0000,212.3125,
2025-03-09 16:43:42.587,-0.2100,-0.0500,9.6700,-0.0625,-0.0625,-0.1250,-0.7500,0.3125,0.0000,212.3125,
2025-03-09 16:43:42.596,-0.2000,-0.0500,9.6500,-0.0625,0.0625,-0.0625,-0.7500,0.3125,0.0000,212.3125,
2025-03-09 16:43:42.606,-0.2200,-0.0400,9.6500,-0.0625,-0.1250,-0.0625,-0.7500,0.3125,0.0000,212.3125,
2025-03-09 16:43:42.618,-0.2300,-0.0600,9.6900,-0.0625,0.0000,-0.1875,-0.7500,0.3125,0.0000,212.3125,
2025-03-09 16:43:42.627,-0.2300,-0.0800,9.6600,-0.1250,0.0000,-0.0625,-0.7500,0.3125,0.0000,212.3125,
2025-03-09 16:43:42.640,-0.2300,-0.0500,9.6700,-0.0625,-0.1250,0.0625,-0.7500,0.3125,0.0000,212.3125,
2025-03-09 16:43:42.675,-0.2100,-0.0400,9.6700,0.0000,-0.1875,-0.0625,-0.7500,0.3125,0.0000,212.3125,
2025-03-09 16:43:42.675,-0.2200,-0.0600,9.6800,0.0000,0.0000,0.0000,-0.7500,0.3125,0.0000,212.3125,
2025-03-09 16:43:42.675,-0.2200,-0.0500,9.6700,0.0000,-0.0625,-0.0625,-0.7500,0.3125,0.0000,212.3125,
2025-03-09 16:43:42.680,-0.2100,-0.0600,9.6700,-0.1250,0.1250,-0.0625,-0.7500,0.3125,0.0000,212.3125,
2025-03-09 16:43:42.687,-0.2100,-0.0500,9.6800,0.1250,0.0000,0.0000,-0.7500,0.3125,0.0000,212.3125,
2025-03-09 16:43:42.701,-0.2100,-0.0700,9.6600,0.1250,0.0625,0.1875,-0.7500,0.3125,0.0000,212.3125,
2025-03-09 16:43:42.708,-0.2300,-0.0600,9.6900,0.1875,-0.1250,-0.0625,-0.7500,0.3125,0.0000,212.3125,
2025-03-09 16:43:42.717,-0.2200,-0.0500,9.6800,0.0625,-0.0625,-0.0625,-0.7500,0.3125,0.0000,212.3125,
2025-03-09 16:43:42.729,-0.2300,-0.0500,9.6700,0.0000,0.0000,-0.0625,-0.7500,0.3125,0.0000,212.3125,
2025-03-09 16:43:42.737,-0.2100,-0.0600,9.6700,0.0000,-0.1250,-0.0625,-0.7500,0.3125,0.0000,212.3125,
2025-03-09 16:43:42.748,-0.1900,-0.0500,9.6600,0.0000,-0.1250,-0.0625,-0.7500,0.3125,0.0000,212.3125,
2025-03-09 16:43:42.765,-0.2100,-0.0600,9.6900,0.0625,0.0625,-0.0625,-0.7500,0.3125,0.0000,212.3125,
2025-03-09 16:43:42.766,-0.2100,-0.0600,9.6500,0.0625,0.0625,-0.1250,-0.7500,0.3125,0.0000,212.3125,
2025-03-09 16:43:42.778,-0.2100,-0.0600,9.6900,0.1875,-0.0625,0.0000,-0.7500,0.3125,0.0000,212.3125,
2025-03-09 16:43:42.794,-0.2200,-0.0500,9.6800,0.1250,0.0625,0.0000,-0.7500,0.3125,0.0000,212.3125,
2025-03-09 16:43:42.800,-0.2200,-0.0700,9.6700,0.0625,-0.0625,-0.0625,-0.7500,0.3125,0.0000,212.3125,
2025-03-09 16:43:42.808,-0.2100,-0.0500,9.6600,0.0625,0.0625,0.1250,-0.8125,0.3125,0.0000,212.3125,
2025-03-09 16:43:42.817,-0.2000,-0.0800,9.6900,0.1250,-0.1250,0.0000,-0.8125,0.3125,0.0000,212.3125,
2025-03-09 16:43:42.827,-0.2300,-0.0800,9.6800,0.1875,-0.0625,0.1250,-0.8125,0.3125,0.0000,212.3125,
2025-03-09 16:43:42.837,-0.2200,-0.0500,9.6700,0.0000,-0.1250,0.0000,-0.8125,0.3125,0.0000,212.3125,
2025-03-09 16:43:42.848,-0.2100,-0.0700,9.6900,0.1875,0.0000,-0.1875,-0.8125,0.3125,0.0000,212.3125,
2025-03-09 16:43:42.856,-0.2000,-0.0800,9.6800,0.1250,0.1250,-0.0625,-0.8125,0.3125,0.0000,212.3125,
2025-03-09 16:43:42.868,-0.2100,-0.0600,9.6800,0.0625,-0.0625,0.0625,-0.8125,0.3125,0.0000,212.3125,
2025-03-09 16:43:42.880,-0.2100,-0.0500,9.6800,0.0000,0.0625,-0.0625,-0.8125,0.3125,0.0000,212.3125,
2025-03-09 16:43:42.887,-0.2100,-0.0500,9.7000,0.0625,0.0625,-0.1875,-0.8125,0.3125,0.0000,212.3125,
2025-03-09 16:43:42.897,-0.2100,-0.0700,9.6500,0.1875,-0.0625,-0.0625,-0.8125,0.3125,0.0000,212.3125,
2025-03-09 16:43:42.917,-0.2200,-0.0300,9.6600,0.1875,0.0000,0.0625,-0.8125,0.3125,0.0000,212.3125,
2025-03-09 16:43:42.918,-0.2200,-0.0500,9.6800,0.2500,0.0625,0.0000,-0.8125,0.3125,0.0000,212.3125,
2025-03-09 16:43:42.927,-0.2100,-0.0600,9.6800,0.1875,-0.0625,-0.1875,-0.8125,0.3125,0.0000,212.3125,
2025-03-09 16:43:42.962,-0.2200,-0.0800,9.6800,0.1250,0.0000,0.0000,-0.8125,0.3125,0.0000,212.3125,
2025-03-09 16:43:42.962,-0.2100,-0.0500,9.6400,0.1250,0.0625,-0.1250,-0.8125,0.3125,0.0000,212.3125,
2025-03-09 16:43:42.982,-0.2000,-0.0400,9.6700,0.0625,-0.0625,-0.1250,-0.8125,0.3125,0.0000,212.3125,
2025-03-09 16:43:42.982,-0.2200,-0.0400,9.6800,0.1250,-0.1250,0.0000,-0.8125,0.3125,0.0000,212.3125,
2025-03-09 16:43:42.982,-0.2200,-0.0500,9.6900,0.3125,0.0625,-0.1250,-0.8125,0.3125,0.0000,212.3125,
2025-03-09 16:43:42.988,-0.2000,-0.0600,9.6700,0.0625,-0.1250,0.0625,-0.8125,0.3125,0.0000,212.3125,
2025-03-09 16:43:42.998,-0.2100,-0.0500,9.6600,0.2500,-0.1250,-0.0625,-0.8125,0.3125,0.0000,212.3125,
2025-03-09 16:43:43.007,-0.2300,-0.0500,9.7000,0.1875,0.0000,-0.1875,-0.8125,0.3125,0.0000,212.3125,
2025-03-09 16:43:43.017,-0.2000,-0.0400,9.6700,0.1875,0.0625,0.0625,-0.8125,0.3125,0.0000,212.3125,
2025-03-09 16:43:43.028,-0.2300,-0.0400,9.6900,0.2500,-0.1250,0.0625,-0.8125,0.3125,0.0000,212.3125,
2025-03-09 16:43:43.037,-0.2100,-0.0400,9.6800,0.4375,-0.1250,0.0625,-0.8125,0.3125,0.0000,212.3125,
2025-03-09 16:43:43.048,-0.2200,-0.0800,9.6400,0.5625,-0.1250,0.1875,-0.8125,0.3125,0.0000,212.3125,
2025-03-09 16:43:43.059,-0.2000,-0.0600,9.6500,0.5000,-0.0625,0.1875,-0.8125,0.3125,0.0000,212.3125,
2025-03-09 16:43:43.071,-0.2300,-0.0500,9.6500,0.3125,-0.1250,-0.0625,-0.8125,0.3125,0.0000,212.3125,
2025-03-09 16:43:43.078,-0.2000,-0.0600,9.6700,0.3750,-0.0625,-0.1250,-0.8125,0.3125,0.0000,212.3125,
2025-03-09 16:43:43.090,-0.2100,-0.0700,9.7000,0.4375,-0.0625,0.0000,-0.8125,0.3125,0.0000,212.3125,
2025-03-09 16:43:43.099,-0.2200,-0.0600,9.6600,0.4375,-0.1250,0.0625,-0.8125,0.3125,0.0000,212.3125,
2025-03-09 16:43:43.107,-0.2100,-0.0500,9.6500,0.5000,-0.0625,0.0625,-0.8125,0.3125,0.0000,212.3125,
2025-03-09 16:43:43.117,-0.2000,-0.0400,9.6900,0.3125,-0.1875,-0.0625,-0.8125,0.3125,0.0000,212.3125,
2025-03-09 16:43:43.128,-0.2200,-0.0500,9.6800,0.1250,-0.1250,-0.1875,-0.8125,0.3125,0.0000,212.3125,
2025-03-09 16:43:43.137,-0.2200,-0.0400,9.6900,0.2500,-0.3125,-0.0625,-0.8125,0.3125,0.0000,212.3125,
2025-03-09 16:43:43.148,-0.2100,-0.0500,9.6600,0.3125,-0.1250,-0.0625,-0.8125,0.3125,0.0000,212.3125,
2025-03-09 16:43:43.157,-0.2100,-0.0300,9.6600,0.5625,0.0000,-0.0625,-0.8125,0.3125,0.0000,212.3125,
2025-03-09 16:43:43.183,-0.2200,-0.0600,9.7000,0.9375,-0.0625,-0.0625,-0.8125,0.3125,0.0000,212.3125,
2025-03-09 16:43:43.187,-0.2400,-0.0400,9.6900,1.2500,0.0000,0.0625,-0.8125,0.3125,0.0000,212.3125,
2025-03-09 16:43:43.191,-0.2100,-0.0300,9.6700,1.5000,-0.1250,0.3125,-0.8125,0.2500,0.0000,212.3125,
2025-03-09 16:43:43.199,-0.2300,-0.0300,9.6600,1.5000,-0.3125,0.6250,-0.8125,0.2500,0.0000,212.3125,
2025-03-09 16:43:43.208,-0.2100,-0.0300,9.6800,1.1875,-0.2500,0.6250,-0.8125,0.2500,0.0000,212.3125,
2025-03-09 16:43:43.219,-0.2100,-0.0700,9.7700,1.7500,-0.5000,0.5625,-0.8125,0.2500,0.0000,212.3125,
2025-03-09 16:43:43.227,-0.2200,-0.0400,9.7200,3.3750,-0.5625,0.5625,-0.8125,0.1875,0.0000,212.3125,
2025-03-09 16:43:43.283,-0.1900,-0.0300,9.6700,5.1250,-0.4375,0.8750,-0.8125,0.1250,0.0000,212.3125,
2025-03-09 16:43:43.283,-0.2200,0.0100,9.6400,4.9375,-0.6875,0.5000,-0.8125,0.1250,0.0000,212.3125,
2025-03-09 16:43:43.283,-0.2500,0.0900,9.7600,3.4375,-1.3125,0.3125,-0.8125,0.0625,0.0000,212.3125,
2025-03-09 16:43:43.283,-0.2200,0.1900,9.6900,1.0000,-2.4375,0.8125,-0.8125,0.0625,0.0000,212.3125,
2025-03-09 16:43:43.283,-0.2400,0.0000,9.7800,-0.5625,-4.2500,2.8750,-0.7500,0.0625,0.0000,212.2500,
2025-03-09 16:43:43.290,-0.1700,0.0100,9.6800,0.4375,-5.0625,4.0625,-0.6875,0.0625,0.0000,212.2500,
2025-03-09 16:43:43.298,-0.1500,-0.0500,9.6300,0.2500,-5.6250,3.6875,-0.6875,0.0625,0.0000,212.1875,
2025-03-09 16:43:43.316,-0.1300,-0.0200,9.6400,-0.3125,-5.4375,3.5000,-0.6250,0.0625,0.0000,212.1875,
2025-03-09 16:43:43.321,-0.1800,0.0100,9.6800,0.2500,-4.5000,3.1250,-0.5625,0.0625,0.0000,212.1250,
2025-03-09 16:43:43.327,-0.3400,-0.0500,9.6900,2.0625,-3.5000,3.5625,-0.5625,0.0000,0.0000,212.0625,
2025-03-09 16:43:43.340,-0.3200,-0.0200,9.7900,3.8125,-2.1875,2.8750,-0.5000,0.0000,0.0000,212.0625,
2025-03-09 16:43:43.354,-0.3100,-0.0700,9.8200,4.8125,-2.5000,3.1250,-0.5000,0.0000,0.0000,212.0625,
2025-03-09 16:43:43.359,-0.0400,0.0300,9.7400,4.8750,-4.6250,2.3750,-0.4375,-0.0625,0.0000,212.0000,
2025-03-09 16:43:43.368,-0.0200,0.1000,9.6900,4.3125,-6.3125,1.6250,-0.3750,-0.0625,0.0000,212.0000,
2025-03-09 16:43:43.381,0.0100,0.1400,9.5500,2.6250,-7.8750,1.8750,-0.3750,-0.0625,0.0000,212.0000,
2025-03-09 16:43:43.389,-0.0400,0.0900,9.6700,-1.3125,-9.2500,1.5625,-0.3125,-0.1250,0.0000,212.0000,
2025-03-09 16:43:43.398,0.0500,0.1200,9.6600,-2.3750,-9.5625,1.8750,-0.1250,-0.0625,0.0000,211.9375,
2025-03-09 16:43:43.409,-0.0300,0.0000,9.7500,-2.1875,-9.5000,2.4375,-0.0625,-0.0625,0.0000,211.9375,
2025-03-09 16:43:43.422,-0.0600,-0.0900,9.8800,-2.3750,-10.4375,2.7500,0.0000,0.0000,0.0000,211.8750,
2025-03-09 16:43:43.427,-0.0200,-0.0300,9.8300,0.0000,-11.6875,2.1875,0.0000,0.0000,0.0000,211.8750,
2025-03-09 16:43:43.438,0.0400,-0.1700,9.9000,1.5000,-14.4375,1.0625,0.1250,0.0000,0.0000,211.8750,
2025-03-09 16:43:43.449,0.0800,-0.2200,9.9600,1.0000,-17.3750,-0.5625,0.4375,-0.0625,0.0000,211.8750,
2025-03-09 16:43:43.458,0.1100,-0.2200,9.9000,2.5000,-20.6875,-3.7500,0.6250,-0.0625,0.0000,211.8750,
2025-03-09 16:43:43.472,0.0900,0.0300,9.9400,2.8750,-24.2500,-7.4375,0.8125,-0.0625,0.0000,212.0000,
2025-03-09 16:43:43.477,0.2000,-0.1500,9.9900,-4.4375,-31.1875,-9.0000,0.8125,-0.0625,0.0000,212.0000,
2025-03-09 16:43:43.487,0.3400,0.0100,10.0100,-7.5000,-36.8125,-10.7500,1.1250,-0.0625,0.0000,212.0625,
2025-03-09 16:43:43.500,0.2800,0.2700,9.9400,-4.3125,-40.2500,-10.5625,1.8750,0.0000,0.0000,212.2500,
2025-03-09 16:43:43.508,0.2500,0.2300,9.8200,-2.3125,-44.0625,-5.7500,2.3125,0.0000,0.0000,212.3125,
2025-03-09 16:43:43.518,0.3400,0.0000,9.8800,-1.1250,-47.6250,5.1875,2.7500,0.0625,0.0000,212.2500,
2025-03-09 16:43:43.527,0.4600,0.0000,10.0000,4.6250,-48.3750,23.8750,2.7500,0.0625,0.0000,212.2500,
2025-03-09 16:43:43.569,0.8100,0.2900,9.7700,15.3750,-47.7500,35.2500,3.2500,0.0000,0.0000,212.0625,
2025-03-09 16:43:43.574,0.7100,0.2600,9.5700,23.0625,-47.7500,34.6250,4.1875,-0.2500,0.0000,211.3750,
2025-03-09 16:43:43.574,0.9300,0.3500,9.6700,24.6875,-48.2500,29.2500,4.6250,-0.5000,0.0000,211.0625,
2025-03-09 16:43:43.574,0.8700,-0.0100,9.8900,21.3125,-50.5625,22.9375,5.1250,-0.6875,0.0000,210.8125,
2025-03-09 16:43:43.577,0.9000,-0.1400,9.7000,17.3125,-53.0000,16.8750,5.1250,-0.6875,0.0000,210.8125,
2025-03-09 16:43:43.587,0.8000,-0.1000,9.8100,14.9375,-56.9375,18.9375,5.6250,-0.8125,0.0000,210.6875,
2025-03-09 16:43:43.600,1.0100,-0.3400,9.7700,14.2500,-59.0625,21.6875,6.7500,-1.0625,0.0000,210.2500,
2025-03-09 16:43:43.608,1.5600,0.1700,9.4900,20.4375,-60.1250,27.0625,7.3750,-1.2500,0.0000,210.0000,
2025-03-09 16:43:43.618,1.6900,0.2500,9.2100,16.9375,-62.7500,24.5000,8.0000,-1.3750,0.0000,209.7500,
2025-03-09 16:43:43.628,1.7700,0.1000,9.4100,3.3750,-69.3125,9.4375,8.0000,-1.3750,0.0000,209.7500,
2025-03-09 16:43:43.638,1.2900,0.2300,9.5300,-6.0625,-72.5000,-5.1875,8.6250,-1.3750,0.0000,209.6875,
2025-03-09 16:43:43.652,1.5600,0.6200,9.3100,1.6875,-67.0625,-9.7500,10.0000,-1.3750,0.0000,209.8125,
2025-03-09 16:43:43.658,1.7100,0.5900,9.4700,12.0625,-63.1875,-9.6250,10.6250,-1.5000,0.0000,209.9375,
2025-03-09 16:43:43.669,2.0400,0.5300,9.4800,15.8125,-60.6875,-8.0000,11.1875,-1.6875,0.0000,210.0000,
2025-03-09 16:43:43.677,1.4500,0.6500,9.4600,18.2500,-60.3750,-6.0625,11.1875,-1.6875,0.0000,210.0000,
2025-03-09 16:43:43.688,2.0500,0.4800,9.7600,20.0625,-60.1250,3.2500,11.7500,-1.8750,0.0000,210.0625,
2025-03-09 16:43:43.702,2.1700,0.4100,9.5700,28.0625,-60.8750,14.8750,12.9375,-2.3125,0.0000,209.8125,
2025-03-09 16:43:43.708,2.0400,0.2200,9.1500,32.8125,-62.8125,15.1250,13.5625,-2.6250,0.0000,209.6875,
2025-03-09 16:43:43.718,2.5300,0.4500,8.9700,26.3750,-67.2500,18.2500,14.2500,-2.8125,0.0000,209.5000,
2025-03-09 16:43:43.730,2.5400,0.4400,8.8400,24.8750,-64.4375,17.3125,14.2500,-2.8125,0.0000,209.5000,
2025-03-09 16:43:43.741,2.6500,0.3700,9.0400,15.0625,-65.8750,10.9375,14.8750,-3.0000,0.0000,209.3125,
2025-03-09 16:43:43.748,2.9100,0.3400,8.9600,1.2500,-70.0625,-0.4375,16.1875,-3.1875,0.0000,209.1875,
2025-03-09 16:43:43.758,2.7800,0.6100,8.8300,-0.7500,-70.2500,-4.4375,16.8750,-3.1875,0.0000,209.2500,
2025-03-09 16:43:43.767,3.3200,0.3700,9.0700,5.2500,-65.5625,0.5625,17.5000,-3.2500,0.0000,209.2500,
2025-03-09 16:43:43.776,3.0900,0.2500,8.9600,4.3750,-62.6250,-1.8125,17.5000,-3.2500,0.0000,209.2500,
2025-03-09 16:43:43.790,3.1600,0.7400,8.7600,-5.5000,-65.6250,-5.8750,18.0625,-3.3125,0.0000,209.3125,
2025-03-09 16:43:43.799,3.3500,0.7800,8.6000,-15.2500,-70.3750,-5.2500,19.3750,-3.1875,0.0000,209.5000,
2025-03-09 16:43:43.808,3.4200,0.8400,8.8800,-14.5000,-65.0625,-9.1250,20.0000,-3.0625,0.0000,209.6250,
2025-03-09 16:43:43.819,3.4900,0.9600,8.7200,-8.1250,-56.6875,-8.6250,20.5625,-3.0625,0.0000,209.7500,
2025-03-09 16:43:43.827,3.3800,0.7100,8.9500,-6.1875,-53.0625,-4.0000,20.5625,-3.0625,0.0000,209.7500,
2025-03-09 16:43:43.868,3.1900,0.6400,8.7300,-12.5000,-52.8125,-8.1875,21.0625,-3.0000,0.0000,209.8125,
2025-03-09 16:43:43.870,3.3100,0.5800,9.3700,-22.5625,-59.3750,-10.2500,22.1250,-2.7500,0.0000,210.0625,
2025-03-09 16:43:43.870,3.4900,0.1700,9.4100,-29.5625,-66.6250,-9.6250,22.8125,-2.5000,0.0000,210.2500,
2025-03-09 16:43:43.870,4.0300,0.0700,9.2300,-24.9375,-70.6250,-5.9375,23.5000,-2.3125,0.0000,210.3750,
2025-03-09 16:43:43.878,4.3500,0.2000,8.8100,-13.1875,-75.2500,-3.3750,23.5000,-2.3125,0.0000,210.3750,
2025-03-09 16:43:43.887,4.2600,0.4700,7.9800,-10.9375,-77.7500,-5.7500,24.1875,-2.1875,0.0000,210.4375,
2025-03-09 16:43:43.899,4.2100,0.5300,8.0200,-21.9375,-82.0625,-13.0000,25.7500,-2.0000,0.0000,210.6875,
2025-03-09 16:43:43.908,4.3800,0.6300,8.4000,-36.1875,-85.3125,-12.2500,26.5625,-1.7500,0.0000,210.9375,
2025-03-09 16:43:43.918,4.2400,0.6800,8.3500,-40.6250,-81.7500,-12.9375,26.5625,-1.7500,0.0000,210.9375,
2025-03-09 16:43:43.929,4.2400,0.6800,8.3500,-43.9375,-78.4375,-19.2500,27.3750,-1.4375,0.0000,211.1250,
2025-03-09 16:43:43.940,4.4000,-0.4000,9.3700,-50.1250,-80.8125,-23.5000,28.1250,-1.1250,0.0000,211.4375,
2025-03-09 16:43:43.948,5.0300,-0.1400,9.1300,-43.0000,-84.4375,-22.6250,29.6875,-0.4375,0.0000,212.1250,
2025-03-09 16:43:43.958,4.6400,-0.1500,8.3300,-20.3750,-90.4375,-15.7500,30.5625,-0.3750,0.0000,212.3125,
2025-03-09 16:43:43.975,5.0000,0.0500,8.1200,-11.3125,-98.0000,-10.4375,31.5000,-0.3125,0.0000,212.5000,
2025-03-09 16:43:43.977,4.9300,0.3300,8.0300,-10.9375,-105.8750,0.1875,31.5000,-0.3125,0.0000,212.5000,
2025-03-09 16:43:43.988,5.1500,0.1900,7.6400,-12.4375,-107.5625,3.0000,32.5625,-0.1875,0.0000,212.5000,
2025-03-09 16:43:43.997,5.8700,0.4900,7.8600,-22.5625,-111.3125,4.1875,34.6875,0.1250,0.0000,212.5625,
2025-03-09 16:43:44.010,5.8200,0.4800,7.3200,-16.7500,-113.0625,10.1250,35.7500,0.3750,0.0000,212.5000,
2025-03-09 16:43:44.026,6.0800,0.3400,7.5600,-14.5625,-114.4375,7.4375,36.8750,0.5625,0.0000,212.4375,
2025-03-09 16:43:44.028,6.0800,0.3400,7.5600,-15.0000,-116.2500,2.3125,36.8750,0.5625,0.0000,212.4375,
2025-03-09 16:43:44.037,6.1100,-0.2500,7.1300,-9.2500,-119.1875,2.6875,38.0000,0.7500,0.0000,212.5000,
2025-03-09 16:43:44.048,6.2400,-0.4200,6.9900,-9.3750,-118.9375,6.8750,40.3125,1.0000,0.0000,212.4375,
2025-03-09 16:43:44.058,6.5400,-0.5700,6.8400,-14.4375,-118.3750,7.4375,41.4375,1.2500,0.0000,212.4375,
2025-03-09 16:43:44.068,6.5900,-0.3400,6.9800,-21.0625,-121.6250,5.1875,42.6250,1.5000,0.0000,212.4375,
2025-03-09 16:43:44.078,6.6700,-0.3500,6.7200,-25.0625,-127.0625,-7.6875,42.6250,1.5000,0.0000,212.4375,
2025-03-09 16:43:44.087,6.9600,-0.4700,6.7500,-25.0625,-127.0625,-7.6875,43.8125,1.7500,0.0000,212.5625,
2025-03-09 16:43:44.098,7.2000,-0.3100,6.1300,-24.0625,-133.1250,-20.1250,46.3750,2.0000,0.0000,213.0000,
2025-03-09 16:43:44.113,7.0500,0.1700,5.9800,-11.7500,-149.8125,-14.3750,47.8125,2.0000,0.0000,213.1875,
2025-03-09 16:43:44.122,6.9000,0.5100,6.2100,1.6875,-145.4375,7.7500,49.2500,2.1875,0.0000,213.0625,
2025-03-09 16:43:44.127,6.9000,0.5100,6.2100,1.3750,-137.3750,11.9375,49.2500,2.1875,0.0000,213.0625,
2025-03-09 16:43:44.173,7.7200,0.2400,5.0200,-9.4375,-131.1250,4.8750,50.5625,2.3125,0.0000,212.9375,
2025-03-09 16:43:44.173,7.8500,0.0700,5.0200,-13.3125,-127.8750,-3.0625,53.0625,2.7500,0.0000,213.0000,
2025-03-09 16:43:44.173,7.8800,-0.0100,5.3400,-7.0000,-129.7500,-8.3125,54.3125,2.7500,0.0000,213.0625,
2025-03-09 16:43:44.173,8.0000,-0.1700,5.1400,0.5625,-134.7500,-9.1250,55.6250,2.7500,0.0000,213.1250,
2025-03-09 16:43:44.177,8.0000,-0.1700,5.1400,6.5000,-139.3125,-8.5000,55.6250,2.7500,0.0000,213.1250,
2025-03-09 16:43:44.187,8.0100,-0.2300,5.0500,17.9375,-143.6250,-8.1250,57.0000,2.6250,0.0000,213.1875,
2025-03-09 16:43:44.199,8.2300,-0.2500,4.4700,27.5000,-147.8750,-10.6250,59.8125,2.1250,0.0000,213.0625,
2025-03-09 16:43:44.209,8.4600,-0.1000,4.0300,32.7500,-152.5000,-12.2500,61.2500,1.6875,0.0000,213.0000,
2025-03-09 16:43:44.219,8.6800,0.0100,3.4900,31.5625,-155.5625,-12.0000,62.8125,1.1875,0.0000,212.8750,
2025-03-09 16:43:44.228,8.6800,0.0100,3.4900,20.7500,-152.8125,-12.6875,62.8125,1.1875,0.0000,212.8750,
2025-03-09 16:43:44.237,8.6300,0.1600,3.2800,1.8750,-142.0625,-19.3125,64.2500,0.8125,0.0000,212.9375,
2025-03-09 16:43:44.249,8.4300,-0.1000,3.6200,-14.5000,-121.0000,-21.5000,66.8125,0.1250,0.0000,213.4375,
2025-03-09 16:43:44.263,8.4200,-0.0800,3.5900,-20.5625,-94.2500,-13.5000,67.7500,0.0000,0.0000,213.6875,
2025-03-09 16:43:44.268,8.5600,0.0000,3.7000,-25.5000,-67.3125,-7.9375,68.3750,0.0625,0.0000,213.9375,
2025-03-09 16:43:44.277,8.5600,0.0000,3.7000,-28.4375,-44.5000,-8.3125,68.3750,0.0625,0.0000,213.9375,
2025-03-09 16:43:44.287,8.7300,0.0900,3.6200,-28.6250,-25.6875,-7.2500,68.8125,0.1250,0.0000,214.5625,
2025-03-09 16:43:44.300,8.8600,0.1900,3.6600,-29.5625,-15.5000,-4.9375,69.1875,0.3750,0.0000,215.0625,
2025-03-09 16:43:44.309,9.2300,0.3000,3.4800,-19.5625,-14.5000,-2.1875,69.3125,0.5000,0.0000,215.1875,
2025-03-09 16:43:44.319,8.5200,0.3100,2.9400,-11.0625,-20.3750,-1.8750,69.5625,0.5625,0.0000,215.3125,
2025-03-09 16:43:44.328,8.5200,0.3100,2.9400,3.5625,-33.4375,7.1875,69.5625,0.5625,0.0000,215.3125,
2025-03-09 16:43:44.337,8.3800,0.5200,2.5600,6.5625,-43.7500,14.9375,69.8750,0.7500,0.0000,215.6875,
2025-03-09 16:43:44.349,8.5900,0.1100,2.2100,-1.8125,-48.3125,10.6875,70.3125,1.1250,0.0000,215.5000,
2025-03-09 16:43:44.359,8.7600,0.0900,2.1700,-9.5625,-45.3125,5.9375,70.7500,1.4375,0.0000,215.3750,
2025-03-09 16:43:44.369,8.8500,0.0200,2.3800,-16.3125,-42.2500,5.5625,71.1875,1.7500,0.0000,215.3750,
2025-03-09 16:43:44.378,8.8500,0.0200,2.3800,-22.0000,-45.3125,3.9375,71.6250,2.1250,0.0000,215.4375,
2025-03-09 16:43:44.387,8.8500,-0.1700,2.3900,-28.1250,-55.2500,1.8750,72.0625,2.5000,0.0000,215.8125,
2025-03-09 16:43:44.404,13.5400,0.6600,4.8600,-18.4375,-58.8750,4.6250,72.5625,2.8750,0.0000,216.0000,
2025-03-09 16:43:44.408,8.4800,-0.3800,3.0100,-28.6250,-30.6250,-15.5625,73.1250,3.3125,0.0000,216.0625,
2025-03-09 16:43:44.419,9.2200,0.0500,2.6100,-49.8750,-28.3750,-23.5000,73.4375,3.1250,0.0000,216.4375,
2025-03-09 16:43:44.428,9.2200,0.0500,2.6100,-45.5000,-32.1875,-23.3125,73.7500,2.9375,0.0000,217.0000,
2025-03-09 16:43:44.470,9.1700,0.0000,2.3400,-38.9375,-35.3125,-23.9375,74.0625,2.6250,0.0000,217.8125,
2025-03-09 16:43:44.475,9.3600,0.3200,2.7500,-22.5625,-41.0000,-20.6250,74.3750,2.2500,0.0000,218.3750,
2025-03-09 16:43:44.475,9.3100,-0.0100,2.3400,-8.4375,-46.6250,-17.7500,74.8125,1.7500,0.0000,218.6875,
2025-03-09 16:43:44.475,9.4100,0.0200,2.1600,-6.6250,-51.0625,-18.6875,75.2500,1.2500,0.0000,218.9375,
2025-03-09 16:43:44.477,9.4100,0.0200,2.1600,-8.7500,-54.9375,-20.6250,75.7500,0.6250,0.0000,219.1875,
2025-03-09 16:43:44.487,9.3800,0.1000,2.0700,-2.5000,-58.0000,-19.2500,76.3125,0.0000,0.0000,219.6250,
2025-03-09 16:43:44.498,9.3200,0.3500,1.7700,-0.3125,-60.1250,-18.1250,76.8750,-0.7500,0.0000,219.8125,
2025-03-09 16:43:44.510,9.3700,0.3400,1.7200,-0.6250,-61.2500,-17.0000,77.4375,-1.6250,0.0000,220.0000,
2025-03-09 16:43:44.520,9.3500,0.4200,1.5800,0.1250,-62.1875,-15.1250,78.0000,-2.4375,0.0000,220.1875,
2025-03-09 16:43:44.542,9.2700,0.5500,1.6900,5.5625,-62.1250,-10.5625,79.1875,-4.0625,0.0000,220.6875,
2025-03-09 16:43:44.550,9.4500,0.3200,1.2700,32.3125,-57.6250,-0.7500,79.7500,-4.7500,0.0000,220.5625,
2025-03-09 16:43:44.559,9.4600,0.2700,1.1700,42.8125,-54.2500,0.8750,80.3125,-5.4375,0.0000,220.3125,
2025-03-09 16:43:44.577,9.4900,0.3500,0.8500,52.6250,-50.4375,2.3125,80.8750,-6.1250,0.0000,220.0000,
2025-03-09 16:43:44.580,9.4900,0.3500,0.8500,52.6250,-50.4375,2.3125,81.3750,-6.8125,0.0000,219.5000,
2025-03-09 16:43:44.588,9.6200,0.3100,0.7200,56.3750,-46.6875,3.5000,81.8125,-7.5000,0.0000,219.5625,
2025-03-09 16:43:44.599,9.6400,0.2800,-0.0600,43.5000,-42.5625,5.3125,82.2500,-8.1875,0.0000,219.0625,
2025-03-09 16:43:44.609,9.6900,0.1700,-0.1900,21.9375,-39.5625,2.8125,82.6250,-8.6250,0.0000,218.6250,
2025-03-09 16:43:44.623,9.6500,0.1200,0.0700,2.1875,-34.3750,-1.8750,83.0000,-9.1250,0.0000,218.4375,
2025-03-09 16:43:44.638,9.6200,0.3600,0.1700,-6.5625,-22.6875,-3.6250,83.6250,-1.1250,0.0000,218.9375,
2025-03-09 16:43:44.655,9.4500,0.6800,0.1900,-8.4375,-18.3125,-1.1250,83.8125,-1.1875,0.0000,219.0625,
2025-03-09 16:43:44.659,9.5500,0.4800,0.5700,-7.3125,-13.4375,2.8125,84.0000,-1.1875,0.0000,219.1250,
2025-03-09 16:43:44.670,9.6000,0.3000,0.4500,-4.6875,-11.7500,5.5000,84.1250,-1.1250,0.0000,219.1875,
2025-03-09 16:43:44.679,9.6000,0.3000,0.4500,-12.5000,-13.6875,5.2500,84.2500,-1.0625,0.0000,219.1875,
2025-03-09 16:43:44.688,9.6200,0.3500,0.4300,-22.5625,-16.3750,4.4375,84.3750,-1.0000,0.0000,219.9375,
2025-03-09 16:43:44.699,9.5700,0.4300,0.5800,-22.6875,-17.5000,5.3125,84.5625,-0.9375,0.0000,220.0625,
2025-03-09 16:43:44.711,9.5200,0.6000,0.3700,-12.2500,-14.5000,9.0000,84.7500,-0.8750,0.0000,220.2500,
2025-03-09 16:43:44.719,9.6500,0.3700,0.1900,-2.7500,-10.4375,14.3750,84.8750,-0.7500,0.0000,220.2500,
2025-03-09 16:43:44.757,9.6800,0.1600,0.2100,-2.3750,-7.0625,15.7500,85.1875,-0.5625,0.0000,220.0625,
2025-03-09 16:43:44.777,9.5300,0.0200,0.8800,-2.2500,-5.7500,15.2500,85.2500,-0.3750,0.0000,219.9375,
2025-03-09 16:43:44.777,9.5600,-0.0600,0.9900,0.1875,-11.0625,13.8125,85.3125,-0.2500,0.0000,219.8125,
2025-03-09 16:43:44.777,9.7000,-0.0400,0.5400,3.4375,-16.7500,10.8750,85.4375,-0.1250,0.0000,219.6875,
2025-03-09 16:43:44.778,9.7000,-0.0400,0.5400,3.4375,-16.7500,10.8750,85.6250,0.0000,0.0000,219.5625,
2025-03-09 16:43:44.787,9.6200,-0.1900,0.3100,2.5000,-19.0000,7.6875,85.8125,0.0000,0.0000,219.4375,
2025-03-09 16:43:44.799,9.6700,0.0000,-0.1600,2.1875,-18.3750,-0.3750,86.0000,0.0625,0.0000,219.3750,
2025-03-09 16:43:44.809,9.6100,0.0900,0.0500,-0.3750,-13.0625,-2.6875,86.1875,0.0625,0.0000,219.3750,
2025-03-09 16:43:44.819,9.6100,0.1200,0.2000,-0.4375,-8.8750,-3.3750,86.3125,0.0000,0.0000,219.3750,
2025-03-09 16:43:44.837,9.5600,0.1600,0.3200,0.2500,-7.8750,-3.8125,86.4375,0.0000,0.0000,219.8125,
2025-03-09 16:43:44.849,9.5900,0.3000,0.1200,3.7500,-13.6875,-3.3750,86.5625,-0.0625,0.0000,219.8125,
2025-03-09 16:43:44.865,9.5500,0.3200,0.0900,1.8125,-14.8125,-2.0000,86.6875,-0.0625,0.0000,219.8125,
2025-03-09 16:43:44.869,9.6000,0.2100,0.1100,1.3750,-14.5000,-0.1250,86.8125,-0.0625,0.0000,219.8125,
2025-03-09 16:43:44.888,9.6400,0.0500,0.0500,0.6250,-14.5000,1.1875,87.1250,-0.1250,0.0000,220.3750,
2025-03-09 16:43:44.899,9.6200,0.1200,0.0700,0.5000,-13.2500,2.0000,87.2500,-0.0625,0.0000,220.3750,
2025-03-09 16:43:44.909,9.5900,0.2000,-0.1800,0.3750,-12.1250,2.3125,87.3750,-0.0625,0.0000,220.3750,
2025-03-09 16:43:44.931,9.6500,0.1000,-0.1800,-0.2500,-10.0625,3.2500,87.6875,-0.0625,0.0000,220.3125,
2025-03-09 16:43:44.937,9.6500,0.0800,-0.1500,-0.1875,-7.9375,3.3125,87.8125,0.0000,0.0000,220.6875,
2025-03-09 16:43:44.948,9.6400,0.0200,-0.1100,0.1250,-2.8750,1.5625,87.9375,0.0000,0.0000,220.6875,
2025-03-09 16:43:44.960,9.6300,0.0800,-0.1000,0.0625,-0.5625,1.1250,88.0000,0.0000,0.0000,220.6250,
2025-03-09 16:43:44.969,9.6400,0.0300,-0.1300,0.1875,1.0625,0.0000,88.0625,0.0000,0.0000,220.6250,
2025-03-09 16:43:44.987,9.6500,-0.0500,-0.0800,-0.1250,2.9375,-1.3750,88.1250,0.0000,0.0000,221.0000,
2025-03-09 16:43:44.998,9.6000,0.1800,-0.0500,-1.6250,3.8750,-4.1250,88.1250,-0.0625,0.0000,221.0625,
2025-03-09 16:43:45.008,9.6000,0.1900,-0.0900,-3.4375,4.2500,-3.9375,88.1250,-0.0625,0.0000,221.1250,
2025-03-09 16:43:45.027,9.5400,0.3000,-0.0400,-2.6250,5.8750,-2.8750,88.0625,-0.1875,0.0000,221.2500,
2025-03-09 16:43:45.070,9.5700,0.1900,0.2400,0.3125,6.1875,-0.3750,88.0000,-0.1875,0.0000,221.6875,
2025-03-09 16:43:45.070,9.6300,0.0200,0.2000,1.0625,1.9375,-0.5625,88.0000,-0.1875,0.0000,221.6875,
2025-03-09 16:43:45.070,9.5800,0.2100,0.4100,1.4375,-0.3125,-2.0625,87.9375,-0.1875,0.0000,221.6875,
2025-03-09 16:43:45.070,9.5500,0.1500,0.3200,2.6875,-3.6250,-2.0000,87.9375,-0.1875,0.0000,221.6875,
2025-03-09 16:43:45.087,9.6000,0.1100,0.2900,5.6875,-7.3125,-1.3750,88.0625,-0.2500,0.0000,221.6875,
2025-03-09 16:43:45.100,9.6000,0.2700,-0.0400,2.4375,-10.3750,-4.3125,88.1250,-0.2500,0.0000,221.6250,
2025-03-09 16:43:45.111,9.5300,0.4000,0.0000,3.1250,-10.1875,-3.7500,88.2500,-0.3125,0.0000,221.6875,
2025-03-09 16:43:45.126,9.5500,0.3500,0.0000,1.8125,-10.5000,-1.1250,88.4375,-0.3750,0.0000,221.6875,
2025-03-09 16:43:45.139,9.5900,0.2300,-0.1100,-0.0625,-11.1875,0.5000,88.5625,-0.3750,0.0000,222.1250,
2025-03-09 16:43:45.149,9.6100,0.1600,-0.1100,-0.6250,-10.2500,1.2500,88.6250,-0.3125,0.0000,222.0625,
2025-03-09 16:43:45.170,9.6200,0.1500,-0.0200,0.1250,-10.6875,0.3125,88.8750,-0.3125,0.0000,222.0625,
2025-03-09 16:43:45.188,9.6100,0.1500,0.0000,0.4375,-11.8750,-0.3125,89.0625,-0.3125,0.0000,222.1875,
2025-03-09 16:43:45.200,9.6200,0.1000,-0.1200,0.3750,-13.3750,-1.5000,89.1875,-0.3750,0.0000,222.1875,
2025-03-09 16:43:45.209,9.6300,0.1600,-0.3800,0.5625,-12.0625,-2.8125,89.3125,-0.3750,0.0000,222.1875,
2025-03-09 16:43:45.226,9.6600,0.1400,-0.4200,0.6875,-9.9375,-3.1250,89.4375,-0.4375,0.0000,222.2500,
2025-03-09 16:43:45.238,9.6000,0.1800,-0.3700,0.7500,-7.1250,-3.4375,89.4375,-0.4375,0.0000,222.6875,
2025-03-09 16:43:45.249,9.5800,0.4200,-0.2100,1.3750,-2.2500,-1.3750,89.4375,-0.5000,0.0000,222.6875,
2025-03-09 16:43:45.269,9.6400,0.1400,-0.3900,2.6875,1.8125,0.8125,89.4375,-0.5000,0.0000,222.6875,
2025-03-09 16:43:45.287,9.6400,0.1100,-0.4700,4.1875,5.8125,-0.8125,89.3750,-0.5000,0.0000,222.7500,
2025-03-09 16:43:45.298,9.6100,0.2700,-0.3200,-1.2500,8.8750,-0.7500,89.3750,-0.5625,0.0000,222.8125,
2025-03-09 16:43:45.309,9.6300,0.1800,-0.1000,-2.5000,8.0000,3.8125,89.3125,-0.5625,0.0000,222.8125,
2025-03-09 16:43:45.327,9.6600,0.0100,-0.1500,-6.5625,5.8125,6.5625,89.3750,-0.5000,0.0000,222.8125,
2025-03-09 16:43:45.372,9.6400,-0.0500,-0.0800,-9.3125,4.8750,5.3125,89.3750,-0.4375,0.0000,223.0000,
2025-03-09 16:43:45.372,9.6400,0.0800,-0.2400,0.1875,7.7500,-0.6250,89.3750,-0.4375,0.0000,223.0000,
2025-03-09 16:43:45.372,9.6100,0.1900,-0.0500,1.6875,10.0000,-2.8750,89.1875,-0.4375,0.0000,223.0000,
2025-03-09 16:43:45.394,9.6000,0.2500,-0.1400,6.1875,10.8125,-2.1250,89.0625,-0.5000,0.0000,223.1875,
2025-03-09 16:43:45.399,9.5900,0.2700,-0.0600,4.3750,12.8125,0.8125,88.9375,-0.5000,0.0000,223.1250,
2025-03-09 16:43:45.410,9.7200,0.0900,0.1600,-2.9375,27.2500,5.6250,88.8750,-0.5000,0.0000,223.0625,
2025-03-09 16:43:45.429,9.5500,0.0700,0.2300,-11.1875,43.6250,7.9375,88.2500,-0.3750,0.0000,223.0625,
2025-03-09 16:43:45.437,9.5500,0.1300,0.0000,-11.9375,48.6875,7.4375,87.8125,-0.3125,0.0000,223.2500,
2025-03-09 16:43:45.449,9.5500,0.2100,0.0000,-10.8125,40.0000,7.3125,87.3750,-0.1875,0.0000,223.2500,
2025-03-09 16:43:45.472,9.5400,0.0000,0.6200,-11.0625,38.0000,7.8750,86.6875,-0.0625,0.0000,223.3125,
2025-03-09 16:43:45.488,9.6200,0.2600,0.4600,-13.8125,40.1250,9.6875,85.8750,0.0625,0.0000,223.5625,
2025-03-09 16:43:45.503,9.6100,0.2300,0.8100,-9.4375,25.2500,7.2500,85.5625,0.1250,0.0000,223.5625,
2025-03-09 16:43:45.520,9.9900,-0.0700,1.5700,-16.6250,24.7500,12.3750,85.1250,0.3125,0.0000,223.6250,
2025-03-09 16:43:45.537,10.2000,-0.0800,1.5600,-19.6875,32.8750,18.5000,84.5625,0.6250,0.0000,223.7500,
2025-03-09 16:43:45.549,10.1800,0.0800,1.7300,-9.3750,36.3750,11.8125,84.1875,0.8125,0.0000,223.6875,
2025-03-09 16:43:45.572,9.9900,0.0000,1.4700,2.6875,45.4375,2.5000,83.4375,1.0000,0.0000,223.6250,
2025-03-09 16:43:45.587,9.9500,-0.2300,1.2500,5.6875,47.8750,0.5000,82.5000,8.1250,0.0000,223.5625,
2025-03-09 16:43:45.599,9.8300,-0.2700,1.3100,-0.8750,56.9375,3.0625,82.0000,7.5625,0.0000,223.5625,
2025-03-09 16:43:45.610,9.9300,0.0300,1.6600,-9.9375,63.2500,6.8125,81.5000,7.3125,0.0000,223.5000,
2025-03-09 16:43:45.628,9.8700,0.1600,1.7600,-12.7500,66.5000,7.6875,80.1875,7.3125,0.0000,223.6250,
2025-03-09 16:43:45.673,9.6300,-0.1700,1.7500,-9.6250,66.3125,5.4375,79.5625,7.2500,0.0000,223.6875,
2025-03-09 16:43:45.679,9.2300,-0.3700,1.9000,-13.5625,78.6250,10.4375,78.8750,7.1875,0.0000,223.7500,
2025-03-09 16:43:45.679,9.5800,-0.1500,2.1200,-25.3750,91.8125,22.1250,77.3125,7.8750,0.0000,223.7500,
2025-03-09 16:43:45.687,9.3400,-0.1900,2.0200,-18.5625,92.6875,20.1875,75.4375,8.8750,0.0000,223.7500,
2025-03-09 16:43:45.700,9.4700,-0.3300,2.3500,13.6250,72.0000,17.5000,74.6250,9.1250,0.0000,223.6250,
2025-03-09 16:43:45.721,9.5300,-0.6600,3.0700,30.3125,67.8125,27.0000,73.2500,9.3125,0.0000,223.0625,
2025-03-09 16:43:45.737,9.5500,-1.3500,1.7300,20.8750,80.5000,37.2500,71.7500,10.0000,0.0000,222.3750,
2025-03-09 16:43:45.750,8.8100,-0.7500,2.6400,-22.8125,103.5625,64.3750,70.8125,11.0625,0.0000,221.8750,
2025-03-09 16:43:45.770,8.8100,-0.7900,3.7100,-37.3750,158.7500,73.0000,68.3125,13.7500,0.0000,221.0625,
2025-03-09 16:43:45.788,9.3900,-0.1400,4.1900,-33.5625,176.1875,50.3125,64.8750,15.2500,0.0000,220.6250,
2025-03-09 16:43:45.804,9.1700,-0.6500,4.1000,-12.0000,152.4375,7.2500,63.1875,14.9375,0.0000,220.7500,
2025-03-09 16:43:45.821,8.9500,-0.3900,4.5400,36.9375,94.6875,-4.3750,60.5625,13.9375,0.0000,220.8750,
2025-03-09 16:43:45.837,8.7300,-1.1100,5.3800,64.2500,86.0625,-7.1250,58.9375,12.0625,0.0000,220.6250,
2025-03-09 16:43:45.855,8.5100,-1.7300,4.4700,73.8125,106.0000,8.0000,58.0000,11.0000,0.0000,220.3125,
2025-03-09 16:43:45.870,8.4600,-2.3600,4.6800,48.1250,102.0625,44.3125,55.9375,9.6250,0.0000,219.4375,
2025-03-09 16:43:45.899,7.8100,0.3600,5.9500,47.6875,105.5625,47.4375,53.8125,9.5000,0.0000,218.1250,
2025-03-09 16:43:45.902,8.1900,0.3200,6.3100,69.5625,112.6250,4.3750,52.6875,9.0625,0.0000,217.6250,
2025-03-09 16:43:45.919,7.8800,-0.2300,6.3300,55.0000,122.3750,-13.0000,50.5000,7.2500,0.0000,217.1250,
2025-03-09 16:43:45.974,8.0100,0.1000,6.6500,46.0625,127.0625,-26.5000,48.1875,5.5000,0.0000,217.1875,
2025-03-09 16:43:45.976,7.7300,-0.6600,6.7300,39.3125,140.0625,-50.0625,46.9375,4.5625,0.0000,217.5000,
2025-03-09 16:43:45.976,7.1800,-1.5900,6.8700,37.5625,150.0625,-44.0000,44.2500,2.6250,0.0000,218.2500,
2025-03-09 16:43:45.986,6.3400,-2.0600,6.9700,23.6250,169.6250,-36.3750,41.1875,1.1875,0.0000,218.8125,
2025-03-09 16:43:45.999,5.8700,-1.1500,6.8200,-4.3125,202.8750,7.1875,39.3125,0.9375,0.0000,219.1250,
2025-03-09 16:43:46.021,5.4900,0.7600,7.7800,-3.4375,174.0625,4.6250,35.5000,1.1875,0.0000,218.9375,
2025-03-09 16:43:46.036,5.6700,1.1900,8.4600,5.2500,155.6875,0.6875,32.3125,1.1875,0.0000,218.9375,
2025-03-09 16:43:46.049,5.2500,0.9600,8.4500,43.8750,121.6250,-27.5000,31.0000,0.8750,0.0000,219.0000,
2025-03-09 16:43:46.070,4.2500,0.0000,8.0000,33.0625,118.0000,-30.8125,28.6875,-0.3125,0.0000,219.3125,
2025-03-09 16:43:46.088,4.1300,-0.2400,8.5500,21.3125,126.0000,-25.3125,26.3125,-1.0625,0.0000,219.7500,
2025-03-09 16:43:46.100,4.0400,-0.3600,9.3700,-8.8750,163.6250,-15.0625,24.9375,-1.2500,0.0000,219.8750,
2025-03-09 16:43:46.125,3.7200,0.4100,8.6800,-10.5625,154.5000,-5.5625,21.7500,-1.1250,0.0000,220.0625,
2025-03-09 16:43:46.137,2.9200,0.8600,9.5300,-5.0625,149.0000,-8.9375,18.8125,-1.0000,0.0000,220.2500,
2025-03-09 16:43:46.150,2.8700,0.6300,9.6900,-5.3750,164.9375,-18.3750,17.2500,-0.9375,0.0000,220.3750,
2025-03-09 16:43:46.173,2.5900,-0.0400,8.8300,21.3125,131.6875,-26.1875,14.1875,-1.0625,0.0000,220.7500,
2025-03-09 16:43:46.189,1.8300,-0.5800,8.5100,33.4375,110.1250,-29.6250,11.8125,-1.6875,0.0000,221.1875,
2025-03-09 16:43:46.200,1.8400,-1.0800,8.5000,26.8750,92.3750,-18.6250,10.8125,-2.0625,0.0000,221.3750,
2025-03-09 16:43:46.220,1.2000,0.5000,10.3900,-3.0000,90.0000,10.8750,9.1875,-2.4375,0.0000,221.5625,
2025-03-09 16:43:46.268,1.1300,0.7600,9.7800,-0.1875,118.1875,8.8750,7.1250,-2.3750,0.0000,221.3125,
2025-03-09 16:43:46.276,0.8700,0.5700,9.9300,-8.6875,143.3750,-6.6250,5.8750,-2.3125,0.0000,221.2500,
2025-03-09 16:43:46.276,0.0600,0.5500,8.9200,-7.7500,157.0000,-3.0000,2.9375,-2.1250,0.0000,221.3750,
2025-03-09 16:43:46.290,-0.0900,0.5700,8.4000,6.5000,127.6250,-3.5625,0.1875,-2.1250,0.0000,221.3750,
2025-03-09 16:43:46.302,-0.4600,0.4000,9.1500,23.5625,66.3750,-5.9375,-0.5000,-2.3750,0.0000,221.4375,
2025-03-09 16:43:46.325,-0.5100,0.6400,9.6900,7.3750,81.6250,2.9375,-1.9375,-2.6875,0.0000,221.4375,
2025-03-09 16:43:46.337,-0.8800,1.0400,9.4100,13.0625,80.5000,2.6250,-3.5000,-2.8750,0.0000,221.3750,
2025-03-09 16:43:46.349,-0.8800,1.1800,9.4000,41.6250,60.5625,-7.3125,-4.2500,-3.1250,0.0000,221.3750,
2025-03-09 16:43:46.374,-1.1900,1.0500,9.0700,58.2500,48.6875,-16.3125,-5.3125,-4.0625,0.0000,221.5625,
2025-03-09 16:43:46.401,-1.3100,0.9300,8.9900,43.5000,49.3125,-17.6250,-6.3125,-5.0625,0.0000,221.7500,
2025-03-09 16:43:46.403,-1.3200,1.1100,9.0500,28.3125,49.1250,-18.5000,-6.7500,-5.3125,0.0000,221.9375,
2025-03-09 16:43:46.425,-1.3400,1.0800,8.9200,9.5625,51.0625,-16.0000,-7.8125,-5.5000,0.0000,222.1875,
2025-03-09 16:43:46.438,-1.2900,0.5700,8.9700,9.5625,45.3750,-20.2500,-8.7500,-5.6250,0.0000,222.5625,
2025-03-09 16:43:46.455,-1.3300,0.3700,8.8800,4.5625,35.6875,-16.3750,-9.1250,-5.6875,0.0000,222.6875,
2025-03-09 16:43:46.471,-1.3300,0.2300,9.1500,-0.6250,32.9375,-11.5000,-9.8125,-5.7500,0.0000,223.0000,
2025-03-09 16:43:46.495,-1.6600,0.6900,8.6100,1.1875,32.6250,-8.7500,-10.5000,-5.6875,0.0000,223.1250,
2025-03-09 16:43:46.509,-1.8600,0.7700,8.2700,4.7500,22.7500,-10.8750,-10.7500,-5.7500,0.0000,223.2500,
2025-03-09 16:43:46.527,-1.6400,0.3400,8.7400,0.7500,15.6250,-11.6875,-11.1250,-5.7500,0.0000,223.4375,
2025-03-09 16:43:46.569,-1.5300,0.4900,9.2700,-11.3750,4.6250,-7.6250,-11.2500,-5.5625,0.0000,223.3750,
2025-03-09 16:43:46.570,-1.5200,0.5700,9.5800,-17.6875,6.4375,-4.3125,-11.3125,-5.3750,0.0000,223.3750,
2025-03-09 16:43:46.576,-1.8000,0.3500,8.9000,-11.6250,10.6250,-7.7500,-11.5625,-5.0625,0.0000,223.5000,
2025-03-09 16:43:46.587,-1.5800,0.2600,9.3400,-9.2500,1.8750,-5.8125,-11.6250,-4.8750,0.0000,223.2500,
2025-03-09 16:43:46.607,-1.4800,0.2400,9.6500,-11.9375,0.1250,-3.3125,-11.6250,-4.6875,0.0000,223.2500,
2025-03-09 16:43:46.620,-1.6300,0.5800,9.9100,-14.2500,1.6875,-1.3750,-11.6250,-4.4375,0.0000,223.2500,
2025-03-09 16:43:46.637,-1.8500,0.4300,9.3600,-1.7500,4.0000,-3.9375,-11.7500,-4.3125,0.0000,223.0625,
2025-03-09 16:43:46.652,-1.8300,0.4100,9.3600,-1.7500,4.0000,-3.9375,-11.8125,-4.2500,0.0000,223.1250,
2025-03-09 16:43:46.671,-1.9300,0.5000,9.1600,0.3750,-3.5625,1.3125,-11.8125,-4.2500,0.0000,223.1250,
2025-03-09 16:43:46.688,-1.8500,0.5800,9.3200,0.9375,-6.6875,0.0000,-11.6875,-4.3125,0.0000,222.8750,
2025-03-09 16:43:46.712,-1.7700,0.3700,9.7900,4.1875,-6.6875,-1.0625,-11.6250,-4.3125,0.0000,222.9375,
2025-03-09 16:43:46.726,-1.8700,0.4600,9.6400,5.6250,-2.5625,0.7500,-11.5625,-4.4375,0.0000,222.9375,
2025-03-09 16:43:46.742,-1.8600,0.8900,9.4000,-4.8125,1.9375,5.8125,-11.6250,-4.3750,0.0000,222.5625,
2025-03-09 16:43:46.749,-1.9500,0.9800,9.2900,-1.6250,-1.3750,2.8125,-11.5625,-4.3750,0.0000,222.5625,
2025-03-09 16:43:46.774,-2.0800,1.0300,9.1000,-1.6250,-3.0625,-1.4375,-11.5000,-4.3750,0.0000,222.5625,
2025-03-09 16:43:46.788,-1.9900,0.9100,9.2000,-4.5625,-11.4375,-3.4375,-11.3750,-4.2500,0.0000,222.3750,
2025-03-09 16:43:46.801,-1.8100,0.5000,9.7000,-5.0625,-13.4375,-3.1875,-11.2500,-4.1875,0.0000,222.4375,
2025-03-09 16:43:46.820,-1.7100,0.5300,9.5700,-4.8750,-7.9375,-0.5625,-11.0625,-4.0625,0.0000,222.4375,
2025-03-09 16:43:46.870,-1.9000,0.6100,9.1200,-5.5000,-7.5625,-1.8125,-10.9375,-4.0000,0.0000,222.2500,
2025-03-09 16:43:46.870,-1.9000,0.6100,8.9900,-6.0625,-10.1875,-2.6875,-10.8125,-3.9375,0.0000,222.2500,
2025-03-09 16:43:46.875,-1.7300,0.6800,9.4800,-5.5000,-19.5000,-3.3125,-10.5000,-3.8125,0.0000,222.3125,
2025-03-09 16:43:46.888,-1.5100,0.7800,9.9800,-2.1875,-19.4375,-7.1250,-10.1250,-3.6875,0.0000,222.3125,
2025-03-09 16:43:46.899,-1.4400,0.7400,10.1600,-1.4375,-15.7500,-9.2500,-9.9375,-3.6875,0.0000,222.3750,
2025-03-09 16:43:46.912,-1.5100,0.5400,9.9300,1.2500,-9.2500,-9.9375,-9.8750,-3.6875,0.0000,222.5000,
2025-03-09 16:43:46.928,-1.6200,0.0400,9.1600,5.8750,-5.5000,-8.5625,-9.8125,-3.7500,0.0000,222.6875,
2025-03-09 16:43:46.937,-1.8300,0.0300,8.5600,3.5000,-10.1250,-3.7500,-9.6875,-3.7500,0.0000,222.6875,
2025-03-09 16:43:46.950,-1.7800,0.2600,8.7700,-3.7500,-17.0000,2.8125,-9.5000,-3.7500,0.0000,222.6250,
2025-03-09 16:43:46.973,-1.5400,0.6800,9.4700,-11.6875,-24.6250,6.4375,-9.0625,-3.5625,0.0000,222.5000,
2025-03-09 16:43:46.988,-1.3800,0.7600,9.6100,-6.4375,-21.5000,0.5000,-8.6250,-3.3750,0.0000,222.3125,
2025-03-09 16:43:46.999,-1.4200,0.6300,9.4100,-1.1250,-21.9375,-2.8750,-8.4375,-3.3750,0.0000,222.3125,
2025-03-09 16:43:47.010,-1.4300,0.4600,9.2000,1.8125,-25.5625,-4.3125,-8.1875,-3.3750,0.0000,222.3750,
2025-03-09 16:43:47.030,-1.4400,0.4000,8.8200,-5.2500,-37.0625,2.2500,-7.5000,-3.3125,0.0000,222.3750,
2025-03-09 16:43:47.041,-1.2700,0.5500,9.2500,-9.8125,-43.6875,3.7500,-7.0625,-3.1875,0.0000,222.1875,
2025-03-09 16:43:47.049,-1.0500,0.9500,9.8800,-10.6875,-47.7500,2.4375,-6.6250,-3.1250,0.0000,222.1250,
2025-03-09 16:43:47.060,-0.7500,0.8900,10.4400,-11.1250,-47.8750,-0.6875,-6.1875,-3.0000,0.0000,222.1250,
2025-03-09 16:43:47.080,-0.7000,0.5700,10.5600,-4.9375,-35.5625,-8.9375,-5.3750,-2.8750,0.0000,222.3125,
2025-03-09 16:43:47.093,-0.8100,0.4300,9.6800,-2.3750,-27.8750,-9.6875,-5.1250,-2.8125,0.0000,222.3125,
2025-03-09 16:43:47.099,-1.0400,0.4900,8.9000,1.9375,-28.6250,-11.4375,-4.8750,-2.8750,0.0000,222.4375,
2025-03-09 16:43:47.126,-1.1900,0.5800,8.3500,2.0000,-36.8750,-12.3125,-4.5000,-2.8750,0.0000,222.5625,
2025-03-09 16:43:47.127,-1.0600,0.7700,8.1200,-7.7500,-59.6250,-14.0625,-3.5000,-2.7500,0.0000,222.8750,
2025-03-09 16:43:47.168,-0.7500,0.5600,8.7000,-15.4375,-70.1250,-14.5000,-2.8125,-2.5625,0.0000,222.9375,
2025-03-09 16:43:47.185,-0.5200,0.2800,9.1800,-16.3750,-74.1250,-15.1875,-2.1250,-2.4375,0.0000,223.1250,
2025-03-09 16:43:47.185,-0.1500,0.0000,9.2700,-12.8125,-73.0000,-14.6875,-1.4375,-2.3125,0.0000,223.2500,
2025-03-09 16:43:47.190,-0.2000,0.1000,8.4500,-2.5625,-74.2500,-14.7500,0.0000,-2.1875,0.0000,223.5625,
2025-03-09 16:43:47.190,0.0100,0.5800,8.3500,0.1875,-82.6250,-15.5625,0.7500,-2.1875,0.0000,223.7500,
2025-03-09 16:43:47.199,0.2700,0.4700,8.8700,2.0625,-91.0625,-18.3125,1.6250,-2.1875,0.0000,223.9375,
2025-03-09 16:43:47.213,0.5900,0.1900,9.3300,6.5000,-96.8750,-22.0625,2.5000,-2.2500,0.0000,224.1250,
2025-03-09 16:43:47.226,1.0100,-0.1800,9.4400,7.8750,-93.6250,-20.1250,4.3750,-2.4375,0.0000,224.5625,
2025-03-09 16:43:47.244,0.9800,0.0000,9.0800,12.1875,-93.3125,-17.5625,5.2500,-2.5625,0.0000,224.7500,
2025-03-09 16:43:47.252,0.9400,0.3500,8.9100,10.4375,-97.6875,-13.8125,6.1875,-2.6875,0.0000,224.8750,
2025-03-09 16:43:47.269,1.4600,0.7900,9.0300,6.7500,-100.8750,-11.5625,7.1875,-2.7500,0.0000,225.0000,
2025-03-09 16:43:47.277,1.7000,0.8200,9.4300,1.2500,-104.6875,-15.3750,9.1250,-2.8750,0.0000,225.3125,
2025-03-09 16:43:47.296,1.7900,0.6800,9.3900,5.8125,-104.2500,-17.6875,10.1250,-3.0000,0.0000,225.5000,
2025-03-09 16:43:47.299,1.9100,0.7300,8.6400,13.4375,-105.6875,-21.1875,11.1875,-3.1250,0.0000,225.7500,
2025-03-09 16:43:47.315,2.1300,0.5500,8.6700,13.2500,-110.4375,-21.5625,12.1875,-3.3125,0.0000,226.0000,
2025-03-09 16:43:47.327,2.9700,0.0800,10.0000,5.0625,-118.4375,-18.1875,14.5000,-3.5625,0.0000,226.3750,
2025-03-09 16:43:47.340,3.1300,0.0200,9.8600,6.6250,-110.8125,-17.1250,15.5625,-3.6875,0.0000,226.5625,
2025-03-09 16:43:47.349,3.0400,0.0800,9.4200,9.5625,-100.5625,-14.1875,16.5000,-3.8750,0.0000,226.7500,
2025-03-09 16:43:47.360,3.0300,0.1900,8.8700,13.1875,-95.6250,-9.2500,17.4375,-4.0625,0.0000,226.8750,
2025-03-09 16:43:47.379,3.1000,0.7500,7.8900,17.8125,-109.6875,-9.0625,19.4375,-4.5000,0.0000,227.0000,
2025-03-09 16:43:47.388,3.2300,0.8500,8.4100,5.1250,-124.2500,-6.7500,20.6250,-4.5625,0.0000,227.1250,
2025-03-09 16:43:47.400,4.1800,0.9000,9.8700,-9.2500,-133.0000,-4.4375,21.8750,-4.5625,0.0000,227.2500,
2025-03-09 16:43:47.409,4.3000,0.6400,9.9000,-13.0625,-126.5000,-7.5625,23.1250,-4.5000,0.0000,227.3750,
2025-03-09 16:43:47.419,4.3000,0.3800,9.3900,-7.8125,-107.1875,-9.0000,24.1250,-4.5000,0.0000,227.5000,
2025-03-09 16:43:47.427,4.1600,0.2200,8.6800,-0.3125,-91.8125,-6.0000,25.0000,-4.5625,0.0000,227.6250,
2025-03-09 16:43:47.468,4.0400,0.4200,7.2400,7.7500,-95.2500,-1.3125,25.9375,-4.6875,0.0000,227.6875,
2025-03-09 16:43:47.468,4.2400,0.2100,6.9200,15.3750,-109.6875,-1.9375,27.0000,-4.8750,0.0000,227.6875,
2025-03-09 16:43:47.472,4.1500,0.1600,6.6700,19.8750,-126.8750,-2.1875,28.1875,-5.1250,0.0000,227.7500,
2025-03-09 16:43:47.472,4.9400,0.4600,7.3000,10.5000,-146.6875,5.0625,29.6250,-5.3125,0.0000,227.7500,
2025-03-09 16:43:47.476,5.2500,0.5600,8.1100,-6.0000,-161.1250,14.6875,31.1875,-5.2500,0.0000,227.6875,
2025-03-09 16:43:47.489,5.6900,0.9000,8.7300,-18.0625,-162.9375,20.5625,32.8125,-5.0000,0.0000,227.5625,
2025-03-09 16:43:47.498,6.1500,1.3900,9.1200,-21.6875,-151.1250,18.6250,34.2500,-4.7500,0.0000,227.5000,
2025-03-09 16:43:47.510,6.4700,1.4200,9.4100,-18.3750,-130.4375,8.6250,35.5000,-4.6250,0.0000,227.5625,
2025-03-09 16:43:47.530,6.5800,0.5700,8.3000,6.4375,-102.3750,-9.3125,37.5625,-4.8125,0.0000,227.7500,
2025-03-09 16:43:47.537,6.2800,0.1500,7.6400,14.1250,-99.8750,-15.4375,38.5625,-5.1250,0.0000,227.8750,
2025-03-09 16:43:47.547,6.0600,-0.2100,6.2500,16.1250,-99.0625,-10.5625,39.5000,-5.4375,0.0000,228.0000,
2025-03-09 16:43:47.559,6.5000,0.1900,6.3000,-1.9375,-102.6250,4.3750,40.5000,-5.4375,0.0000,228.0000,
2025-03-09 16:43:47.569,6.8700,0.6900,6.9900,-28.5000,-113.8750,14.2500,41.5625,-5.1875,0.0000,228.0000,
2025-03-09 16:43:47.577,6.7500,1.9400,7.4600,-35.0625,-116.9375,3.2500,42.6875,-4.8750,0.0000,228.1250,
2025-03-09 16:43:47.593,6.8100,2.3400,7.3400,-28.3125,-108.6250,-16.3125,43.7500,-4.8125,0.0000,228.5625,
2025-03-09 16:43:47.598,7.1100,2.2500,6.9100,-13.1250,-101.3750,-27.4375,44.6875,-5.0625,0.0000,228.8750,
2025-03-09 16:43:47.614,6.9400,1.6900,6.5200,2.9375,-100.5000,-34.6875,45.6250,-5.5000,0.0000,229.2500,
2025-03-09 16:43:47.626,7.0900,0.4200,5.7900,13.0625,-108.3750,-37.1250,46.6250,-6.1250,0.0000,229.6250,
2025-03-09 16:43:47.627,7.2300,0.0000,5.6000,9.8125,-117.3125,-27.5625,47.7500,-6.6250,0.0000,229.8750,
2025-03-09 16:43:47.637,7.1600,0.2400,5.6600,2.7500,-119.7500,-17.6875,48.8750,-7.0000,0.0000,230.1875,
2025-03-09 16:43:47.649,7.8300,0.6700,5.3300,8.1875,-118.5000,-18.1250,50.0000,-7.5000,0.0000,230.3750,
2025-03-09 16:43:47.660,7.8800,0.8300,4.9400,17.1250,-119.1250,-22.6875,51.1250,-8.0625,0.0000,230.5625,
2025-03-09 16:43:47.670,7.6600,0.7300,4.6300,21.3750,-123.5000,-25.9375,52.2500,-8.8125,0.0000,230.7500,
2025-03-09 16:43:47.679,7.4700,1.0000,4.0800,27.3750,-128.4375,-25.6875,53.4375,-9.6875,0.0000,231.0000,
2025-03-09 16:43:47.687,8.0500,1.3100,4.8200,27.6250,-137.1875,-21.0000,54.6875,-10.5625,0.0000,231.1875,
2025-03-09 16:43:47.698,8.4000,1.1400,5.2800,27.0000,-156.2500,-9.0625,56.1875,-11.3750,0.0000,231.2500,
2025-03-09 16:43:47.709,9.1800,0.9700,5.6000,22.7500,-171.9375,2.8750,57.8125,-12.0625,0.0000,231.2500,
2025-03-09 16:43:47.719,9.9400,0.0600,6.1200,18.3750,-175.6875,10.3750,59.5000,-12.6875,0.0000,231.1875,
2025-03-09 16:43:47.727,9.8200,-0.2100,6.0000,25.6875,-165.1250,11.3750,61.0625,-13.3750,0.0000,231.0000,
2025-03-09 16:43:47.771,9.5000,-0.7300,5.8200,31.5000,-141.3125,9.4375,62.4375,-14.1250,0.0000,230.8750,
2025-03-09 16:43:47.771,9.0500,-0.6000,4.9300,30.6875,-114.4375,26.6250,63.5625,-14.5000,0.0000,230.5000,
2025-03-09 16:43:47.775,9.3000,0.1700,3.7000,21.2500,-99.2500,52.0625,64.6250,-14.1875,0.0000,229.9375,
2025-03-09 16:43:47.775,8.9800,0.8600,2.9000,27.6250,-98.2500,66.3750,65.6875,-13.5625,0.0000,229.1875,
2025-03-09 16:43:47.777,8.5400,1.6700,2.2300,33.8125,-108.0000,67.0625,66.8750,-13.0000,0.0000,228.3750,
2025-03-09 16:43:47.786,8.8100,3.0600,3.6000,15.0625,-120.2500,61.6250,68.1250,-12.3750,0.0000,227.8125,
2025-03-09 16:43:47.798,9.0100,3.1900,4.6100,2.9375,-127.6250,55.6875,69.4375,-11.6875,0.0000,227.3125,
2025-03-09 16:43:47.809,9.3700,2.9600,5.1600,-0.1875,-122.3125,34.5625,70.6875,-11.4375,0.0000,227.0000,
2025-03-09 16:43:47.819,9.5000,2.2700,5.3900,7.1250,-106.0625,17.4375,71.6875,-11.6250,0.0000,226.8750,
2025-03-09 16:43:47.827,9.6900,0.8600,4.7000,14.6875,-84.5000,6.3750,72.5000,-12.1250,0.0000,226.7500,
2025-03-09 16:43:47.840,9.7800,0.1700,3.9600,22.0625,-63.6250,3.1250,73.1250,-12.6875,0.0000,226.6250,
2025-03-09 16:43:47.849,9.6700,-0.1000,2.9500,26.6250,-52.0625,5.9375,73.6250,-13.1250,0.0000,226.3750,
2025-03-09 16:43:47.859,9.1600,-0.7300,1.4700,24.9375,-50.5000,15.0625,74.1250,-13.2500,0.0000,226.0625,
2025-03-09 16:43:47.867,9.0000,-0.5300,1.1900,16.4375,-57.4375,28.1250,74.7500,-12.8750,0.0000,225.6875,
2025-03-09 16:43:47.877,8.8300,-0.3000,1.0000,8.0000,-63.2500,39.1875,75.4375,-12.0625,0.0000,225.3125,
2025-03-09 16:43:47.889,8.6600,-0.1500,0.6800,7.5625,-67.3750,45.1875,76.1875,-11.0000,0.0000,224.8750,
2025-03-09 16:43:47.900,8.5200,-0.1300,0.0100,9.8750,-73.0000,46.8750,76.9375,-9.7500,0.0000,224.3750,
2025-03-09 16:43:47.908,8.6800,-0.1200,0.0900,10.4375,-81.0625,45.2500,77.8125,-8.4375,0.0000,223.8750,
2025-03-09 16:43:47.918,8.8100,-0.0700,0.2700,9.1875,-93.5000,47.5625,78.7500,-6.9375,0.0000,223.3750,
2025-03-09 16:43:47.928,9.6400,-0.1300,2.1500,2.6250,-107.4375,50.8125,79.8125,-4.9375,0.0000,222.8750,
2025-03-09 16:43:47.937,10.1200,-0.0600,2.7000,-3.1250,-110.8750,52.1250,80.9375,-2.3125,0.0000,222.4375,
2025-03-09 16:43:47.949,10.5000,0.1900,2.7400,-3.1250,-95.0000,52.3750,81.8750,0.9375,0.0000,222.0000,
2025-03-09 16:43:47.958,10.5600,0.4100,2.3200,-2.5000,-72.7500,47.5625,82.5625,4.5625,0.0000,221.5625,
2025-03-09 16:43:47.968,10.1300,0.4400,1.5600,1.0625,-64.0625,43.0000,83.1250,8.4375,0.0000,221.1250,
2025-03-09 16:43:47.978,9.6600,0.5300,1.3600,3.5000,-60.2500,37.0625,83.6250,1.3125,0.0000,220.6875,
2025-03-09 16:43:47.987,9.5000,0.6400,1.0200,4.3125,-54.5000,34.0625,84.0625,1.6250,0.0000,220.4375,
2025-03-09 16:43:47.997,9.4300,0.8000,0.7200,7.1875,-49.3125,30.1250,84.4375,1.9375,0.0000,220.1250,
2025-03-09 16:43:48.008,9.3600,0.6900,0.4800,11.6875,-47.0625,22.1875,84.7500,2.1250,0.0000,219.7500,
2025-03-09 16:43:48.017,9.3700,0.5300,0.5000,17.5000,-47.8125,12.7500,85.1250,2.2500,0.0000,219.4375,
2025-03-09 16:43:48.030,9.4900,0.3500,0.4600,21.7500,-45.6875,4.3750,85.5000,2.2500,0.0000,219.1875,
2025-03-09 16:43:48.069,9.9200,-0.1600,0.5400,19.3750,-41.8125,-1.6250,85.8125,2.2500,0.0000,219.2500,
2025-03-09 16:43:48.074,10.2300,-0.3000,0.5100,13.3750,-39.9375,-1.1250,86.1250,2.2500,0.0000,219.1250,
2025-03-09 16:43:48.074,10.3000,-0.2700,0.8600,4.4375,-36.0625,-2.5000,86.4375,2.1875,0.0000,219.0625,
2025-03-09 16:43:48.074,10.3900,-0.3400,1.1000,3.6250,-32.6250,-9.2500,86.7500,2.1250,0.0000,219.1250,
2025-03-09 16:43:48.078,10.3500,-0.4500,1.1700,7.3125,-27.5000,-12.0625,87.0000,2.0000,0.0000,219.1250,
2025-03-09 16:43:48.092,10.2400,-0.2800,0.8200,13.8125,-17.1875,-9.5000,87.1875,1.8750,0.0000,219.1875,
2025-03-09 16:43:48.098,10.1100,-0.1600,0.4000,20.2500,-8.8750,-7.3125,87.3125,1.8125,0.0000,219.0625,
2025-03-09 16:43:48.107,9.8700,-0.0100,-0.2300,22.3750,-5.3125,-8.0000,87.3750,1.7500,0.0000,218.9375,
2025-03-09 16:43:48.117,9.6800,-0.2000,-0.2700,24.5625,-5.0625,-10.1250,87.5000,1.6250,0.0000,218.8125,
2025-03-09 16:43:48.129,9.6900,-0.1400,-0.1600,24.6875,-7.5000,-10.9375,87.6250,1.5000,0.0000,218.6875,
2025-03-09 16:43:48.137,9.6300,0.0300,0.0000,23.2500,-9.5000,-10.6250,87.7500,1.3750,0.0000,218.7500,
2025-03-09 16:43:48.147,9.6000,0.0800,0.2100,22.2500,-8.6250,-11.1875,87.8750,1.3125,0.0000,218.6250,
2025-03-09 16:43:48.158,9.5200,0.0900,0.1900,22.6875,-6.4375,-11.7500,88.0000,1.1875,0.0000,218.5625,
2025-03-09 16:43:48.168,9.5900,0.0000,0.0900,20.3125,-3.9375,-11.3750,88.1250,1.0625,0.0000,218.4375,
2025-03-09 16:43:48.177,9.6600,-0.1700,-0.0200,14.9375,-1.1250,-10.1875,88.1875,0.9375,0.0000,218.4375,
2025-03-09 16:43:48.189,9.6200,-0.3000,-0.1500,12.6875,-0.3125,-11.7500,88.2500,0.8125,0.0000,218.3750,
2025-03-09 16:43:48.197,9.5300,-0.3700,-0.1400,10.3750,-2.4375,-11.9375,88.3125,0.6875,0.0000,218.4375,
2025-03-09 16:43:48.208,9.4400,-0.3300,-0.2400,6.0000,-3.1875,-9.6250,88.3750,0.6250,0.0000,218.4375,
2025-03-09 16:43:48.218,9.4200,-0.1400,-0.3200,-0.4375,-3.0625,-5.3125,88.4375,0.5625,0.0000,218.5000,
2025-03-09 16:43:48.227,9.5400,0.0100,-0.1200,-5.4375,-4.8125,-2.3750,88.5000,0.5625,0.0000,218.5625,
2025-03-09 16:43:48.237,9.5700,0.1200,0.0800,-3.7500,-8.3750,-1.7500,88.5625,0.5625,0.0000,218.6250,
2025-03-09 16:43:48.248,9.4800,0.1600,0.1700,1.1250,-8.6875,-3.5625,88.6875,0.5000,0.0000,218.6875,
2025-03-09 16:43:48.259,9.5500,0.1700,0.1900,2.9375,-7.0625,-4.1875,88.7500,0.4375,0.0000,218.6875,
2025-03-09 16:43:48.266,9.5000,0.1500,0.2100,3.9375,-5.3750,-5.6250,88.8125,0.3750,0.0000,218.6875,
2025-03-09 16:43:48.279,9.5400,0.1100,0.1300,4.1875,-3.5625,-6.2500,88.8750,0.3125,0.0000,218.6875,
2025-03-09 16:43:48.287,9.5300,0.1200,-0.0800,1.6250,-2.6250,-5.5000,88.9375,0.3125,0.0000,218.7500,
2025-03-09 16:43:48.298,9.5900,0.1900,-0.1000,-2.1250,-2.3125,-4.2500,88.9375,0.2500,0.0000,218.8125,
2025-03-09 16:43:48.309,9.5900,0.1800,-0.1400,-4.3125,-2.7500,-4.1250,89.0000,0.1875,0.0000,218.9375,
2025-03-09 16:43:48.317,9.6900,0.0100,-0.0600,-4.1875,-4.3125,-4.9375,89.0625,0.1250,0.0000,219.0000,
2025-03-09 16:43:48.327,9.7500,-0.1100,0.1000,-5.6875,-4.9375,-5.0625,89.1250,0.0625,0.0000,219.1250,
2025-03-09 16:43:48.339,9.7600,0.0000,0.1400,-7.5000,-4.7500,-3.9375,89.1875,0.0625,0.0000,219.1875,
2025-03-09 16:43:48.388,9.6800,0.0800,0.1200,-5.7500,-3.1250,-3.1875,89.2500,0.0000,0.0000,219.3125,
2025-03-09 16:43:48.388,9.5300,0.0600,-0.1000,-3.9375,-2.0625,-3.5000,89.2500,0.0000,0.0000,219.3750,
2025-03-09 16:43:48.390,9.6100,0.0300,-0.1200,-3.3750,-2.0625,-3.0625,89.2500,0.0000,0.0000,219.4375,
2025-03-09 16:43:48.390,9.6700,0.0100,-0.0900,-2.0000,-2.5000,-2.3125,89.3125,0.0000,0.0000,219.5000,
2025-03-09 16:43:48.390,9.6100,-0.0500,-0.1000,0.5625,-3.1875,-2.6875,89.3125,-0.0625,0.0000,219.5000,
2025-03-09 16:43:48.398,9.6600,-0.0100,-0.1000,-1.6875,-3.5625,-1.9375,89.3750,-0.0625,0.0000,219.5625,
2025-03-09 16:43:48.415,9.5900,0.0900,-0.1800,-6.5000,-3.4375,-0.1250,89.4375,-0.0625,0.0000,219.6250,
2025-03-09 16:43:48.421,9.5300,0.1600,-0.1500,-11.1875,-2.6875,1.1250,89.4375,-0.0625,0.0000,219.6875,
2025-03-09 16:43:48.428,9.5800,0.3100,0.0000,-10.7500,-3.9375,1.5625,89.5000,-0.0625,0.0000,219.8125,
2025-03-09 16:43:48.448,9.5200,0.2600,-0.0800,-5.7500,-4.8750,-1.2500,89.5625,-0.0625,0.0000,220.3125,
2025-03-09 16:43:48.449,9.5200,0.1600,0.0400,-3.7500,-4.3125,-3.8750,89.5625,-0.1250,0.0000,220.4375,
2025-03-09 16:43:48.458,9.7400,0.0400,0.1500,-3.8750,-4.2500,-4.0625,89.6250,-0.1250,0.0000,220.5000,
2025-03-09 16:43:48.468,9.7600,-0.1500,-0.0100,-2.5625,-3.2500,-4.8750,89.6250,-0.1875,0.0000,220.5625,
2025-03-09 16:43:48.477,9.8300,-0.4500,-0.3600,-4.8125,-1.0000,-5.7500,89.5625,-0.2500,0.0000,220.6875,
2025-03-09 16:43:48.491,9.4000,-0.1000,-0.2600,-14.2500,-0.3125,-7.0625,89.5000,-0.3125,0.0000,220.8750,
2025-03-09 16:43:48.498,9.6300,0.2500,-0.0700,-18.1250,-1.7500,-0.3125,89.5625,-0.3125,0.0000,221.0625,
2025-03-09 16:43:48.508,9.6100,0.3100,-0.1400,-11.0625,-0.8125,1.2500,89.5625,-0.3125,0.0000,221.1875,
2025-03-09 16:43:48.518,9.5600,0.2300,-0.2300,-2.0625,-2.6875,-1.8750,89.5625,-0.3125,0.0000,221.1875,
2025-03-09 16:43:48.527,9.6500,0.1500,0.0000,-1.0625,-3.3750,-3.1250,89.5625,-0.3750,0.0000,221.2500,
2025-03-09 16:43:48.537,9.7100,0.2700,0.0100,-2.3750,-3.1875,-1.8125,89.5625,-0.3750,0.0000,221.5625,
2025-03-09 16:43:48.549,9.7000,0.1600,-0.0500,-1.1250,-2.7500,-2.3750,89.5000,-0.3750,0.0000,221.5625,
2025-03-09 16:43:48.557,9.6700,0.1300,-0.1100,-0.9375,-1.6875,-3.2500,89.5000,-0.4375,0.0000,221.6250,
2025-03-09 16:43:48.567,9.7200,0.1000,-0.1400,0.2500,-1.6875,-3.3125,89.4375,-0.4375,0.0000,221.6250,
2025-03-09 16:43:48.578,9.6500,0.0500,-0.2700,2.6875,-1.6875,-4.0000,89.4375,-0.5000,0.0000,221.6875,
2025-03-09 16:43:48.588,9.6300,-0.0400,-0.2800,5.2500,-1.6250,-4.6875,89.3750,-0.5625,0.0000,221.8125,
2025-03-09 16:43:48.596,9.7000,-0.0300,-0.1800,5.4375,-3.0000,-3.0000,89.3750,-0.5625,0.0000,221.7500,
2025-03-09 16:43:48.609,9.6200,0.0300,-0.1700,6.8750,-3.5625,-1.6250,89.3750,-179.3750,0.0000,221.6875,
2025-03-09 16:43:48.617,9.6500,0.0400,-0.1300,5.2500,-3.3125,-0.6250,89.3750,-179.3750,0.0000,221.6250,
2025-03-09 16:43:48.627,9.7500,0.1100,0.0100,1.0625,-3.3125,1.0000,89.3750,-179.3750,0.0000,221.6250,
2025-03-09 16:43:48.676,9.6400,0.1800,-0.0100,-0.0625,-2.1250,1.3125,89.3750,-179.3750,0.0000,221.6250,
2025-03-09 16:43:48.676,9.4900,0.2400,-0.2400,3.1250,0.0000,0.1875,89.3750,-179.3750,0.0000,221.6250,
2025-03-09 16:43:48.676,9.5200,0.1800,-0.3000,3.5000,1.0000,0.2500,89.3750,-179.3750,0.0000,221.6250,
2025-03-09 16:43:48.678,9.5400,0.1800,-0.1900,0.8750,0.4375,1.6875,89.3750,-179.3750,0.0000,221.5625,
2025-03-09 16:43:48.678,9.5400,0.1100,-0.0700,2.7500,-0.9375,1.7500,89.3750,-179.3750,0.0000,221.5000,
2025-03-09 16:43:48.702,9.5200,0.1200,-0.0600,6.0625,-1.8750,0.8750,89.3750,-179.3750,0.0000,221.5000,
2025-03-09 16:43:48.702,9.5800,0.1200,-0.1000,7.6875,-1.8750,1.2500,89.3750,-179.4375,0.0000,221.4375,
2025-03-09 16:43:48.706,9.4500,0.1100,-0.3400,6.4375,-0.6250,2.0000,89.3750,-179.4375,0.0000,221.3125,
2025-03-09 16:43:48.719,9.4900,0.1300,-0.3000,1.6250,-0.3750,3.3750,89.4375,-179.4375,0.0000,221.3125,
2025-03-09 16:43:48.728,9.5100,0.1200,-0.2400,-1.2500,-1.3125,4.9375,89.4375,-179.5000,0.0000,221.2500,
2025-03-09 16:43:48.737,9.5600,0.0700,-0.2800,-2.3125,-2.5000,5.8750,89.5000,-179.5625,0.0000,221.3125,
2025-03-09 16:43:48.747,9.6200,0.0800,-0.1700,-1.6875,-2.4375,6.5625,89.5000,-179.6250,0.0000,221.2500,
2025-03-09 16:43:48.757,9.6200,0.1000,-0.1600,0.3750,-2.1250,6.8125,89.5625,-179.6875,0.0000,221.1875,
2025-03-09 16:43:48.766,9.6200,-0.0200,-0.1000,2.9375,-1.5625,6.7500,89.5625,-179.7500,0.0000,221.0625,
2025-03-09 16:43:48.777,9.7100,0.0400,-0.0600,5.3750,-1.1875,7.2500,89.5625,-179.8125,0.0000,220.9375,
2025-03-09 16:43:48.788,9.6900,0.0200,-0.2100,7.5000,0.3750,8.4375,89.6250,-179.9375,0.0000,220.9375,
2025-03-09 16:43:48.797,9.7300,-0.0300,-0.3000,9.6250,2.1875,9.1250,89.6250,179.9375,0.0000,220.7500,
2025-03-09 16:43:48.807,9.7200,-0.1000,-0.3500,7.6250,2.5000,9.3750,89.6250,179.8125,0.0000,220.5625,
2025-03-09 16:43:48.825,9.8700,-0.2700,-0.1700,5.6250,2.1875,10.3750,89.5625,179.7500,0.0000,220.4375,
2025-03-09 16:43:48.827,9.9400,-0.4600,-0.0600,2.1875,2.0625,12.1250,89.5000,179.6250,0.0000,220.3125,
2025-03-09 16:43:48.837,10.1100,-0.5900,0.1300,-0.8750,2.3750,14.8750,89.3750,179.5000,0.0000,220.1875,
2025-03-09 16:43:48.893,10.3600,-0.6000,0.4300,-5.0000,3.5000,19.0000,89.2500,179.3125,0.0000,220.0625,
2025-03-09 16:43:48.893,10.2800,-0.6000,0.2700,-7.4375,6.2500,23.1875,89.0625,179.0625,0.0000,219.8750,
2025-03-09 16:43:48.895,10.1900,-0.6600,0.0800,-5.4375,11.5000,25.0625,88.8125,178.8125,0.0000,219.6875,
2025-03-09 16:43:48.895,10.1000,-0.6200,-0.0600,-3.3750,14.8125,26.6250,88.5625,1.3750,0.0000,219.5000,
2025-03-09 16:43:48.895,10.0100,-0.8100,-0.1400,0.7500,15.4375,27.8125,88.3125,1.6250,0.0000,219.5000,
2025-03-09 16:43:48.897,10.1600,-1.1000,0.0200,4.0625,14.1250,30.1250,88.0000,1.9375,0.0000,219.1875,
2025-03-09 16:43:48.910,10.2100,-1.3500,0.2300,5.2500,11.5625,34.8125,87.6250,2.2500,0.0000,218.8125,
2025-03-09 16:43:48.918,10.3400,-1.6100,0.2800,3.3125,11.8125,41.1250,87.1875,2.6875,0.0000,218.3750,
2025-03-09 16:43:48.927,10.1700,-1.6300,0.0900,1.4375,16.0625,50.1875,86.6875,3.1250,0.0000,217.8750,
2025-03-09 16:43:48.975,10.0000,-1.6600,-0.1600,3.4375,20.4375,57.0625,86.1250,3.6875,0.0000,217.3750,
2025-03-09 16:43:48.975,9.9100,-1.6900,-0.2800,6.0000,20.3125,62.1250,85.5000,4.3125,0.0000,216.6875,
2025-03-09 16:43:48.975,9.7600,-1.8000,-0.3500,7.3750,17.9375,67.8750,84.8125,4.9375,0.0000,216.0000,
2025-03-09 16:43:48.975,9.7900,-1.8100,-0.3300,6.9375,15.0625,73.2500,84.0625,5.6875,0.0000,215.2500,
2025-03-09 16:43:48.977,9.7600,-1.9100,-0.1200,5.6250,12.0000,79.0625,83.3125,6.4375,0.0000,214.4375,
2025-03-09 16:43:48.987,9.7700,-2.2300,0.2100,4.9375,10.5000,83.0000,82.5000,76.7500,0.0000,213.9375,
2025-03-09 16:43:48.997,9.8200,-2.2200,0.4300,4.6875,9.3125,88.3125,81.6250,77.4375,0.0000,213.0625,
2025-03-09 16:43:49.006,9.9200,-2.3100,0.6500,5.7500,10.0625,94.6875,80.7500,78.0000,0.0000,212.1250,
2025-03-09 16:43:49.017,9.9400,-2.2900,0.6600,9.0000,11.7500,101.6250,79.7500,78.4375,0.0000,211.0625,
2025-03-09 16:43:49.027,10.1600,-2.4300,0.0600,13.3750,13.4375,110.6250,78.6875,78.7500,0.0000,209.8750,
2025-03-09 16:43:49.037,9.6400,-2.3400,-0.3400,14.3750,16.6875,119.1875,77.5000,78.9375,0.0000,209.3125,
2025-03-09 16:43:49.046,9.4400,-2.2600,-0.3600,6.4375,20.5625,123.5000,76.3125,79.0000,0.0000,208.1250,
2025-03-09 16:43:49.058,9.4100,-2.4900,-0.2300,3.6875,15.8750,127.1875,75.0625,79.2500,0.0000,206.8750,
2025-03-09 16:43:49.067,9.1500,-3.1900,-0.1500,11.3125,7.7500,131.5625,73.8125,79.7500,0.0000,205.5000,
2025-03-09 16:43:49.079,9.1900,-3.5100,0.0300,21.3750,2.2500,138.3750,72.5000,80.2500,0.0000,204.0000,
2025-03-09 16:43:49.091,9.1900,-3.7500,0.3300,30.0000,-1.8750,144.4375,71.0625,80.6875,0.0000,202.3125,
2025-03-09 16:43:49.100,9.2500,-4.0600,1.3700,33.8750,-4.9375,153.1875,69.6250,81.1250,0.0000,200.5625,
2025-03-09 16:43:49.107,9.4600,-3.8600,1.8500,30.5625,-4.6250,165.1875,68.0625,81.5625,0.0000,198.6875,
2025-03-09 16:43:49.118,9.6800,-3.7500,2.0600,24.3125,5.1250,178.5000,66.3750,81.8125,0.0000,196.7500,
2025-03-09 16:43:49.129,9.9400,-3.8700,2.0200,22.3750,16.8125,188.0000,64.5000,81.8125,0.0000,194.8125,
2025-03-09 16:43:49.137,10.4400,-4.1000,0.6500,18.6875,26.2500,193.8750,62.6250,81.6875,0.0000,192.8750,
2025-03-09 16:43:49.147,9.0200,-4.2000,0.4000,15.2500,41.0625,192.5625,60.7500,81.3125,0.0000,191.0625,
2025-03-09 16:43:49.164,8.6000,-4.3300,-0.6900,3.7500,50.8750,182.4375,58.8750,80.8750,0.0000,189.5000,
2025-03-09 16:43:49.167,7.3700,-5.7200,-1.2900,11.9375,42.2500,174.9375,57.1875,80.5625,0.0000,187.9375,
2025-03-09 16:43:49.186,7.3800,-6.2700,-0.6600,9.8125,26.8750,174.0625,55.4375,80.5000,0.0000,186.3125,
2025-03-09 16:43:49.186,7.7700,-6.6400,0.3100,-1.1875,-3.5625,213.2500,53.4375,81.0000,0.0000,184.1875,
2025-03-09 16:43:49.197,7.9700,-6.5800,1.1300,-1.1875,-3.5625,213.2500,51.3750,81.5000,0.0000,182.1250,
2025-03-09 16:43:49.207,8.4300,-6.2600,2.6900,-3.1875,-4.0000,227.0000,49.2500,81.9375,0.0000,179.9375,
2025-03-09 16:43:49.219,8.4000,-5.9200,2.2500,9.3750,21.0000,243.2500,46.8750,82.0000,0.0000,177.6250,
2025-03-09 16:43:49.259,8.2700,-5.5900,1.9100,6.6250,36.8125,237.1250,44.5625,81.8750,0.0000,175.5625,
2025-03-09 16:43:49.259,7.2700,-5.4400,1.5300,5.6875,41.8750,217.5000,42.3750,81.7500,0.0000,173.6875,
2025-03-09 16:43:49.276,7.0100,-5.9900,1.1200,10.1875,45.1875,198.6875,40.4375,81.5000,0.0000,172.0000,
2025-03-09 16:43:49.276,6.5900,-6.8500,0.7600,12.7500,48.4375,181.5625,38.6250,81.2500,0.0000,170.4375,
2025-03-09 16:43:49.276,5.8900,-7.7800,0.1700,5.2500,46.2500,170.6875,36.9375,81.0000,0.0000,169.1250,
2025-03-09 16:43:49.279,5.2500,-8.4700,-0.5200,-10.8125,42.8750,173.0625,35.1875,81.0000,0.0000,167.7500,
2025-03-09 16:43:49.287,4.9100,-8.2400,-0.7900,-24.0000,34.4375,187.4375,35.1875,81.0000,0.0000,167.7500,
2025-03-09 16:43:49.298,4.8500,-8.1200,-0.6400,-40.0000,17.3750,190.0000,31.5000,81.6875,0.0000,164.8125,
2025-03-09 16:43:49.308,4.3300,-8.3600,0.0700,-60.0625,2.7500,190.6250,29.6875,82.3750,0.0000,163.2500,
2025-03-09 16:43:49.318,4.5200,-8.0700,0.7500,-74.0625,-5.0625,195.4375,27.8125,83.2500,0.0000,161.6250,
2025-03-09 16:43:49.333,4.7800,-7.9300,1.6600,-76.2500,-7.7500,196.9375,25.9375,84.1250,0.0000,159.9375,
2025-03-09 16:43:49.337,4.8800,-7.9800,2.3500,-61.1250,-3.7500,194.9375,25.9375,84.1250,0.0000,159.9375,
2025-03-09 16:43:49.348,4.2000,-8.6400,1.6600,-42.3750,6.3750,190.3125,22.1875,85.3125,0.0000,156.6250,
2025-03-09 16:43:49.361,3.7000,-9.0200,1.1600,-37.0625,13.6250,190.4375,20.3750,85.6250,0.0000,155.0000,
2025-03-09 16:43:49.370,3.3600,-8.8900,0.4000,-45.1875,15.9375,189.8125,18.5000,86.0625,0.0000,153.4375,
2025-03-09 16:43:49.378,2.5700,-7.8700,-0.2300,-60.5625,13.5625,179.3750,16.8125,86.6875,0.0000,152.0000,
2025-03-09 16:43:49.390,2.3100,-7.7600,-0.1100,-68.8750,5.8750,165.6250,16.8125,86.6875,0.0000,152.0000,
2025-03-09 16:43:49.398,1.9800,-7.8200,-0.1600,-68.3750,-0.5625,147.6875,13.7500,88.0000,0.0000,149.3750,
2025-03-09 16:43:49.408,1.8500,-8.0800,-0.0300,-63.6875,-5.8750,130.1875,12.5000,88.6250,0.0000,148.1875,
2025-03-09 16:43:49.419,1.8200,-8.8000,0.7000,-55.3750,-11.1875,118.0000,11.3750,89.1875,0.0000,147.0625,
2025-03-09 16:43:49.428,2.0000,-9.0500,1.3600,-43.3750,-12.6875,108.5000,10.3125,89.6875,0.0000,145.9375,
2025-03-09 16:43:49.440,1.9100,-9.1400,1.6600,-30.0000,-5.4375,100.0000,10.3125,89.6875,0.0000,145.9375,
2025-03-09 16:43:49.449,1.3000,-9.1900,0.6600,-17.7500,6.0000,96.5625,8.3750,90.1250,0.0000,144.1250,
2025-03-09 16:43:49.459,0.8300,-9.2800,0.0400,-8.3750,10.3125,92.9375,7.5000,90.1875,0.0000,143.3125,
2025-03-09 16:43:49.468,0.4000,-9.2400,-0.5800,-5.3750,9.2500,90.5625,6.6250,90.2500,0.0000,142.5625,
2025-03-09 16:43:49.479,0.2300,-8.8500,-0.7900,-13.0000,4.1250,88.7500,5.7500,90.3750,0.0000,141.7500,
2025-03-09 16:43:49.488,0.1300,-8.9200,-0.1000,-19.0625,-2.6875,79.1875,5.0000,90.5625,0.0000,141.0000,
2025-03-09 16:43:49.498,-0.1000,-9.0800,-0.3900,-19.2500,-1.9375,68.3125,4.3125,90.7500,0.0000,140.3125,
2025-03-09 16:43:49.509,0.0700,-8.9700,-0.3300,-22.6250,-2.3125,62.7500,3.7500,90.9375,0.0000,139.6875,
2025-03-09 16:43:49.522,0.1200,-8.9500,0.0400,-23.0000,-5.3125,54.0625,3.1875,91.1875,0.0000,139.1250,
2025-03-09 16:43:49.528,0.0000,-9.1700,0.2700,-20.6250,-3.1875,48.8750,2.7500,91.3750,0.0000,138.6250,
2025-03-09 16:43:49.570,0.0700,-9.3800,0.2300,-18.1250,-0.6250,46.6875,2.2500,91.5625,0.0000,138.1875,
2025-03-09 16:43:49.570,-0.0200,-9.4000,0.1500,-13.7500,-0.8750,43.8750,1.8750,91.6875,0.0000,137.7500,
2025-03-09 16:43:49.570,-0.4900,-9.3000,-0.5500,-14.5000,1.7500,43.8750,1.4375,91.8125,0.0000,137.3750,
2025-03-09 16:43:49.570,-0.5400,-9.0100,-0.7300,-14.1250,0.9375,43.8125,1.0000,91.9375,0.0000,136.9375,
2025-03-09 16:43:49.579,-0.6200,-8.8200,-0.7500,-8.9375,-5.1875,40.5625,0.6250,92.0625,0.0000,136.5000,
2025-03-09 16:43:49.591,-0.5300,-8.7500,-0.5300,-3.0000,-9.8125,33.0000,0.6250,92.0625,0.0000,136.5000,
2025-03-09 16:43:49.602,-0.6100,-9.3900,-0.3900,2.5625,-12.7500,24.3750,0.3125,92.0625,0.0000,136.0625,
2025-03-09 16:43:49.608,-0.5400,-9.8600,-0.0700,1.1875,-14.6875,24.0625,-0.1250,92.0625,0.0000,135.3125,
2025-03-09 16:43:49.618,-0.4300,-10.0800,0.0500,-1.3750,-12.6250,29.2500,-0.4375,92.0625,0.0000,134.9375,
2025-03-09 16:43:49.628,-0.3200,-9.8000,0.0700,-6.5000,-9.6875,35.6250,-0.7500,92.1250,0.0000,134.5000,
2025-03-09 16:43:49.645,-0.3700,-9.2600,0.1000,-10.8125,-6.4375,37.5625,-0.7500,92.1250,0.0000,134.5000,
2025-03-09 16:43:49.648,-0.4200,-8.8800,0.0100,-7.7500,-4.7500,31.6875,-1.1250,92.2500,0.0000,134.0625,
2025-03-09 16:43:49.659,-0.3700,-8.7200,0.0800,-1.6875,-5.0000,21.0000,-1.6250,92.3125,0.0000,133.4375,
2025-03-09 16:43:49.673,-0.8200,-9.4500,-0.3400,5.6250,-3.9375,13.3750,-1.7500,92.2500,0.0000,133.2500,
2025-03-09 16:43:49.686,-0.7800,-9.6300,-0.5200,7.0625,-3.3125,13.5625,-1.9375,92.1875,0.0000,133.1250,
2025-03-09 16:43:49.689,-0.8900,-9.6600,-0.5400,3.8750,-7.3125,16.3125,-1.9375,92.1875,0.0000,133.1250,
2025-03-09 16:43:49.697,-0.7500,-9.2000,-0.0400,-1.9375,-8.8125,20.1250,-2.0625,92.1250,0.0000,132.8750,
2025-03-09 16:43:49.711,-0.6300,-9.0900,0.0600,0.3125,-7.5000,18.1875,-2.4375,92.1875,0.0000,132.3125,
2025-03-09 16:43:49.718,-0.6600,-9.2900,0.1400,6.5000,-7.1250,11.6875,-2.5625,92.0625,0.0000,132.1250,
2025-03-09 16:43:49.728,-0.7600,-9.2700,0.1000,9.5625,-4.3750,7.7500,-2.6250,92.0000,0.0000,132.0625,
2025-03-09 16:43:49.737,-0.7400,-8.9900,0.2600,7.6875,-1.3125,5.5625,-2.6250,92.0000,0.0000,132.0625,
2025-03-09 16:43:49.756,-0.8500,-9.3700,0.1600,7.2500,2.1875,3.1250,-2.6875,91.9375,0.0000,132.0000,
2025-03-09 16:43:49.758,-1.0900,-9.9600,-0.3400,6.1875,4.8750,3.8750,-2.7500,91.8125,0.0000,132.0000,
2025-03-09 16:43:49.771,-1.0600,-9.8700,-0.5500,-1.1875,4.1250,9.3125,-2.8750,91.8125,0.0000,131.9375,
2025-03-09 16:43:49.779,-0.8100,-9.3500,-0.0500,-6.5000,-0.6875,15.4375,-3.0000,91.8750,0.0000,131.7500,
2025-03-09 16:43:49.794,-0.7800,-9.1000,0.2200,-2.6250,-2.6250,12.8750,-3.0000,91.8750,0.0000,131.7500,
2025-03-09 16:43:49.797,-0.7300,-9.1100,0.3000,2.7500,0.7500,7.3125,-3.1250,91.8750,0.0000,131.6250,
2025-03-09 16:43:49.809,-1.3200,-9.7200,-0.6700,9.1250,4.4375,0.6250,-3.1875,91.8125,0.0000,131.6250,
2025-03-09 16:43:49.818,-1.4000,-9.6600,-0.9000,5.8125,4.6875,1.2500,-3.1875,91.7500,0.0000,131.6250,
2025-03-09 16:43:49.828,-1.2800,-9.4800,-0.8400,-2.0000,0.8750,6.8125,-3.2500,91.7500,0.0000,131.5625,
2025-03-09 16:43:49.868,-0.7700,-9.4300,0.0900,-9.0000,-4.5000,11.0625,-3.2500,91.7500,0.0000,131.5625,
2025-03-09 16:43:49.874,-0.6400,-9.2700,0.3900,-9.4375,-5.0625,10.5000,-3.3750,91.8125,0.0000,131.4375,
2025-03-09 16:43:49.874,-0.6000,-9.2300,0.4700,-3.5000,-3.0625,6.8750,-3.5625,91.9375,0.0000,131.1875,
2025-03-09 16:43:49.874,-0.6100,-9.1000,0.4800,4.3750,-0.1875,1.7500,-3.5625,91.9375,0.0000,131.1250,
2025-03-09 16:43:49.878,-1.0000,-9.2500,0.0000,10.1875,3.5625,-2.3125,-3.5625,91.8125,0.0000,131.1875,
2025-03-09 16:43:49.887,-1.1000,-9.3800,-0.3000,9.3125,5.8750,-3.4375,-3.5625,91.8125,0.0000,131.1875,
2025-03-09 16:43:49.897,-1.1000,-9.3800,-0.3000,5.2500,5.0625,-2.1875,-3.5000,91.7500,0.0000,132.0625,
2025-03-09 16:43:49.910,-1.2100,-9.6100,-0.4200,4.2500,3.6875,-2.9375,-3.4375,91.6250,0.0000,132.1875,
2025-03-09 16:43:49.919,-1.1900,-9.6400,-0.4600,3.1250,2.6875,-2.6250,-3.4375,91.6250,0.0000,132.2500,
2025-03-09 16:43:49.930,-1.1300,-9.6200,-0.3500,0.1250,0.8750,-1.6250,-3.4375,91.6250,0.0000,132.2500,
2025-03-09 16:43:49.938,-0.9800,-9.6300,-0.1200,-0.7500,0.2500,-1.0000,-3.4375,91.6250,0.0000,133.0000,
2025-03-09 16:43:49.951,-1.1100,-9.8100,-0.2800,0.6250,0.1875,-1.1250,-3.3750,91.6250,0.0000,133.0000,
2025-03-09 16:43:49.960,-1.0100,-9.5800,-0.1900,-2.1250,0.8125,1.6875,-3.4375,91.6250,0.0000,133.0000,
2025-03-09 16:43:49.968,-0.9800,-9.4100,-0.1100,-1.8750,0.8125,2.0000,-3.5000,91.6250,0.0000,132.9375,
2025-03-09 16:43:49.979,-0.9900,-9.4700,-0.0400,0.3125,0.1250,0.1875,-3.5000,91.6250,0.0000,132.8750,
2025-03-09 16:43:49.989,-0.9900,-9.4700,-0.0400,2.3750,0.8750,-2.1250,-3.5000,91.6250,0.0000,132.8750,
2025-03-09 16:43:49.997,-1.0900,-9.5000,-0.2200,3.1250,1.3125,-2.8125,-3.5625,91.6250,0.0000,133.6875,
2025-03-09 16:43:50.008,-0.9900,-9.4400,-0.0700,2.9375,0.3750,-4.0000,-3.5625,91.5000,0.0000,133.6875,
2025-03-09 16:43:50.022,-0.8500,-9.5800,0.0900,1.8750,1.9375,-5.5000,-3.5000,91.5000,0.0000,133.7500,
2025-03-09 16:43:50.029,-0.8900,-9.5700,-0.0800,3.9375,4.2500,-7.2500,-3.5000,91.4375,0.0000,133.8125,
2025-03-09 16:43:50.049,-0.9800,-9.5900,-0.1700,6.3125,4.6250,-8.5625,-3.5000,91.4375,0.0000,133.8125,
2025-03-09 16:43:50.055,-1.0700,-9.5100,-0.2900,6.3750,3.6250,-8.8125,-3.4375,91.3750,0.0000,134.5000,
2025-03-09 16:43:50.062,-0.9900,-9.5200,-0.2900,3.8750,2.0625,-7.3125,-3.3750,91.2500,0.0000,134.6250,
2025-03-09 16:43:50.070,-0.8500,-9.5000,0.0000,1.4375,-0.3750,-5.9375,-3.3125,91.2500,0.0000,134.6250,
2025-03-09 16:43:50.088,-0.7000,-9.3300,0.2300,2.0000,-0.0625,-6.9375,-3.3125,91.1875,0.0000,134.6875,
2025-03-09 16:43:50.089,-0.7000,-9.3300,0.2300,5.6875,2.0000,-11.1250,-3.3125,91.1875,0.0000,134.6875,
2025-03-09 16:43:50.099,-0.6400,-8.9400,0.3500,10.7500,4.4375,-17.6250,-3.1875,91.1250,0.0000,135.4375,
2025-03-09 16:43:50.108,-0.7900,-9.1000,0.0500,14.1875,6.9375,-23.6875,-2.7500,90.9375,0.0000,135.9375,
2025-03-09 16:43:50.118,-0.8600,-9.1500,-0.2600,15.3125,8.5625,-27.3750,-2.5000,90.7500,0.0000,136.3125,
2025-03-09 16:43:50.128,-0.7900,-8.9900,-0.2000,14.2500,6.8125,-30.1250,-2.1875,90.6250,0.0000,136.6875,
2025-03-09 16:43:50.174,-0.8800,-9.2300,-0.3500,13.5625,4.6250,-33.8750,-2.1875,90.6250,0.0000,136.6875,
2025-03-09 16:43:50.174,-0.8800,-9.2300,-0.3500,10.0000,3.6250,-36.6875,-1.8750,90.5000,0.0000,137.5000,
2025-03-09 16:43:50.174,-0.5100,-9.0900,-0.2600,6.8125,1.1250,-36.0000,-1.1875,90.3750,0.0000,138.2500,
2025-03-09 16:43:50.174,-0.3800,-8.8400,-0.0700,9.1875,-2.2500,-35.6875,-0.8125,90.2500,0.0000,138.6250,
2025-03-09 16:43:50.181,-0.3500,-8.5500,0.1600,11.8750,-3.5000,-39.8750,-0.4375,90.1250,0.0000,138.9375,
2025-03-09 16:43:50.188,-0.3500,-8.5500,0.1600,13.3750,-1.6250,-47.7500,-0.4375,90.1250,0.0000,138.9375,
2025-03-09 16:43:50.198,-0.2400,-8.1300,0.2100,15.1875,0.1875,-61.3750,0.0000,90.0000,0.0000,139.8750,
2025-03-09 16:43:50.208,0.0700,-7.7200,0.6500,17.8125,1.8125,-79.6875,1.3125,89.6875,0.0000,141.2500,
2025-03-09 16:43:50.218,0.0600,-8.9000,0.1300,21.8750,6.8750,-93.8750,2.2500,89.5000,0.0000,142.1875,
2025-03-09 16:43:50.228,0.0500,-10.7800,-1.2100,27.8125,6.5000,-94.3750,3.1250,89.1875,0.0000,143.1875,
2025-03-09 16:43:50.237,0.0500,-10.7800,-1.2100,28.4375,-4.4375,-83.5625,3.1250,89.1875,0.0000,143.1875,
2025-03-09 16:43:50.247,0.1000,-10.6100,-1.1000,16.1875,-16.5000,-67.6875,3.9375,88.9375,0.0000,144.2500,
2025-03-09 16:43:50.258,0.4500,-9.0200,-0.0400,4.2500,-20.1875,-60.2500,5.1875,88.7500,0.0000,145.1250,
2025-03-09 16:43:50.270,0.8500,-7.7500,0.2800,-4.3125,-18.3125,-61.7500,5.8125,88.8125,0.0000,145.5625,
2025-03-09 16:43:50.279,1.2200,-7.0000,0.8000,-4.0625,-18.6250,-71.3125,6.5000,88.8750,0.0000,146.0625,
2025-03-09 16:43:50.290,1.2200,-7.0000,0.8000,5.9375,-18.5625,-91.9375,6.5000,88.8750,0.0000,146.0625,
2025-03-09 16:43:50.297,1.6800,-6.6700,1.5300,20.6875,-11.8125,-116.4375,7.3750,88.8125,0.0000,147.1250,
2025-03-09 16:43:50.310,2.0000,-10.2900,0.8700,37.5625,0.6250,-132.8125,9.8125,88.2500,0.0000,149.3750,
2025-03-09 16:43:50.319,1.9500,-11.0800,0.2700,45.8750,7.7500,-133.5000,11.0625,87.8125,0.0000,150.6250,
2025-03-09 16:43:50.329,1.7900,-11.2400,-0.1600,41.8750,5.0000,-118.5000,12.2500,87.3750,0.0000,151.7500,
2025-03-09 16:43:50.338,1.7900,-11.2400,-0.1600,29.5625,0.1250,-98.9375,12.2500,87.3750,0.0000,151.7500,
2025-03-09 16:43:50.348,1.7300,-10.3900,-0.4900,16.4375,-8.3750,-85.7500,13.1875,87.0625,0.0000,153.0625,
2025-03-09 16:43:50.361,1.8400,-9.1800,-0.4100,0.7500,-16.0625,-76.5625,14.7500,86.9375,0.0000,154.3750,
2025-03-09 16:43:50.379,2.4700,-7.7300,0.7000,-17.3125,-20.8750,-75.1875,15.5000,87.1875,0.0000,154.9375,
2025-03-09 16:43:50.380,2.7600,-7.3400,1.0900,-28.1250,-20.3125,-81.2500,15.5000,87.1875,0.0000,154.9375,
2025-03-09 16:43:50.389,2.7600,-7.3400,1.0900,-21.6875,-14.6250,-95.3125,16.3125,87.5000,0.0000,155.6250,
2025-03-09 16:43:50.397,3.1700,-7.5600,1.1800,-1.0625,-9.3750,-112.1250,17.2500,87.7500,0.0000,157.0000,
2025-03-09 16:43:50.409,3.8100,-9.5600,1.5000,21.0625,-7.0625,-125.5000,18.3125,87.7500,0.0000,158.0000,
2025-03-09 16:43:50.419,3.7200,-9.7500,1.2500,36.1875,0.5000,-131.1250,19.5625,87.5625,0.0000,159.1250,
2025-03-09 16:43:50.429,3.7700,-9.6300,0.6100,42.7500,8.3125,-129.9375,20.8125,87.1875,0.0000,160.2500,
2025-03-09 16:43:50.481,3.7700,-9.6300,0.6100,35.3750,11.1875,-127.1875,22.0625,86.7500,0.0000,161.4375,
2025-03-09 16:43:50.481,3.3900,-8.7700,-0.2700,22.6875,7.3125,-123.0000,23.2500,86.3125,0.0000,163.4375,
2025-03-09 16:43:50.481,3.2900,-7.6300,-0.7900,11.7500,0.3750,-123.5000,24.4375,86.0000,0.0000,164.6250,
2025-03-09 16:43:50.481,3.4800,-7.1400,-0.8600,-4.0625,-7.0000,-127.0625,25.6250,85.8750,0.0000,165.7500,
2025-03-09 16:43:50.481,4.4800,-7.9800,-0.7600,-15.9375,-14.0000,-132.1250,26.8750,85.8750,0.0000,166.9375,
2025-03-09 16:43:50.489,4.4800,-7.9800,-0.7600,-4.7500,-24.3125,-143.6875,28.1875,86.0625,0.0000,168.1875,
2025-03-09 16:43:50.497,4.8700,-8.2400,-0.4500,5.3125,-36.3125,-157.5000,29.5625,86.1875,0.0000,169.3750,
2025-03-09 16:43:50.508,5.5800,-8.0200,1.2600,4.8750,-35.3125,-164.0625,31.1250,86.3125,0.0000,170.6250,
2025-03-09 16:43:50.520,6.1100,-7.3600,0.8800,9.8125,-21.6250,-167.6875,32.7500,86.3750,0.0000,171.8750,
2025-03-09 16:43:50.529,6.2500,-7.1300,0.5100,16.8125,-12.6875,-177.0000,34.3750,86.3750,0.0000,173.3125,
2025-03-09 16:43:50.537,6.2500,-7.1300,0.5100,18.9375,-12.9375,-185.5625,36.0625,86.1875,0.0000,174.8125,
2025-03-09 16:43:50.547,6.3200,-6.6900,0.6400,17.8750,-15.1250,-188.4375,37.8750,86.0625,0.0000,176.4375,
2025-03-09 16:43:50.565,6.9700,-6.6500,0.7600,6.1250,-14.6250,-186.6250,39.6875,85.8750,0.0000,178.0625,
2025-03-09 16:43:50.569,7.1800,-6.8600,0.7500,-9.4375,-10.5625,-189.3750,41.5000,85.8125,0.0000,179.6875,
2025-03-09 16:43:50.586,7.6000,-7.1500,0.6200,-12.4375,-4.8125,-190.8125,43.3750,85.8750,0.0000,181.5000,
2025-03-09 16:43:50.590,7.6000,-7.1500,0.6200,1.0625,-3.3125,-194.0625,45.1875,85.9375,0.0000,183.4375,
2025-03-09 16:43:50.598,7.6800,-6.9900,0.2500,11.0625,-4.8125,-199.1250,47.0625,85.8125,0.0000,185.2500,
2025-03-09 16:43:50.611,7.6100,-6.5500,0.0000,14.5000,-5.8125,-198.7500,49.0000,85.6250,0.0000,187.1250,
2025-03-09 16:43:50.619,7.9000,-6.4500,0.0200,13.3750,-5.9375,-190.1250,50.9375,85.3750,0.0000,188.8750,
2025-03-09 16:43:50.631,8.2600,-6.3300,0.2000,15.6250,-11.5625,-177.1875,52.7500,85.1250,0.0000,190.5625,
2025-03-09 16:43:50.638,8.2600,-6.3300,0.2000,15.6250,-11.5625,-177.1875,54.5000,84.8750,0.0000,192.1250,
2025-03-09 16:43:50.649,8.4000,-6.0100,0.6500,11.8125,-20.1875,-153.0625,56.0625,84.8125,0.0000,193.5000,
2025-03-09 16:43:50.663,9.1100,-5.8900,1.4100,11.8750,-17.3125,-148.1250,57.5625,84.8125,0.0000,194.8125,
2025-03-09 16:43:50.668,9.4300,-5.8300,1.6500,16.9375,-13.5000,-143.5625,59.0000,84.7500,0.0000,196.0625,
2025-03-09 16:43:50.687,9.6500,-5.4400,0.9800,25.8750,0.8125,-137.0000,61.7500,84.1875,0.0000,198.3125,
2025-03-09 16:43:50.699,8.9100,-4.6900,0.2600,8.1250,-2.5000,-133.9375,63.0625,83.6250,0.0000,199.4375,
2025-03-09 16:43:50.709,8.7300,-4.4100,-0.2200,-3.9375,-3.8750,-126.2500,64.3750,83.3125,0.0000,200.6875,
2025-03-09 16:43:50.719,8.6900,-4.2800,-0.3600,-16.6250,0.0000,-121.8750,65.5625,83.1250,0.0000,201.9375,
2025-03-09 16:43:50.729,8.9800,-4.1400,0.3700,-23.8750,-4.5000,-118.5625,66.7500,83.0000,0.0000,203.2500,
2025-03-09 16:43:50.773,8.9800,-4.1400,0.3700,-18.3750,-10.6250,-114.1250,67.8750,83.0000,0.0000,204.5625,
2025-03-09 16:43:50.773,9.2400,-3.9400,0.5600,-6.0000,-8.1250,-112.5000,69.0000,83.0625,0.0000,205.8125,
2025-03-09 16:43:50.773,9.2700,-3.9000,-0.3600,1.5625,-4.0000,-113.6250,70.0625,83.0000,0.0000,206.9375,
2025-03-09 16:43:50.773,9.0300,-3.7300,-0.3900,7.0625,-4.4375,-110.1250,71.1875,82.6875,0.0000,208.0000,
2025-03-09 16:43:50.779,9.2200,-3.2900,0.1400,-1.1250,-9.5625,-104.7500,72.2500,82.3125,0.0000,209.0000,
2025-03-09 16:43:50.799,9.5200,-3.0600,0.8400,-7.9375,-16.8750,-95.6875,74.1875,82.4375,0.0000,210.9375,
2025-03-09 16:43:50.809,10.2600,-2.1900,1.6700,-9.3750,-7.4375,-86.1875,75.0625,82.7500,0.0000,211.8750,
2025-03-09 16:43:50.819,9.8900,-1.9400,1.3500,0.2500,6.6250,-88.7500,75.9375,82.6875,0.0000,212.7500,
2025-03-09 16:43:50.833,9.3400,-1.7400,0.3300,8.7500,14.9375,-92.9375,76.7500,81.9375,0.0000,213.6250,
2025-03-09 16:43:50.848,9.3400,-1.6600,0.2600,15.0000,17.3125,-94.5000,78.5000,78.9375,0.0000,215.3750,
2025-03-09 16:43:50.859,9.6600,-2.0700,0.2700,16.1250,13.8750,-94.5625,79.3750,77.0000,0.0000,216.1875,
2025-03-09 16:43:50.870,10.1000,-2.1600,0.5300,2.3750,12.0625,-92.0625,80.2500,74.8750,0.0000,216.9375,
2025-03-09 16:43:50.879,10.0000,-1.9700,0.6700,-16.6250,13.1875,-89.3125,81.0625,72.6250,0.0000,217.8125,
2025-03-09 16:43:50.902,9.9700,-1.8800,0.2900,-19.4375,15.1875,-86.5000,82.5625,67.1250,0.0000,219.9375,
2025-03-09 16:43:50.911,9.2000,-1.4000,-0.2000,-8.8125,15.6250,-78.2500,83.1875,6.0000,0.0000,220.9375,
2025-03-09 16:43:50.934,9.2900,-1.2000,-0.2500,11.1250,6.2500,-72.1875,84.3750,4.5000,0.0000,222.4375,
2025-03-09 16:43:50.949,9.6900,-1.3300,0.7300,15.5000,-0.4375,-71.0000,85.3750,3.1250,0.0000,223.5625,
2025-03-09 16:43:50.970,9.8400,-1.8600,0.7400,21.4375,-2.6875,-61.2500,85.8125,2.4375,0.0000,224.0000,
2025-03-09 16:43:50.980,9.9900,-0.9200,0.3600,-4.1250,5.5625,-35.6250,86.3750,1.3750,0.0000,224.8125,
2025-03-09 16:43:51.011,9.6500,-0.6700,-0.0100,-4.3125,8.4375,-34.3125,86.4375,0.7500,0.0000,225.5625,
2025-03-09 16:43:51.015,9.1900,-0.6000,-0.1400,-4.8750,1.1250,-35.3125,86.4375,0.3750,0.0000,226.0000,
2025-03-09 16:43:51.029,9.4700,-0.7200,0.3900,-2.6875,-8.1250,-27.2500,86.4375,-0.1875,0.0000,226.7500,
2025-03-09 16:43:51.074,9.8200,-0.4900,1.0000,-2.0625,-11.4375,-19.0625,86.5625,-0.6250,0.0000,227.2500,
2025-03-09 16:43:51.075,9.8700,-0.1800,0.9200,6.0000,-7.5625,-9.1875,86.6875,-0.7500,0.0000,227.3125,
2025-03-09 16:43:51.079,9.6200,0.0600,0.1600,7.1250,-0.1875,-10.1250,86.7500,-0.9375,0.0000,227.3750,
2025-03-09 16:43:51.098,9.7600,0.1500,0.1800,3.6250,-1.6875,-9.7500,86.6875,-1.1875,0.0000,227.4375,
2025-03-09 16:43:51.110,9.6900,0.1400,0.5100,-5.5000,-6.8750,-15.5625,86.6875,-1.2500,0.0000,227.5625,
2025-03-09 16:43:51.130,9.4400,0.0300,0.7500,-2.4375,-5.0625,-18.8750,86.6250,-1.5625,0.0000,228.0000,
2025-03-09 16:43:51.149,9.6000,-0.1000,0.8500,4.1875,-3.8125,-16.0000,86.5625,-1.9375,0.0000,228.3125,
2025-03-09 16:43:51.159,9.9100,-0.2200,0.7200,22.2500,2.2500,-5.8750,86.5000,-2.0625,0.0000,228.3125,
2025-03-09 16:43:51.180,9.6300,0.1200,0.1200,22.5625,6.3125,-2.1875,86.3750,-2.1250,0.0000,227.9375,
2025-03-09 16:43:51.196,9.4300,0.4500,-0.4900,7.5000,6.8750,-1.5625,86.2500,-2.1875,0.0000,227.6875,
2025-03-09 16:43:51.209,9.1800,0.4100,-0.3900,-11.6875,-6.3125,-5.6250,86.1875,-2.2500,0.0000,227.8125,
2025-03-09 16:43:51.231,9.3800,0.3100,0.4500,-12.0625,-14.7500,-8.1250,86.2500,-2.3125,0.0000,228.1875,
2025-03-09 16:43:51.248,9.6900,0.1400,0.7700,-9.4375,-15.1250,-7.5625,86.3750,-2.5000,0.0000,228.5000,
2025-03-09 16:43:51.261,9.8600,0.1500,0.8900,4.0625,-7.8750,-10.3750,86.4375,-2.5625,0.0000,228.6250,
2025-03-09 16:43:51.279,9.7000,0.0400,0.3700,6.1875,2.9375,-7.9375,86.3125,-2.7500,0.0000,228.7500,
2025-03-09 16:43:51.296,9.6700,0.2100,-0.1300,2.8750,5.2500,-3.7500,86.1875,-2.8750,0.0000,228.7500,
2025-03-09 16:43:51.309,9.5100,0.5400,-0.2300,-5.7500,3.2500,-3.5000,86.1250,-2.9375,0.0000,228.8125,
2025-03-09 16:43:51.369,9.3500,0.2600,-0.0300,-2.6875,-3.8750,-10.6250,86.0000,-3.0000,0.0000,229.0000,
2025-03-09 16:43:51.379,9.4600,0.1400,0.0300,-1.0000,-5.8750,-10.0625,85.9375,-3.2500,0.0000,229.2500,
2025-03-09 16:43:51.379,9.7900,0.1000,0.6800,-9.7500,-7.6250,-3.4375,85.9375,-3.3125,0.0000,229.3750,
2025-03-09 16:43:51.382,9.9700,0.1600,0.8600,-2.3125,-3.4375,1.1250,85.9375,-3.3125,0.0000,229.5625,
2025-03-09 16:43:51.398,9.8800,0.3300,0.6000,0.1250,0.8125,2.8125,86.0000,-3.3125,0.0000,229.0625,
2025-03-09 16:43:51.409,9.7800,0.4300,0.1400,-0.3750,5.6250,3.6875,86.0000,-3.2500,0.0000,229.0000,
2025-03-09 16:43:51.430,9.6500,0.4400,0.2900,-1.3125,2.5625,2.0000,86.0000,-3.1875,0.0000,228.9375,
2025-03-09 16:43:51.452,9.6700,0.2300,0.4000,1.5625,0.3125,1.4375,86.0000,-3.1875,0.0000,228.2500,
2025-03-09 16:43:51.471,9.4400,0.2200,0.1900,4.5000,0.2500,3.3125,86.0625,-3.1250,0.0000,228.1250,
2025-03-09 16:43:51.488,9.3600,0.3100,-0.0200,6.1250,1.8750,3.9375,86.1250,-3.0000,0.0000,227.9375,
2025-03-09 16:43:51.497,9.3100,0.3700,-0.2100,4.6250,1.8125,4.4375,86.1250,-3.0000,0.0000,227.5000,
2025-03-09 16:43:51.512,9.6600,0.1300,0.3500,0.5625,-5.8750,6.0000,86.1875,-2.9375,0.0000,227.4375,
2025-03-09 16:43:51.534,9.8300,0.1000,0.6600,-4.8125,-8.1875,9.5000,86.3750,-2.8125,0.0000,227.3125,
2025-03-09 16:43:51.551,9.7600,0.3300,0.6100,-6.0000,-3.3750,9.1250,86.6250,-2.6250,0.0000,226.8125,
2025-03-09 16:43:51.560,9.6100,0.3300,0.2300,-0.3750,2.6875,6.8125,86.6875,-2.5000,0.0000,226.7500,
2025-03-09 16:43:51.580,9.3600,0.3200,0.0200,1.9375,4.1250,2.6250,86.6875,-2.4375,0.0000,226.6250,
2025-03-09 16:43:51.598,9.4100,0.2600,0.1300,0.6875,2.1875,0.7500,86.6875,-2.3750,0.0000,225.9375,
2025-03-09 16:43:51.609,9.5900,0.0100,0.0800,-1.6875,1.6875,-1.5000,86.6875,-2.3750,0.0000,226.0000,
2025-03-09 16:43:51.669,9.5600,0.0000,0.1200,-3.6250,-0.3750,0.1250,86.6250,-2.4375,0.0000,226.0000,
2025-03-09 16:43:51.669,9.6600,0.0700,0.3200,-5.3750,-1.1250,1.8750,86.6250,-2.3750,0.0000,225.6875,
2025-03-09 16:43:51.675,9.5300,0.2500,0.1400,-2.1875,1.5000,2.8750,86.6875,-2.3750,0.0000,225.6875,
2025-03-09 16:43:51.676,9.4200,0.4100,0.1500,-1.5625,0.2500,2.3125,86.6875,-2.3125,0.0000,225.6875,
2025-03-09 16:43:51.689,9.5300,0.2200,0.3900,-1.1875,-0.6250,1.6250,86.7500,-2.2500,0.0000,225.6875,
2025-03-09 16:43:51.705,9.6200,0.1200,0.5600,-0.1875,0.0000,-0.6875,86.7500,-2.2500,0.0000,225.2500,
2025-03-09 16:43:51.719,9.6800,-0.0400,0.5900,3.2500,4.8750,0.8125,86.7500,-2.3125,0.0000,225.2500,
2025-03-09 16:43:51.739,9.5300,0.1000,0.4500,8.2500,7.5625,1.6875,86.6250,-2.2500,0.0000,225.1250,
2025-03-09 16:43:51.746,9.4400,0.1600,0.3300,13.5000,10.5000,1.3750,86.5625,-2.2500,0.0000,224.7500,
2025-03-09 16:43:51.759,9.4000,0.0800,0.0700,12.3750,9.3750,1.8750,86.5000,-2.2500,0.0000,224.6250,
2025-03-09 16:43:51.780,9.3600,-0.0200,-0.2600,-7.3750,0.8125,8.5625,86.4375,-2.1875,0.0000,224.3750,
2025-03-09 16:43:51.798,9.5500,0.0400,0.1500,-9.3750,-2.2500,8.5000,86.5625,-2.0625,0.0000,224.2500,
2025-03-09 16:43:51.824,9.6500,0.0200,0.2200,-6.7500,-1.4375,8.0625,86.6250,-1.9375,0.0000,224.2500,
2025-03-09 16:43:51.830,9.7500,0.0600,0.4600,-1.5625,-1.1250,5.9375,86.6875,-1.8125,0.0000,224.1875,
2025-03-09 16:43:51.848,9.7900,0.0800,0.4500,0.5625,0.5625,5.0625,86.8125,-1.6875,0.0000,223.8125,
2025-03-09 16:43:51.860,9.7800,0.0900,0.5400,4.1875,2.9375,2.4375,86.8125,-1.6875,0.0000,223.7500,
2025-03-09 16:43:51.880,9.7600,0.2700,0.4200,6.3125,4.8750,0.2500,86.7500,-1.6250,0.0000,223.6250,
2025-03-09 16:43:51.897,9.5400,0.1500,0.1600,5.6875,3.5000,-0.8125,86.6875,-1.6250,0.0000,223.4375,
2025-03-09 16:43:51.910,9.5900,0.0600,0.1000,3.3125,1.4375,-0.8750,86.6250,-1.6250,0.0000,223.3750,
