A1,,,,,,,,,,,
time,accx,accy,accz,gyrox,gyroy,gyroz,w1,w2,w3,w4,
2025-03-09 22:04:05.032,9.9000,0.3300,-0.0600,1.0000,-11.9375,-2.8125,0.0822,-0.7033,0.0686,0.7028,
2025-03-09 22:04:05.041,9.9200,0.2700,-0.2200,-0.0625,-12.9375,-1.8750,0.0824,-0.7041,0.0684,0.7020,
2025-03-09 22:04:05.071,9.9200,0.2600,-0.2600,-0.6875,-8.2500,-0.6250,0.0825,-0.7053,0.0681,0.7008,
2025-03-09 22:04:05.098,9.9200,0.2200,0.0100,1.1250,-0.9375,-0.1250,0.0826,-0.7055,0.0681,0.7005,
2025-03-09 22:04:05.099,9.9100,0.2100,0.0800,1.4375,-0.0625,-0.3750,0.0827,-0.7055,0.0682,0.7005,
2025-03-09 22:04:05.120,9.9100,0.5700,0.1500,0.3750,-2.9375,-1.7500,0.0830,-0.7057,0.0680,0.7004,
2025-03-09 22:04:05.121,9.7800,0.4600,-0.1800,-3.1875,-5.2500,-2.1875,0.0830,-0.7060,0.0676,0.7001,
2025-03-09 22:04:05.129,9.9400,0.1800,-0.1700,-3.0000,-7.0625,1.0625,0.0828,-0.7064,0.0674,0.6997,
2025-03-09 22:04:05.140,9.9700,0.1500,-0.1900,0.4375,-6.1875,1.1250,0.0828,-0.7068,0.0674,0.6993,
2025-03-09 22:04:05.159,9.9100,0.3400,-0.3200,1.4375,-2.6875,-0.6875,0.0831,-0.7072,0.0675,0.6988,
2025-03-09 22:04:05.176,9.8700,0.2000,0.1000,1.2500,2.3125,1.1875,0.0831,-0.7070,0.0677,0.6990,
2025-03-09 22:04:05.188,9.8900,0.1600,0.1600,0.2500,1.8125,1.0625,0.0831,-0.7069,0.0678,0.6991,
2025-03-09 22:04:05.209,9.9100,0.3400,0.0000,0.1250,-4.0625,-0.5625,0.0831,-0.7072,0.0678,0.6988,
2025-03-09 22:04:05.228,9.9400,0.2500,-0.3100,5.3750,-6.8750,1.2500,0.0835,-0.7079,0.0681,0.6980,
2025-03-09 22:04:05.240,9.9400,0.1900,-0.3500,4.2500,-2.3750,0.3750,0.0837,-0.7081,0.0684,0.6978,
2025-03-09 22:04:05.258,9.9000,0.3800,-0.0300,2.0000,0.6875,-0.5000,0.0842,-0.7081,0.0687,0.6977,
2025-03-09 22:04:05.269,9.8200,0.4500,-0.1000,-0.3125,1.1875,-0.1250,0.0842,-0.7081,0.0687,0.6977,
2025-03-09 22:04:05.276,9.9100,0.0300,0.0600,-1.1875,0.0625,1.6250,0.0840,-0.7081,0.0687,0.6978,
2025-03-09 22:04:05.288,9.9700,0.0900,0.1300,0.1250,-4.3750,-1.0625,0.0841,-0.7083,0.0686,0.6975,
2025-03-09 22:04:05.307,9.8900,0.3100,-0.2600,-0.6875,-7.3750,-0.5625,0.0842,-0.7092,0.0684,0.6967,
2025-03-09 22:04:05.319,9.9000,0.3000,-0.3000,0.0000,-6.1250,0.3125,0.0843,-0.7095,0.0683,0.6963,
2025-03-09 22:04:05.339,9.9300,0.2100,-0.4300,1.3750,0.2500,-0.2500,0.0845,-0.7097,0.0684,0.6960,
2025-03-09 22:04:05.348,9.8900,0.2200,-0.1600,2.1875,2.8750,-0.8750,0.0847,-0.7096,0.0685,0.6962,
2025-03-09 22:04:05.372,9.8900,0.2800,0.0000,0.1250,1.2500,-2.4375,0.0850,-0.7092,0.0684,0.6965,
2025-03-09 22:04:05.391,9.8900,0.3300,-0.1700,-0.3125,-2.0000,-0.6875,0.0851,-0.7094,0.0682,0.6963,
2025-03-09 22:04:05.406,9.8100,0.5400,-0.4600,-1.0625,-1.0000,4.5625,0.0847,-0.7096,0.0683,0.6961,
2025-03-09 22:04:05.420,9.9500,0.0900,-0.0800,-0.6250,0.6875,2.6250,0.0845,-0.7096,0.0684,0.6962,
2025-03-09 22:04:05.425,9.8800,0.3100,-0.2200,0.2500,0.7500,0.5000,0.0846,-0.7096,0.0684,0.6962,
2025-03-09 22:04:05.437,9.9500,0.1300,-0.1200,0.0000,0.8125,-0.1875,0.0845,-0.7095,0.0684,0.6962,
2025-03-09 22:04:05.452,9.8900,0.3200,-0.0700,-0.1250,-0.7500,-1.1875,0.0847,-0.7095,0.0683,0.6962,
2025-03-09 22:04:05.457,9.8800,0.2500,-0.1900,0.1875,-2.3750,-0.6875,0.0847,-0.7097,0.0682,0.6961,
2025-03-09 22:04:05.468,9.9200,0.2000,-0.2400,0.0625,-2.0000,-0.9375,0.0848,-0.7098,0.0682,0.6960,
2025-03-09 22:04:05.481,9.9100,0.2500,-0.2000,0.2500,-1.3750,-1.6250,0.0849,-0.7098,0.0681,0.6959,
2025-03-09 22:04:05.488,9.8800,0.3000,-0.1800,-0.0625,-0.6875,-1.7500,0.0850,-0.7099,0.0680,0.6959,
2025-03-09 22:04:05.498,9.8700,0.3000,-0.1200,-1.0000,-0.5625,-1.2500,0.0850,-0.7099,0.0678,0.6959,
2025-03-09 22:04:05.511,9.9000,0.3000,-0.1300,-1.7500,-1.0625,-0.9375,0.0850,-0.7099,0.0676,0.6959,
2025-03-09 22:04:05.518,9.9100,0.2600,-0.1700,-2.0625,-1.9375,-1.3125,0.0850,-0.7100,0.0674,0.6958,
2025-03-09 22:04:05.527,9.9000,0.2800,-0.2300,-1.8750,-2.3125,-1.4375,0.0850,-0.7101,0.0672,0.6957,
2025-03-09 22:04:05.537,9.9100,0.2700,-0.2600,-1.6875,-1.6250,-1.7500,0.0850,-0.7103,0.0670,0.6956,
2025-03-09 22:04:05.546,9.9100,0.2600,-0.2600,-0.2500,-0.1250,-1.8125,0.0851,-0.7102,0.0669,0.6956,
2025-03-09 22:04:05.559,9.9100,0.3200,-0.2100,0.9375,1.1250,-1.8125,0.0853,-0.7101,0.0668,0.6957,
2025-03-09 22:04:05.571,9.8700,0.3400,-0.1300,1.0625,1.5625,-1.1250,0.0854,-0.7100,0.0668,0.6958,
2025-03-09 22:04:05.579,9.8800,0.3600,-0.0900,0.7500,1.1250,-0.8125,0.0854,-0.7099,0.0668,0.6958,
2025-03-09 22:04:05.586,9.8900,0.3000,-0.1300,0.3125,0.3750,-0.3125,0.0855,-0.7099,0.0668,0.6958,
2025-03-09 22:04:05.603,9.8900,0.3400,-0.1700,0.1875,-0.3750,-0.0625,0.0855,-0.7099,0.0668,0.6959,
2025-03-09 22:04:05.606,9.8900,0.2800,-0.1800,0.0625,-0.7500,0.1250,0.0855,-0.7100,0.0668,0.6958,
2025-03-09 22:04:05.616,9.8900,0.2600,-0.2000,0.0625,-0.6250,-0.1250,0.0855,-0.7100,0.0668,0.6958,
2025-03-09 22:04:05.627,9.9000,0.3400,-0.1200,0.1250,-0.6250,-0.1875,0.0855,-0.7100,0.0668,0.6958,
2025-03-09 22:04:05.641,9.9100,0.3300,-0.1500,0.1250,-0.8125,0.1250,0.0856,-0.7101,0.0668,0.6957,
2025-03-09 22:04:05.647,9.8900,0.3200,-0.1800,-0.4375,-1.0625,0.0625,0.0856,-0.7101,0.0667,0.6957,
2025-03-09 22:04:05.662,9.9200,0.2700,-0.2200,-0.5625,-0.8125,0.1250,0.0856,-0.7102,0.0667,0.6956,
2025-03-09 22:04:05.667,9.9100,0.2600,-0.2000,-0.1875,-0.6875,-0.5625,0.0856,-0.7102,0.0667,0.6956,
2025-03-09 22:04:05.680,9.8900,0.3100,-0.1900,0.1875,-0.8125,-1.0625,0.0856,-0.7102,0.0666,0.6955,
2025-03-09 22:04:05.687,9.9100,0.2900,-0.1800,0.3125,-0.8750,-1.0625,0.0858,-0.7103,0.0665,0.6955,
2025-03-09 22:04:05.696,9.9100,0.3000,-0.2600,0.8125,-0.6875,-0.9375,0.0858,-0.7103,0.0665,0.6955,
2025-03-09 22:04:05.706,9.8900,0.3100,-0.2700,1.1875,0.0625,-0.7500,0.0859,-0.7103,0.0666,0.6955,
2025-03-09 22:04:05.722,9.8800,0.3400,-0.2400,1.2500,0.9375,-0.6250,0.0861,-0.7102,0.0666,0.6955,
2025-03-09 22:04:05.728,9.9000,0.3300,-0.2200,1.3125,1.8750,-0.1250,0.0861,-0.7102,0.0666,0.6955,
2025-03-09 22:04:05.738,9.8800,0.2800,-0.1500,0.0000,2.5000,-0.1250,0.0861,-0.7101,0.0667,0.6956,
2025-03-09 22:04:05.750,9.8900,0.3500,-0.1100,-0.5625,2.1875,-0.1875,0.0861,-0.7100,0.0667,0.6958,
2025-03-09 22:04:05.757,9.8700,0.3000,-0.1200,-0.1875,1.3125,-0.0625,0.0861,-0.7098,0.0667,0.6959,
2025-03-09 22:04:05.767,9.8900,0.3100,-0.2400,0.5000,1.1250,0.1250,0.0861,-0.7097,0.0667,0.6960,
2025-03-09 22:04:05.781,9.9000,0.2700,-0.2500,0.8125,1.6250,0.3125,0.0861,-0.7097,0.0667,0.6961,
2025-03-09 22:04:05.789,9.9000,0.2700,-0.2100,0.9375,2.5000,0.1250,0.0862,-0.7095,0.0668,0.6962,
2025-03-09 22:04:05.797,9.8800,0.3200,-0.1800,0.8750,3.0625,-0.1875,0.0862,-0.7094,0.0668,0.6963,
2025-03-09 22:04:05.812,9.9100,0.2600,-0.0700,0.8750,2.9375,-0.3125,0.0862,-0.7092,0.0669,0.6965,
2025-03-09 22:04:05.816,9.8800,0.3400,-0.0600,1.0625,1.8125,-0.5000,0.0863,-0.7090,0.0670,0.6967,
2025-03-09 22:04:05.830,9.9000,0.3300,-0.0500,0.8750,0.6875,-0.4375,0.0864,-0.7089,0.0671,0.6968,
2025-03-09 22:04:05.842,9.8700,0.3500,-0.1300,0.3750,-0.5000,-0.2500,0.0864,-0.7088,0.0671,0.6968,
2025-03-09 22:04:05.846,9.9000,0.3400,-0.1700,-0.2500,-0.8125,0.1250,0.0864,-0.7088,0.0671,0.6969,
2025-03-09 22:04:05.857,9.9100,0.3300,-0.2000,-0.0625,-0.6250,0.3750,0.0864,-0.7089,0.0671,0.6968,
2025-03-09 22:04:05.871,9.9100,0.3100,-0.2000,0.0625,-0.1875,0.6250,0.0864,-0.7089,0.0671,0.6968,
2025-03-09 22:04:05.877,9.8900,0.3200,-0.0800,-0.2500,0.1250,0.5000,0.0864,-0.7089,0.0671,0.6968,
2025-03-09 22:04:05.890,9.9000,0.2900,-0.0800,-0.6250,-0.6875,0.6250,0.0864,-0.7089,0.0671,0.6968,
2025-03-09 22:04:05.903,9.8900,0.2300,-0.0800,-0.4375,-1.7500,0.5000,0.0864,-0.7089,0.0671,0.6968,
2025-03-09 22:04:05.908,9.8900,0.2700,-0.1800,0.0000,-2.1875,-0.3125,0.0864,-0.7090,0.0671,0.6966,
2025-03-09 22:04:05.918,9.9000,0.3300,-0.2400,-0.1250,-2.1875,-0.8125,0.0864,-0.7092,0.0670,0.6965,
2025-03-09 22:04:05.931,9.9000,0.3300,-0.2000,-0.3750,-1.6250,-0.6875,0.0864,-0.7093,0.0670,0.6964,
2025-03-09 22:04:05.936,9.9000,0.3300,-0.2000,-0.3750,-0.8750,-0.7500,0.0865,-0.7094,0.0669,0.6963,
2025-03-09 22:04:05.948,9.9200,0.3000,-0.1900,0.1250,-0.3750,-0.3750,0.0865,-0.7094,0.0668,0.6963,
2025-03-09 22:04:05.962,9.8900,0.2900,-0.1800,0.2500,0.0625,-0.4375,0.0865,-0.7094,0.0668,0.6963,
2025-03-09 22:04:05.967,9.8900,0.3200,-0.1300,0.3750,-0.1250,-0.5625,0.0865,-0.7094,0.0668,0.6963,
2025-03-09 22:04:05.977,9.8900,0.3300,-0.1300,0.9375,-0.2500,-0.6875,0.0865,-0.7094,0.0668,0.6963,
2025-03-09 22:04:05.998,9.9300,0.2900,-0.1300,0.9375,-0.3750,-0.3125,0.0867,-0.7094,0.0668,0.6963,
2025-03-09 22:04:05.998,9.9100,0.3400,-0.1500,0.8125,-0.8750,-0.6875,0.0867,-0.7094,0.0669,0.6963,
2025-03-09 22:04:06.007,9.9000,0.3500,-0.1500,0.3125,-1.5000,-0.3750,0.0869,-0.7094,0.0669,0.6962,
2025-03-09 22:04:06.020,9.8800,0.3300,-0.1400,0.0000,-1.8750,-0.0625,0.0869,-0.7095,0.0669,0.6962,
2025-03-09 22:04:06.031,9.8700,0.3700,-0.1900,-0.3125,-2.3125,0.3125,0.0869,-0.7096,0.0668,0.6960,
2025-03-09 22:04:06.043,9.8900,0.3100,-0.1800,-0.3750,-2.2500,0.5625,0.0869,-0.7097,0.0668,0.6959,
2025-03-09 22:04:06.048,9.8900,0.3300,-0.2300,0.3125,-1.7500,0.8750,0.0869,-0.7098,0.0668,0.6958,
2025-03-09 22:04:06.057,9.9200,0.2800,-0.2600,0.6875,-0.8125,0.9375,0.0869,-0.7099,0.0668,0.6957,
2025-03-09 22:04:06.068,9.9200,0.2900,-0.1900,0.1250,0.1250,0.5625,0.0869,-0.7100,0.0669,0.6956,
2025-03-09 22:04:06.081,9.9100,0.3100,-0.1800,0.1875,0.5000,0.5000,0.0869,-0.7100,0.0669,0.6956,
2025-03-09 22:04:06.093,9.8700,0.3100,-0.1800,0.0625,0.4375,0.2500,0.0869,-0.7100,0.0669,0.6956,
2025-03-09 22:04:06.098,9.9300,0.2500,-0.2000,0.0000,0.3125,0.0625,0.0869,-0.7100,0.0669,0.6956,
2025-03-09 22:04:06.113,9.9000,0.3000,-0.1700,-0.0625,0.3125,-0.3125,0.0869,-0.7100,0.0669,0.6956,
2025-03-09 22:04:06.117,9.9000,0.3000,-0.2100,0.6250,0.1250,-0.6250,0.0869,-0.7100,0.0669,0.6956,
2025-03-09 22:04:06.128,9.8900,0.3300,-0.2200,0.5625,0.4375,-0.4375,0.0870,-0.7100,0.0669,0.6956,
2025-03-09 22:04:06.139,9.9100,0.3300,-0.2000,0.9375,0.9375,0.2500,0.0870,-0.7100,0.0669,0.6956,
2025-03-09 22:04:06.150,9.9000,0.3300,-0.1500,0.3125,1.0625,0.1875,0.0870,-0.7099,0.0670,0.6957,
2025-03-09 22:04:06.159,9.8900,0.3100,-0.1100,0.1250,0.6875,0.2500,0.0870,-0.7098,0.0670,0.6957,
2025-03-09 22:04:06.167,9.8800,0.2600,-0.1300,-0.1250,-0.1875,0.2500,0.0870,-0.7098,0.0670,0.6958,
2025-03-09 22:04:06.178,9.8700,0.3400,-0.1700,0.4375,-0.9375,0.1250,0.0870,-0.7098,0.0670,0.6958,
2025-03-09 22:04:06.190,9.9100,0.3300,-0.2200,0.4375,-0.9375,0.3125,0.0870,-0.7098,0.0670,0.6957,
2025-03-09 22:04:06.208,9.9000,0.3200,-0.2200,0.3125,0.1250,-0.1250,0.0870,-0.7099,0.0670,0.6957,
2025-03-09 22:04:06.208,9.9200,0.3200,-0.1800,0.3125,0.8125,0.1250,0.0870,-0.7099,0.0670,0.6957,
2025-03-09 22:04:06.217,9.9000,0.3300,-0.0800,-0.1875,0.4375,0.3125,0.0870,-0.7098,0.0670,0.6957,
2025-03-09 22:04:06.230,9.8900,0.3300,-0.1100,-0.5625,-0.8750,0.5625,0.0871,-0.7098,0.0669,0.6958,
2025-03-09 22:04:06.239,9.9100,0.3200,-0.1500,-0.5625,-1.9375,0.8125,0.0871,-0.7098,0.0669,0.6957,
2025-03-09 22:04:06.247,9.8900,0.3400,-0.2200,-0.2500,-2.1250,1.0625,0.0870,-0.7100,0.0670,0.6956,
2025-03-09 22:04:06.260,9.8900,0.3200,-0.2400,-0.4375,-1.6875,1.2500,0.0870,-0.7101,0.0670,0.6955,
2025-03-09 22:04:06.268,9.9000,0.3400,-0.2000,-0.9375,-1.6250,1.6250,0.0870,-0.7102,0.0670,0.6954,
2025-03-09 22:04:06.278,9.9100,0.3400,-0.1700,-1.6250,-1.7500,2.1250,0.0868,-0.7103,0.0670,0.6953,
2025-03-09 22:04:06.288,9.9100,0.3000,-0.1800,-1.7500,-2.3125,2.6875,0.0866,-0.7104,0.0670,0.6952,
2025-03-09 22:04:06.302,9.9100,0.2700,-0.1800,-0.9375,-2.1875,2.6250,0.0864,-0.7106,0.0671,0.6951,
2025-03-09 22:04:06.308,9.9100,0.2400,-0.2500,0.2500,-1.5625,2.2500,0.0862,-0.7107,0.0671,0.6950,
2025-03-09 22:04:06.320,9.9100,0.2200,-0.2700,0.6875,-0.7500,1.7500,0.0861,-0.7108,0.0673,0.6948,
2025-03-09 22:04:06.337,9.9100,0.1900,-0.2200,0.5000,-0.5000,1.0625,0.0860,-0.7109,0.0674,0.6948,
2025-03-09 22:04:06.337,9.8900,0.2700,-0.2100,-0.1250,-0.3125,0.0000,0.0859,-0.7109,0.0674,0.6948,
2025-03-09 22:04:06.359,9.8900,0.2700,-0.2000,-0.5625,-0.0625,-0.6875,0.0859,-0.7109,0.0674,0.6948,
2025-03-09 22:04:06.361,9.8900,0.2900,-0.2100,-0.8125,-0.2500,-1.0000,0.0859,-0.7109,0.0674,0.6948,
2025-03-09 22:04:06.373,9.9100,0.3000,-0.2400,-0.5000,-0.0625,-1.0625,0.0860,-0.7109,0.0673,0.6948,
2025-03-09 22:04:06.378,9.9100,0.3100,-0.2300,-0.4375,0.3750,-0.8750,0.0861,-0.7109,0.0673,0.6948,
2025-03-09 22:04:06.387,9.8900,0.2700,-0.2600,-0.5000,0.8125,-0.5625,0.0861,-0.7109,0.0672,0.6948,
2025-03-09 22:04:06.401,9.9000,0.3000,-0.2500,-0.2500,1.4375,-0.5625,0.0861,-0.7108,0.0672,0.6948,
2025-03-09 22:04:06.409,9.8900,0.3200,-0.1900,0.0000,2.1250,-0.5000,0.0861,-0.7107,0.0672,0.6949,
2025-03-09 22:04:06.418,9.8600,0.3100,-0.1400,-0.1875,2.1875,-0.3750,0.0861,-0.7106,0.0672,0.6951,
2025-03-09 22:04:06.428,9.9000,0.3200,-0.1500,0.2500,1.8125,-0.1250,0.0861,-0.7105,0.0672,0.6952,
2025-03-09 22:04:06.440,9.9100,0.2900,-0.1500,0.1875,1.4375,0.1250,0.0861,-0.7104,0.0673,0.6953,
2025-03-09 22:04:06.448,9.9000,0.2700,-0.1800,-0.5000,0.5000,0.2500,0.0861,-0.7103,0.0673,0.6954,
2025-03-09 22:04:06.458,9.8800,0.2800,-0.2300,-0.8125,0.0000,-0.1250,0.0861,-0.7103,0.0673,0.6954,
2025-03-09 22:04:06.470,9.9000,0.3300,-0.1900,-0.4375,0.2500,0.0625,0.0860,-0.7103,0.0672,0.6954,
2025-03-09 22:04:06.479,9.9000,0.2500,-0.1600,-0.1875,0.6875,0.1250,0.0860,-0.7103,0.0672,0.6954,
2025-03-09 22:04:06.505,9.9100,0.2800,-0.1300,-0.5000,-0.3125,0.0000,0.0860,-0.7103,0.0672,0.6954,
2025-03-09 22:04:06.508,9.8900,0.3200,-0.1800,-0.3125,-1.0625,0.0000,0.0860,-0.7103,0.0672,0.6954,
2025-03-09 22:04:06.518,9.9100,0.2700,-0.1800,-1.3125,-1.5000,0.0000,0.0860,-0.7103,0.0672,0.6954,
2025-03-09 22:04:06.529,9.9000,0.2600,-0.1900,-2.6875,-1.9375,-0.3125,0.0859,-0.7104,0.0671,0.6953,
2025-03-09 22:04:06.548,9.9400,0.2400,-0.2700,-0.9375,-1.0000,-1.3125,0.0858,-0.7106,0.0668,0.6951,
2025-03-09 22:04:06.562,9.8900,0.2800,-0.2400,0.1875,-0.1875,-1.6250,0.0858,-0.7107,0.0666,0.6951,
2025-03-09 22:04:06.568,9.8900,0.3500,-0.2400,0.1875,0.2500,-1.9375,0.0859,-0.7107,0.0665,0.6951,
2025-03-09 22:04:06.578,9.8800,0.3100,-0.1600,-0.1250,0.1875,-1.5625,0.0860,-0.7107,0.0664,0.6951,
2025-03-09 22:04:06.600,9.8900,0.3200,-0.1600,0.0625,-0.8125,-1.0000,0.0861,-0.7106,0.0662,0.6951,
2025-03-09 22:04:06.620,9.8800,0.3600,-0.1700,-0.5000,-1.0625,-0.8125,0.0863,-0.7107,0.0661,0.6950,
2025-03-09 22:04:06.638,9.9100,0.3100,-0.1500,-1.1875,-1.7500,0.8750,0.0863,-0.7109,0.0660,0.6949,
2025-03-09 22:04:06.652,9.9000,0.2800,-0.1200,-1.3125,-2.3750,1.0000,0.0862,-0.7110,0.0660,0.6948,
2025-03-09 22:04:06.668,9.8700,0.2700,-0.2500,0.0625,-2.7500,0.1250,0.0861,-0.7113,0.0660,0.6945,
2025-03-09 22:04:06.687,9.9200,0.3000,-0.1600,-1.4375,-2.3125,-1.3750,0.0860,-0.7116,0.0659,0.6942,
2025-03-09 22:04:06.698,9.8900,0.3300,-0.1700,-3.0000,-3.0625,-1.6875,0.0861,-0.7118,0.0657,0.6940,
2025-03-09 22:04:06.721,9.9000,0.3100,-0.3300,-5.1250,-3.8750,-1.5625,0.0859,-0.7122,0.0650,0.6937,
2025-03-09 22:04:06.740,9.8900,0.3200,-0.3000,-4.0000,-2.1875,-1.5625,0.0855,-0.7126,0.0641,0.6934,
2025-03-09 22:04:06.755,9.8800,0.3500,-0.3200,-5.3750,-1.6250,-1.3750,0.0854,-0.7127,0.0638,0.6933,
2025-03-09 22:04:06.771,9.8900,0.3800,-0.2400,-11.5000,-2.8125,-1.1250,0.0847,-0.7130,0.0627,0.6932,
2025-03-09 22:04:06.787,9.9300,0.3200,-0.3400,-8.6250,-2.5000,-0.7500,0.0836,-0.7135,0.0612,0.6930,
2025-03-09 22:04:06.803,9.9200,0.3000,-0.4500,-4.1250,-1.0000,-0.3125,0.0831,-0.7137,0.0607,0.6929,
2025-03-09 22:04:06.819,9.9000,0.3600,-0.3300,-5.2500,1.9375,-0.4375,0.0827,-0.7137,0.0603,0.6929,
2025-03-09 22:04:06.836,9.8900,0.3500,-0.1000,-6.7500,0.1250,0.1875,0.0818,-0.7136,0.0594,0.6932,
2025-03-09 22:04:06.849,9.8900,0.2900,-0.2400,-4.5625,-0.7500,0.0625,0.0815,-0.7136,0.0590,0.6933,
2025-03-09 22:04:06.875,9.9100,0.3800,-0.3600,-1.5625,-0.8750,-1.3750,0.0811,-0.7137,0.0585,0.6932,
2025-03-09 22:04:06.891,9.9000,0.3900,-0.3800,1.0000,1.1875,-0.5000,0.0812,-0.7138,0.0583,0.6932,
2025-03-09 22:04:06.899,9.9000,0.3300,-0.1800,-1.2500,1.1875,-0.1875,0.0812,-0.7137,0.0583,0.6932,
2025-03-09 22:04:06.921,9.8900,0.3200,-0.2200,-3.6875,-1.1250,-0.5625,0.0810,-0.7137,0.0582,0.6933,
2025-03-09 22:04:06.938,9.8800,0.3500,-0.3100,-1.9375,-1.5000,-0.6250,0.0807,-0.7139,0.0577,0.6932,
2025-03-09 22:04:06.951,9.9000,0.4000,-0.3200,-4.0000,-1.4375,-0.5000,0.0806,-0.7139,0.0576,0.6932,
2025-03-09 22:04:06.970,9.9100,0.3400,-0.2100,-8.5625,-1.7500,0.3125,0.0800,-0.7142,0.0569,0.6931,
2025-03-09 22:04:06.987,9.8800,0.3400,-0.2500,-7.5000,-1.7500,0.4375,0.0790,-0.7145,0.0558,0.6929,
2025-03-09 22:04:06.998,9.9200,0.2800,-0.2700,-2.6875,-1.5625,0.0625,0.0787,-0.7146,0.0555,0.6929,
2025-03-09 22:04:07.020,9.8800,0.3200,-0.2700,-1.1250,-2.3750,-0.9375,0.0785,-0.7148,0.0552,0.6927,
2025-03-09 22:04:07.039,9.8900,0.3400,-0.2900,-1.2500,-3.3125,-1.5000,0.0786,-0.7151,0.0549,0.6924,
2025-03-09 22:04:07.050,9.8900,0.4200,-0.4900,-0.8125,-3.3750,-2.0000,0.0786,-0.7153,0.0547,0.6922,
2025-03-09 22:04:07.075,9.9100,0.4500,-0.4200,0.5625,-0.7500,-0.6250,0.0787,-0.7156,0.0544,0.6919,
2025-03-09 22:04:07.089,9.9000,0.4600,-0.3500,0.5000,0.3125,0.3125,0.0788,-0.7157,0.0544,0.6918,
2025-03-09 22:04:07.107,9.9000,0.2900,-0.3100,-0.9375,-0.4375,1.0625,0.0787,-0.7157,0.0544,0.6918,
2025-03-09 22:04:07.120,9.8900,0.6000,-0.2900,-0.0625,-0.9375,-0.2500,0.0786,-0.7158,0.0544,0.6918,
2025-03-09 22:04:07.137,9.8200,0.6000,-0.5200,-3.2500,-1.3125,0.6250,0.0784,-0.7159,0.0541,0.6916,
2025-03-09 22:04:07.149,10.0200,0.0200,-0.4600,-2.5000,0.6250,2.1875,0.0778,-0.7160,0.0540,0.6916,
2025-03-09 22:04:07.175,9.8900,0.4400,-0.2600,-0.3750,2.0625,-1.6875,0.0776,-0.7158,0.0540,0.6918,
2025-03-09 22:04:07.196,9.8700,0.3700,-0.2100,-1.0625,1.4375,-0.3125,0.0776,-0.7156,0.0538,0.6921,
2025-03-09 22:04:07.200,9.9000,0.3200,-0.2600,-0.4375,-0.5000,-0.4375,0.0776,-0.7156,0.0538,0.6921,
2025-03-09 22:04:07.226,9.9000,0.3600,-0.2900,-0.3750,-2.1875,-0.7500,0.0776,-0.7157,0.0536,0.6920,
2025-03-09 22:04:07.237,9.8800,0.3700,-0.4300,-1.1250,-2.0625,-1.3750,0.0778,-0.7159,0.0535,0.6918,
2025-03-09 22:04:07.250,9.9000,0.3400,-0.4100,-4.6250,-1.1250,-1.7500,0.0777,-0.7160,0.0532,0.6917,
2025-03-09 22:04:07.270,9.9000,0.3400,-0.3000,-2.3125,-0.3750,-2.1875,0.0773,-0.7161,0.0524,0.6917,
2025-03-09 22:04:07.288,9.9400,0.8300,-0.1800,-0.8125,0.0000,-2.1875,0.0775,-0.7161,0.0518,0.6918,
2025-03-09 22:04:07.300,9.5900,0.8000,-0.7400,-7.2500,0.8750,4.6875,0.0769,-0.7162,0.0514,0.6917,
2025-03-09 22:04:07.325,9.8700,0.4500,-0.5000,-2.5000,-1.1250,-2.6875,0.0761,-0.7163,0.0510,0.6918,
2025-03-09 22:04:07.340,9.9000,0.3300,-0.2900,-2.6875,0.0625,-1.3750,0.0761,-0.7163,0.0504,0.6918,
2025-03-09 22:04:07.351,9.9100,0.3100,-0.3300,-0.3125,0.2500,-1.4375,0.0761,-0.7163,0.0503,0.6918,
2025-03-09 22:04:07.404,9.8500,0.4500,-0.2900,0.1250,-0.8750,-1.1875,0.0763,-0.7163,0.0500,0.6918,
2025-03-09 22:04:07.404,9.5600,0.9000,-0.9600,-3.8750,-1.9375,0.3750,0.0762,-0.7164,0.0497,0.6917,
2025-03-09 22:04:07.404,10.0800,-0.3400,-0.2100,-2.8125,1.8750,2.3125,0.0754,-0.7165,0.0497,0.6917,
2025-03-09 22:04:07.419,9.8000,0.6800,-0.3100,-0.4375,-0.7500,-2.9375,0.0754,-0.7163,0.0495,0.6919,
2025-03-09 22:04:07.438,9.9000,0.3200,-0.2900,-0.4375,-1.8125,-0.5000,0.0756,-0.7165,0.0493,0.6918,
2025-03-09 22:04:07.450,9.8200,0.5300,-0.9300,-7.1875,-2.0000,4.1250,0.0754,-0.7167,0.0491,0.6916,
2025-03-09 22:04:07.470,9.9200,0.4500,-0.2500,-5.1250,1.3750,1.5000,0.0743,-0.7168,0.0487,0.6916,
2025-03-09 22:04:07.490,10.0000,0.6500,-0.1700,-1.4375,3.5625,-2.4375,0.0743,-0.7165,0.0483,0.6919,
2025-03-09 22:04:07.499,9.5600,0.9700,-0.7800,-8.8125,2.1875,2.5000,0.0744,-0.7163,0.0480,0.6921,
2025-03-09 22:04:07.523,9.8600,0.4000,-0.4200,-5.9375,4.0625,1.0000,0.0732,-0.7161,0.0474,0.6926,
2025-03-09 22:04:07.536,9.8200,0.7100,-0.6300,-2.0625,4.3750,-2.6875,0.0735,-0.7156,0.0469,0.6930,
2025-03-09 22:04:07.550,9.9700,0.2900,-0.5500,-7.0000,6.3750,-0.5625,0.0731,-0.7153,0.0466,0.6934,
2025-03-09 22:04:07.570,9.8300,0.4600,-0.3200,-7.8750,9.8125,-3.1875,0.0721,-0.7143,0.0454,0.6946,
2025-03-09 22:04:07.587,9.9100,0.3200,-0.0300,-6.0625,10.3750,-3.0625,0.0717,-0.7131,0.0444,0.6960,
2025-03-09 22:04:07.602,9.9100,0.4500,-0.1200,-4.3125,9.3750,-3.8125,0.0717,-0.7125,0.0439,0.6966,
2025-03-09 22:04:07.630,9.9000,0.4900,-0.3700,-6.6875,7.5000,-2.8750,0.0714,-0.7117,0.0429,0.6976,
2025-03-09 22:04:07.640,9.9100,0.5000,-0.2700,-3.0000,13.5625,0.1875,0.0709,-0.7103,0.0423,0.6990,
2025-03-09 22:04:07.649,9.8300,0.6000,-0.3400,-0.5625,16.6875,1.0625,0.0707,-0.7094,0.0424,0.7000,
2025-03-09 22:04:07.678,9.8600,0.4600,0.1100,-5.2500,19.0625,2.6875,0.0699,-0.7072,0.0426,0.7022,
2025-03-09 22:04:07.689,9.8700,0.3200,0.1200,-11.5625,14.2500,2.5625,0.0682,-0.7055,0.0417,0.7042,
2025-03-09 22:04:07.706,9.8600,0.4900,0.1900,-7.4375,12.6250,1.9375,0.0676,-0.7048,0.0415,0.7050,
2025-03-09 22:04:07.718,9.9500,0.2100,0.0700,-0.6875,8.7500,1.9375,0.0673,-0.7037,0.0416,0.7061,
2025-03-09 22:04:07.748,9.9200,0.2600,0.1400,-0.9375,7.9375,0.6250,0.0671,-0.7032,0.0417,0.7066,
2025-03-09 22:04:07.754,9.8900,0.4400,0.2700,-5.5625,3.1250,-1.0000,0.0668,-0.7026,0.0411,0.7072,
2025-03-09 22:04:07.770,9.8500,0.3800,-0.0800,-2.1875,-1.0625,1.5000,0.0663,-0.7026,0.0408,0.7073,
2025-03-09 22:04:07.790,9.9100,0.4700,-0.2700,-1.1250,0.8125,2.5000,0.0658,-0.7027,0.0410,0.7073,
2025-03-09 22:04:07.799,9.9400,0.4000,-0.4000,-1.6250,5.0625,2.8750,0.0656,-0.7024,0.0411,0.7076,
2025-03-09 22:04:07.820,9.8100,0.4500,0.2100,-3.6250,13.2500,0.5625,0.0649,-0.7010,0.0410,0.7090,
2025-03-09 22:04:07.829,9.8700,0.2500,0.4000,-7.8125,12.5000,0.3125,0.0644,-0.7003,0.0406,0.7098,
2025-03-09 22:04:07.849,9.9200,0.1900,0.6600,-14.3125,5.2500,-0.1250,0.0629,-0.6995,0.0392,0.7108,
2025-03-09 22:04:07.868,9.8700,0.5100,0.1500,-5.0000,-3.3125,-2.9375,0.0625,-0.6996,0.0381,0.7107,
2025-03-09 22:04:07.886,9.9100,0.3400,0.1100,-6.8125,-4.0000,0.2500,0.0618,-0.7002,0.0372,0.7103,
2025-03-09 22:04:07.899,9.8900,0.3100,0.1500,-5.4375,-3.3750,0.5000,0.0615,-0.7004,0.0369,0.7101,
2025-03-09 22:04:07.917,9.9100,0.3500,0.2300,-4.4375,-4.5000,-0.9375,0.0610,-0.7009,0.0363,0.7097,
2025-03-09 22:04:07.928,9.8800,0.3700,0.1400,-3.7500,-6.2500,-1.5625,0.0609,-0.7013,0.0359,0.7094,
2025-03-09 22:04:07.941,9.9000,0.3200,0.0500,-0.8125,-6.8750,-1.6250,0.0610,-0.7017,0.0358,0.7090,
2025-03-09 22:04:07.946,9.8900,0.4000,-0.0300,0.2500,-6.4375,-2.0000,0.0611,-0.7021,0.0356,0.7086,
2025-03-09 22:04:07.958,9.8900,0.4300,0.0500,0.3125,-4.9375,-1.8125,0.0612,-0.7023,0.0355,0.7083,
2025-03-09 22:04:07.969,9.9200,0.3700,0.0400,0.6875,-3.5000,-1.0625,0.0613,-0.7026,0.0354,0.7081,
2025-03-09 22:04:07.980,9.9000,0.3400,0.2000,0.0625,-3.6250,-0.9375,0.0614,-0.7028,0.0353,0.7079,
2025-03-09 22:04:07.986,9.8900,0.3500,0.1600,-0.5625,-5.5625,-1.1250,0.0615,-0.7031,0.0353,0.7076,
2025-03-09 22:04:08.005,9.8800,0.3400,0.1000,-2.2500,-8.0625,-1.9375,0.0615,-0.7036,0.0350,0.7071,
2025-03-09 22:04:08.012,9.8900,0.3600,0.0100,-3.1875,-9.4375,-2.3125,0.0615,-0.7041,0.0346,0.7066,
2025-03-09 22:04:08.019,9.9200,0.4300,-0.0400,-4.2500,-10.0000,-2.6875,0.0614,-0.7047,0.0341,0.7060,
2025-03-09 22:04:08.030,9.8900,0.5300,-0.0900,-4.3750,-9.1250,-2.0625,0.0613,-0.7053,0.0337,0.7055,
2025-03-09 22:04:08.040,9.8800,0.5100,-0.0900,-1.5625,-7.7500,-1.1875,0.0613,-0.7057,0.0334,0.7050,
2025-03-09 22:04:08.048,9.9000,0.4200,-0.0700,-0.2500,-6.1875,0.3125,0.0613,-0.7061,0.0334,0.7046,
2025-03-09 22:04:08.059,9.8900,0.4100,-0.0900,-0.5625,-5.0000,0.7500,0.0613,-0.7064,0.0334,0.7043,
2025-03-09 22:04:08.066,9.9000,0.3400,-0.0400,-0.3125,-3.9375,0.7500,0.0613,-0.7067,0.0334,0.7041,
2025-03-09 22:04:08.077,9.9200,0.3100,-0.0500,-0.5625,-3.8125,0.1875,0.0613,-0.7068,0.0334,0.7039,
2025-03-09 22:04:08.090,9.8900,0.4400,-0.1600,-1.1875,-3.9375,-0.5625,0.0612,-0.7071,0.0333,0.7037,
2025-03-09 22:04:08.097,9.9000,0.5000,-0.1700,-3.1875,-3.8750,-0.9375,0.0611,-0.7073,0.0331,0.7034,
2025-03-09 22:04:08.107,9.9100,0.4400,-0.1700,-3.9375,-2.5625,-0.5000,0.0609,-0.7075,0.0328,0.7033,
2025-03-09 22:04:08.123,9.9000,0.3900,-0.2100,-2.6875,-0.8750,0.4375,0.0607,-0.7076,0.0327,0.7033,
2025-03-09 22:04:08.127,9.9100,0.3600,-0.0400,-2.5625,0.8125,0.6250,0.0605,-0.7076,0.0325,0.7033,
2025-03-09 22:04:08.138,9.9100,0.3600,-0.0300,-2.3125,1.7500,0.5625,0.0604,-0.7075,0.0324,0.7034,
2025-03-09 22:04:08.162,9.9000,0.3800,0.0400,-1.7500,1.3125,0.1250,0.0603,-0.7074,0.0323,0.7035,
2025-03-09 22:04:08.162,9.8800,0.4100,-0.0100,-1.9375,-0.1250,-0.1875,0.0602,-0.7074,0.0322,0.7035,
2025-03-09 22:04:08.200,9.9000,0.4000,-0.0300,-2.3750,-1.6250,-0.0625,0.0600,-0.7075,0.0320,0.7035,
2025-03-09 22:04:08.200,9.9000,0.4400,-0.1200,-2.8125,-2.5000,0.1250,0.0599,-0.7076,0.0319,0.7033,
2025-03-09 22:04:08.203,9.9200,0.3900,-0.1300,-2.7500,-2.4375,0.0625,0.0597,-0.7078,0.0317,0.7032,
2025-03-09 22:04:08.209,9.9200,0.3700,-0.1300,-1.6875,-1.1875,0.0000,0.0596,-0.7079,0.0316,0.7031,
2025-03-09 22:04:08.214,9.9000,0.4100,-0.0500,-0.7500,0.1875,-0.1875,0.0596,-0.7079,0.0315,0.7031,
2025-03-09 22:04:08.217,9.9000,0.4000,-0.0300,-0.1250,0.8125,-0.3750,0.0596,-0.7078,0.0315,0.7032,
2025-03-09 22:04:08.227,9.8800,0.4500,-0.0200,-0.1875,0.3750,-0.3125,0.0596,-0.7078,0.0315,0.7032,
2025-03-09 22:04:08.269,9.9000,0.4900,-0.0500,0.1875,-0.9375,-0.3750,0.0596,-0.7079,0.0315,0.7031,
2025-03-09 22:04:08.269,9.9000,0.4400,-0.1200,0.0625,-1.5625,0.0000,0.0596,-0.7080,0.0315,0.7030,
2025-03-09 22:04:08.269,9.9200,0.4100,-0.0700,-0.4375,-1.5625,0.7500,0.0596,-0.7081,0.0316,0.7029,
2025-03-09 22:04:08.269,9.9100,0.4300,-0.1200,-1.1875,-1.2500,1.1250,0.0594,-0.7081,0.0315,0.7029,
2025-03-09 22:04:08.291,9.9200,0.3900,-0.0300,-3.1875,-1.8125,1.0000,0.0591,-0.7083,0.0314,0.7028,
2025-03-09 22:04:08.291,9.9100,0.4300,0.0000,-4.8125,-2.1250,1.0625,0.0588,-0.7084,0.0311,0.7027,
2025-03-09 22:04:08.310,9.9000,0.4200,0.0000,-2.5625,-2.5625,1.5000,0.0586,-0.7086,0.0311,0.7025,
2025-03-09 22:04:08.311,9.9200,0.3200,-0.0600,-0.7500,-3.1250,1.9375,0.0584,-0.7088,0.0311,0.7023,
2025-03-09 22:04:08.318,9.9000,0.4200,-0.1000,-0.5000,-4.4375,2.0000,0.0583,-0.7090,0.0312,0.7021,
2025-03-09 22:04:08.330,9.9000,0.3400,-0.0900,-1.1250,-4.8750,1.4375,0.0582,-0.7093,0.0312,0.7018,
2025-03-09 22:04:08.337,9.9000,0.3600,-0.2200,-1.1875,-4.8125,1.3750,0.0580,-0.7096,0.0312,0.7015,
2025-03-09 22:04:08.348,9.9100,0.3500,-0.2300,-0.8750,-4.3125,1.2500,0.0579,-0.7099,0.0312,0.7012,
2025-03-09 22:04:08.360,9.9200,0.3900,-0.2000,-0.6250,-2.9375,0.8125,0.0579,-0.7101,0.0312,0.7010,
2025-03-09 22:04:08.366,9.9000,0.3800,-0.1900,-0.2500,-2.0000,0.4375,0.0579,-0.7102,0.0312,0.7009,
2025-03-09 22:04:08.377,9.9200,0.4400,-0.1700,0.0625,-0.9375,0.4375,0.0579,-0.7102,0.0312,0.7009,
2025-03-09 22:04:08.390,9.9200,0.3700,-0.2300,0.3750,-0.3125,0.4375,0.0579,-0.7103,0.0312,0.7009,
2025-03-09 22:04:08.398,9.9100,0.3400,-0.2700,0.8750,0.3750,0.5000,0.0579,-0.7103,0.0311,0.7009,
2025-03-09 22:04:08.407,9.9000,0.4000,-0.2600,0.9375,1.8750,0.4375,0.0579,-0.7103,0.0312,0.7009,
2025-03-09 22:04:08.420,9.9000,0.3100,-0.1900,0.7500,3.6875,0.4375,0.0580,-0.7102,0.0313,0.7009,
2025-03-09 22:04:08.428,9.9000,0.3400,-0.1800,0.0000,5.1250,0.3125,0.0580,-0.7100,0.0313,0.7012,
2025-03-09 22:04:08.436,9.9200,0.3700,-0.1900,0.1250,5.9375,-0.5625,0.0580,-0.7096,0.0314,0.7015,
2025-03-09 22:04:08.449,9.9200,0.3300,-0.1000,0.6250,6.9375,-0.7500,0.0580,-0.7093,0.0314,0.7018,
2025-03-09 22:04:08.456,9.9400,0.3000,-0.0300,0.6875,8.6250,-1.1875,0.0580,-0.7089,0.0314,0.7023,
2025-03-09 22:04:08.466,9.8900,0.4400,-0.0600,0.7500,9.0000,-1.9375,0.0581,-0.7084,0.0314,0.7027,
2025-03-09 22:04:08.480,9.9000,0.4700,-0.1500,1.1875,9.0000,-2.3125,0.0583,-0.7078,0.0314,0.7033,
2025-03-09 22:04:08.487,9.9200,0.4500,-0.2000,0.8750,10.0000,-1.8750,0.0585,-0.7073,0.0314,0.7038,
2025-03-09 22:04:08.497,9.9200,0.4200,-0.1500,1.3750,12.0000,-0.9375,0.0586,-0.7067,0.0314,0.7044,
2025-03-09 22:04:08.507,9.9200,0.3400,-0.1200,1.5000,14.5000,-0.3750,0.0587,-0.7059,0.0314,0.7051,
2025-03-09 22:04:08.517,9.9000,0.3500,-0.0700,2.5000,16.6875,-0.4375,0.0588,-0.7051,0.0316,0.7060,
2025-03-09 22:04:08.526,9.8900,0.3200,0.1000,3.3750,19.1250,-1.2500,0.0589,-0.7041,0.0319,0.7069,
2025-03-09 22:04:08.540,9.8000,0.1700,0.1500,2.8125,20.0000,-1.7500,0.0591,-0.7029,0.0320,0.7081,
2025-03-09 22:04:08.547,9.8900,0.5000,-0.0600,2.8750,21.0000,0.6875,0.0593,-0.7017,0.0322,0.7092,
2025-03-09 22:04:08.557,9.9700,0.3100,0.0400,3.3750,22.8750,1.1875,0.0594,-0.7005,0.0325,0.7104,
2025-03-09 22:04:08.570,9.9200,0.3500,0.1600,3.9375,25.7500,1.1875,0.0594,-0.6992,0.0330,0.7117,
2025-03-09 22:04:08.578,9.9100,0.4000,0.1500,4.1875,28.1875,0.4375,0.0596,-0.6976,0.0334,0.7133,
2025-03-09 22:04:08.592,9.9200,0.3000,0.4400,2.8750,29.3125,-0.2500,0.0598,-0.6959,0.0338,0.7149,
2025-03-09 22:04:08.608,9.9000,0.2500,0.6700,-1.8750,27.1250,-1.7500,0.0598,-0.6941,0.0341,0.7166,
2025-03-09 22:04:08.609,9.9000,-0.3600,0.6900,-1.8750,27.1250,-1.7500,0.0598,-0.6924,0.0340,0.7182,
2025-03-09 22:04:08.619,9.7500,-0.1300,1.0200,-8.5000,23.3125,9.8750,0.0596,-0.6908,0.0339,0.7198,
2025-03-09 22:04:08.631,9.6800,0.5600,0.5000,-6.6875,26.3750,14.3125,0.0585,-0.6895,0.0342,0.7211,
2025-03-09 22:04:08.638,9.7500,0.9100,0.2100,-1.4375,27.1250,10.7500,0.0572,-0.6879,0.0348,0.7227,
2025-03-09 22:04:08.650,9.9200,1.2600,-0.1600,2.2500,24.8750,2.0625,0.0563,-0.6863,0.0355,0.7242,
2025-03-09 22:04:08.662,10.0400,0.1400,0.7500,0.1250,25.1875,0.9375,0.0563,-0.6848,0.0358,0.7257,
2025-03-09 22:04:08.667,9.9500,0.2300,0.9000,0.1250,25.1875,0.9375,0.0562,-0.6833,0.0360,0.7271,
2025-03-09 22:04:08.678,9.8400,0.2300,1.1900,-2.5000,24.0625,9.3750,0.0560,-0.6817,0.0362,0.7286,
2025-03-09 22:04:08.691,9.7200,0.2900,1.5900,-1.3750,24.3750,9.6875,0.0553,-0.6803,0.0367,0.7299,
2025-03-09 22:04:08.697,9.7000,0.3400,1.7300,0.0625,30.1875,8.9375,0.0546,-0.6788,0.0374,0.7313,
2025-03-09 22:04:08.710,9.6700,0.3100,1.7400,1.9375,37.6250,6.5625,0.0540,-0.6770,0.0381,0.7330,
2025-03-09 22:04:08.720,9.5400,0.6400,1.3800,2.6875,40.3125,5.0625,0.0536,-0.6747,0.0388,0.7351,
2025-03-09 22:04:08.729,9.8300,0.3200,0.9700,6.7500,40.1250,2.1250,0.0533,-0.6722,0.0394,0.7374,
2025-03-09 22:04:08.758,10.0600,0.0700,0.8500,6.4375,37.8750,0.0625,0.0535,-0.6697,0.0401,0.7396,
2025-03-09 22:04:08.759,10.0300,0.0400,0.9400,4.5000,35.8125,0.1250,0.0538,-0.6673,0.0406,0.7417,
2025-03-09 22:04:08.760,9.8400,0.4000,1.4100,1.8750,38.7500,0.5625,0.0539,-0.6650,0.0411,0.7437,
2025-03-09 22:04:08.768,9.6700,0.3700,1.6300,-3.0625,43.0625,-1.0625,0.0539,-0.6626,0.0414,0.7459,
2025-03-09 22:04:08.783,9.6400,0.0900,1.8300,-2.7500,45.6250,-2.8750,0.0536,-0.6598,0.0413,0.7483,
2025-03-09 22:04:08.787,9.8100,0.1100,2.1300,2.0000,51.0000,-1.7500,0.0535,-0.6570,0.0412,0.7509,
2025-03-09 22:04:08.800,9.7900,0.0800,1.9600,8.0625,55.6875,-0.5000,0.0535,-0.6537,0.0414,0.7537,
2025-03-09 22:04:08.812,9.5600,0.5300,1.5500,14.6875,58.3750,0.2500,0.0538,-0.6501,0.0421,0.7567,
2025-03-09 22:04:08.817,9.7400,0.4600,1.1800,18.0625,58.8125,-2.2500,0.0546,-0.6463,0.0432,0.7599,
2025-03-09 22:04:08.828,9.5100,0.6700,1.1200,23.4375,57.5000,-6.1250,0.0556,-0.6425,0.0443,0.7630,
2025-03-09 22:04:08.840,9.5500,0.2100,0.6600,25.6875,53.0625,-8.3750,0.0573,-0.6386,0.0454,0.7661,
2025-03-09 22:04:08.847,10.0200,-0.2200,1.5700,25.4375,44.1250,-8.1875,0.0591,-0.6351,0.0466,0.7688,
2025-03-09 22:04:08.858,9.8600,-0.1600,1.5900,29.6250,37.7500,-3.8750,0.0611,-0.6320,0.0476,0.7711,
2025-03-09 22:04:08.870,9.8800,0.2200,2.2400,30.4375,36.9375,-1.1875,0.0630,-0.6294,0.0491,0.7729,
2025-03-09 22:04:08.878,9.9000,0.4000,2.9000,30.0000,32.9375,2.8125,0.0649,-0.6269,0.0508,0.7747,
2025-03-09 22:04:08.888,10.0900,0.5300,3.3000,33.8750,39.7500,2.0000,0.0666,-0.6246,0.0528,0.7763,
2025-03-09 22:04:08.915,10.0100,0.2900,2.5200,36.6250,43.1875,2.4375,0.0686,-0.6219,0.0549,0.7782,
2025-03-09 22:04:08.918,10.1100,0.0100,2.5700,37.2500,49.0000,1.4375,0.0707,-0.6188,0.0573,0.7802,
2025-03-09 22:04:08.918,9.9800,0.2100,1.9200,37.7500,46.6875,5.6250,0.0728,-0.6154,0.0596,0.7826,
2025-03-09 22:04:08.938,9.9200,0.4400,2.5300,28.9375,43.5625,5.8750,0.0748,-0.6122,0.0623,0.7847,
2025-03-09 22:04:08.939,10.1000,0.0700,2.9800,25.3750,40.8125,7.0625,0.0761,-0.6092,0.0644,0.7867,
2025-03-09 22:04:08.961,9.7700,0.4400,3.0200,25.4375,41.5000,9.7500,0.0773,-0.6064,0.0665,0.7886,
2025-03-09 22:04:08.963,10.0900,0.2800,3.1400,21.8750,49.6250,7.3125,0.0782,-0.6035,0.0687,0.7905,
2025-03-09 22:04:08.968,9.8000,0.2500,2.3900,17.5625,44.8125,11.0625,0.0790,-0.6001,0.0706,0.7929,
2025-03-09 22:04:08.979,9.6600,0.6400,3.0900,11.8750,42.1875,12.1875,0.0793,-0.5971,0.0726,0.7949,
2025-03-09 22:04:08.988,9.5200,0.7000,3.3800,13.5625,45.8125,9.4375,0.0793,-0.5942,0.0743,0.7969,
2025-03-09 22:04:09.001,9.6700,0.6700,3.7600,20.1250,55.1875,5.3750,0.0794,-0.5911,0.0759,0.7991,
2025-03-09 22:04:09.008,9.4500,0.7100,3.0200,22.1875,56.3125,5.5625,0.0801,-0.5873,0.0776,0.8016,
2025-03-09 22:04:09.018,9.5400,0.5000,3.3900,17.6250,53.7500,5.1875,0.0810,-0.5834,0.0795,0.8042,
2025-03-09 22:04:09.030,9.4700,0.4400,3.3700,17.1250,57.0625,4.3125,0.0816,-0.5797,0.0811,0.8067,
2025-03-09 22:04:09.039,9.8400,0.0900,3.9000,20.2500,63.4375,2.6875,0.0822,-0.5757,0.0826,0.8093,
2025-03-09 22:04:09.050,9.5100,0.0600,3.5000,22.8750,58.3125,8.8750,0.0829,-0.5712,0.0842,0.8123,
2025-03-09 22:04:09.059,9.4600,0.2200,3.6500,23.1875,56.6250,11.3750,0.0837,-0.5671,0.0864,0.8148,
2025-03-09 22:04:09.068,9.2100,0.4400,3.2600,24.4375,58.0625,11.2500,0.0843,-0.5631,0.0886,0.8173,
2025-03-09 22:04:09.080,9.1300,0.2900,3.2300,17.8750,54.6250,11.3125,0.0851,-0.5590,0.0910,0.8198,
2025-03-09 22:04:09.089,9.1300,0.3700,3.3600,8.6875,49.1250,13.3750,0.0853,-0.5551,0.0930,0.8221,
2025-03-09 22:04:09.097,9.1600,0.4000,3.5800,0.6250,44.6875,15.9375,0.0849,-0.5517,0.0947,0.8243,
2025-03-09 22:04:09.112,9.0500,0.6400,3.5600,-4.7500,43.4375,17.2500,0.0839,-0.5487,0.0962,0.8262,
2025-03-09 22:04:09.121,9.0000,0.7000,3.9400,-13.2500,41.3750,15.3125,0.0824,-0.5458,0.0975,0.8281,
2025-03-09 22:04:09.128,8.9700,0.5000,4.1000,-14.5000,42.8125,11.1250,0.0804,-0.5432,0.0982,0.8300,
2025-03-09 22:04:09.140,9.0300,0.1200,4.1200,-14.5000,45.2500,9.0625,0.0785,-0.5403,0.0986,0.8320,
2025-03-09 22:04:09.149,9.0900,-0.0800,4.4700,-14.6875,45.5625,10.2500,0.0767,-0.5373,0.0989,0.8340,
2025-03-09 22:04:09.159,8.9600,0.1200,4.4200,-8.0625,49.1875,11.6250,0.0748,-0.5343,0.0992,0.8361,
2025-03-09 22:04:09.169,8.8300,0.3800,4.1100,-0.2500,53.5625,11.1875,0.0733,-0.5310,0.1000,0.8382,
2025-03-09 22:04:09.206,8.6500,0.6700,4.1900,4.3750,54.0000,8.5000,0.0723,-0.5272,0.1011,0.8406,
2025-03-09 22:04:09.209,8.5000,0.6000,4.3300,2.0000,55.0000,5.1250,0.0718,-0.5234,0.1023,0.8428,
2025-03-09 22:04:09.209,8.5900,0.4300,4.8900,-3.5000,54.7500,3.0625,0.0713,-0.5195,0.1030,0.8452,
2025-03-09 22:04:09.209,8.6600,0.2800,5.1200,-6.3125,57.1250,1.1875,0.0704,-0.5156,0.1035,0.8476,
2025-03-09 22:04:09.219,8.6300,0.1700,5.0200,-5.5000,60.5000,0.8125,0.0694,-0.5116,0.1036,0.8501,
2025-03-09 22:04:09.230,8.3900,0.4500,4.1400,-4.3750,61.9375,1.3750,0.0684,-0.5073,0.1038,0.8528,
2025-03-09 22:04:09.239,8.3700,0.3500,4.1300,-7.0000,59.1875,0.6875,0.0675,-0.5029,0.1041,0.8554,
2025-03-09 22:04:09.260,8.5600,-0.3700,4.6800,-6.3125,51.3125,1.0000,0.0655,-0.4947,0.1041,0.8603,
2025-03-09 22:04:09.270,8.4000,-0.2400,4.7200,-7.8750,47.8750,3.5625,0.0645,-0.4910,0.1042,0.8625,
2025-03-09 22:04:09.291,8.2500,0.0000,4.8700,-9.3750,46.0000,5.8750,0.0634,-0.4876,0.1044,0.8645,
2025-03-09 22:04:09.298,8.0600,0.3100,5.1900,-9.4375,43.0625,4.8750,0.0607,-0.4812,0.1050,0.8682,
2025-03-09 22:04:09.310,8.0300,0.2400,5.4100,-10.8750,43.2500,1.8750,0.0594,-0.4781,0.1052,0.8699,
2025-03-09 22:04:09.330,8.2100,0.0100,5.7500,-9.4375,48.0000,-0.7500,0.0569,-0.4719,0.1049,0.8735,
2025-03-09 22:04:09.348,8.2900,-0.2400,5.7600,-9.5000,50.8750,0.3125,0.0546,-0.4648,0.1046,0.8775,
2025-03-09 22:04:09.359,8.1800,-0.1700,5.5800,-10.1250,52.0625,1.5000,0.0535,-0.4612,0.1044,0.8795,
2025-03-09 22:04:09.380,7.8600,0.0500,5.4100,-6.5000,49.5625,2.0000,0.0510,-0.4537,0.1044,0.8836,
2025-03-09 22:04:09.398,7.9100,-0.0500,6.6900,-5.8125,50.0000,0.8125,0.0490,-0.4465,0.1045,0.8873,
2025-03-09 22:04:09.411,7.8900,0.0200,6.4800,-1.8125,55.5000,0.8750,0.0480,-0.4428,0.1046,0.8892,
2025-03-09 22:04:09.429,7.7100,-0.0400,6.6000,2.7500,64.1875,-1.8750,0.0467,-0.4342,0.1049,0.8935,
2025-03-09 22:04:09.449,7.6400,-0.4100,5.8000,8.1250,65.5000,-2.1250,0.0464,-0.4242,0.1055,0.8982,
2025-03-09 22:04:09.459,7.6300,-0.3400,5.9900,5.8750,60.6875,0.5000,0.0466,-0.4191,0.1058,0.9005,
2025-03-09 22:04:09.479,7.4500,-0.2800,6.7200,-2.8125,55.3125,2.8125,0.0460,-0.4101,0.1068,0.9046,
2025-03-09 22:04:09.504,7.3300,-0.1600,6.9200,-5.0625,55.2500,4.3125,0.0441,-0.4017,0.1074,0.9084,
2025-03-09 22:04:09.513,7.2500,-0.1000,7.1100,-2.8750,60.3750,4.3750,0.0429,-0.3975,0.1078,0.9102,
2025-03-09 22:04:09.537,7.0200,-0.1000,6.4700,-3.2500,59.2500,4.5625,0.0413,-0.3879,0.1088,0.9143,
2025-03-09 22:04:09.548,6.9700,0.1100,6.7200,5.9375,58.1875,3.6875,0.0395,-0.3788,0.1096,0.9181,
2025-03-09 22:04:09.560,6.7700,0.2200,6.9200,14.3125,53.5000,2.6250,0.0393,-0.3743,0.1103,0.9199,
2025-03-09 22:04:09.579,6.4600,-0.1500,6.4000,16.1250,54.5000,-3.7500,0.0406,-0.3655,0.1117,0.9232,
2025-03-09 22:04:09.596,6.4900,-0.2100,7.1200,9.9375,44.3125,-1.4375,0.0419,-0.3575,0.1124,0.9262,
2025-03-09 22:04:09.611,6.4300,-0.1700,7.1400,11.4375,43.7500,-0.0625,0.0423,-0.3541,0.1129,0.9274,
2025-03-09 22:04:09.631,6.6400,-0.3500,7.5200,-0.4375,37.4375,0.0000,0.0428,-0.3471,0.1137,0.9299,
2025-03-09 22:04:09.650,6.5400,-0.3500,7.6100,5.8750,38.1250,3.1250,0.0419,-0.3413,0.1140,0.9321,
2025-03-09 22:04:09.665,5.8400,0.1900,7.2000,14.1875,42.2500,2.0625,0.0420,-0.3383,0.1146,0.9331,
2025-03-09 22:04:09.682,5.7300,0.1600,7.3300,9.3750,42.6250,-2.8750,0.0434,-0.3312,0.1159,0.9354,
2025-03-09 22:04:09.698,6.0400,-0.4200,7.6600,-9.6250,32.7500,0.5000,0.0436,-0.3248,0.1161,0.9376,
2025-03-09 22:04:09.718,6.0700,-0.4800,7.7700,-12.4375,32.5625,5.2500,0.0425,-0.3223,0.1159,0.9386,
2025-03-09 22:04:09.734,5.5700,0.2300,7.5900,-15.8125,29.3750,12.0625,0.0394,-0.3175,0.1166,0.9402,
2025-03-09 22:04:09.767,5.4600,0.3400,7.8600,-13.4375,29.6875,11.5000,0.0359,-0.3132,0.1179,0.9417,
2025-03-09 22:04:09.769,5.3200,0.3700,8.0900,-3.6250,36.0625,2.6250,0.0347,-0.3107,0.1185,0.9424,
2025-03-09 22:04:09.769,5.5700,-0.0900,8.6200,5.6250,45.1250,0.5000,0.0339,-0.3079,0.1187,0.9434,
2025-03-09 22:04:09.790,5.6700,-0.1400,8.4000,12.6875,57.5625,-1.9375,0.0342,-0.2999,0.1193,0.9459,
2025-03-09 22:04:09.811,5.5100,0.1600,8.1200,25.6250,54.1875,-0.5000,0.0357,-0.2908,0.1202,0.9485,
2025-03-09 22:04:09.830,5.1900,-0.0500,8.0100,18.5000,41.7500,0.5625,0.0390,-0.2817,0.1218,0.9509,
2025-03-09 22:04:09.848,5.0600,0.0100,8.2900,4.3750,38.6250,-0.2500,0.0400,-0.2750,0.1227,0.9528,
2025-03-09 22:04:09.862,5.1000,0.1000,8.6000,-4.6875,35.4375,-0.1250,0.0395,-0.2722,0.1227,0.9536,
2025-03-09 22:04:09.890,5.0300,0.0100,8.2300,4.5000,39.6250,-1.0625,0.0383,-0.2663,0.1227,0.9553,
2025-03-09 22:04:09.898,5.1700,-0.2300,8.0900,8.5625,42.3750,-2.7500,0.0386,-0.2595,0.1230,0.9571,
2025-03-09 22:04:09.909,4.9800,0.1300,9.1600,-2.1875,34.3125,-3.1875,0.0385,-0.2568,0.1231,0.9578,
2025-03-09 22:04:09.931,4.8700,0.3200,8.5400,3.1250,38.1875,-4.3750,0.0378,-0.2510,0.1227,0.9594,
2025-03-09 22:04:09.952,4.8900,-0.1000,8.0800,15.1250,38.6250,-6.1250,0.0387,-0.2446,0.1225,0.9611,
2025-03-09 22:04:09.961,4.8900,-0.1300,7.7200,13.4375,22.1250,-1.4375,0.0402,-0.2411,0.1226,0.9619,
2025-03-09 22:04:09.980,4.6700,-0.1400,8.5000,-5.9375,18.8125,-0.8125,0.0413,-0.2376,0.1227,0.9627,
2025-03-09 22:04:09.998,4.6000,0.0400,9.1100,-15.8125,15.5625,2.0625,0.0391,-0.2350,0.1225,0.9634,
2025-03-09 22:04:10.010,4.6400,-0.0200,9.1700,-6.8125,28.2500,-0.7500,0.0377,-0.2337,0.1225,0.9638,
2025-03-09 22:04:10.029,4.5200,0.1100,8.7900,-6.8125,47.2500,-10.7500,0.0361,-0.2281,0.1216,0.9653,
2025-03-09 22:04:10.048,4.0300,0.4100,7.9100,3.5000,48.6875,-7.5000,0.0352,-0.2203,0.1204,0.9673,
2025-03-09 22:04:10.059,4.3600,-0.0800,8.9000,14.9375,41.3125,-4.9375,0.0353,-0.2170,0.1203,0.9681,
2025-03-09 22:04:10.080,4.1500,0.1000,9.4700,37.2500,39.4375,0.0000,0.0385,-0.2100,0.1207,0.9694,
2025-03-09 22:04:10.105,3.9400,0.2700,9.5400,39.1250,44.3125,-0.7500,0.0439,-0.2024,0.1223,0.9706,
2025-03-09 22:04:10.110,3.7700,0.6500,8.6800,24.6250,43.6875,-0.3125,0.0466,-0.1983,0.1232,0.9712,
2025-03-09 22:04:10.130,3.7000,0.4200,8.4900,10.3750,31.1875,3.5625,0.0486,-0.1918,0.1244,0.9723,
2025-03-09 22:04:10.147,3.9000,0.2700,9.0000,-0.0625,31.4375,0.2500,0.0480,-0.1872,0.1251,0.9731,
2025-03-09 22:04:10.161,3.2700,0.5900,8.7300,-2.6875,30.8125,-0.4375,0.0475,-0.1847,0.1251,0.9736,
2025-03-09 22:04:10.175,3.4400,0.5700,9.1800,-10.8125,27.5625,-5.3125,0.0466,-0.1827,0.1251,0.9741,
2025-03-09 22:04:10.198,3.3100,0.4000,9.0900,-10.4375,17.1875,-1.1250,0.0441,-0.1793,0.1242,0.9749,
2025-03-09 22:04:10.220,2.9200,0.6500,9.5600,16.9375,32.7500,-11.3125,0.0426,-0.1760,0.1240,0.9756,
2025-03-09 22:04:10.230,3.0000,0.2900,7.7700,17.1875,36.0000,-13.1250,0.0450,-0.1699,0.1227,0.9768,
2025-03-09 22:04:10.249,3.1500,0.3100,8.8300,-10.1250,21.0000,-0.5000,0.0445,-0.1657,0.1226,0.9775,
2025-03-09 22:04:10.260,2.1600,0.7800,8.8900,-11.1250,20.4375,-2.6250,0.0434,-0.1641,0.1223,0.9779,
2025-03-09 22:04:10.280,3.1200,0.0400,9.1600,-13.8750,26.5625,-3.8750,0.0411,-0.1605,0.1205,0.9788,
2025-03-09 22:04:10.298,2.9000,0.3700,9.2600,4.6250,29.5625,-0.0625,0.0404,-0.1556,0.1208,0.9796,
2025-03-09 22:04:10.310,2.8400,0.3500,9.0900,12.3125,28.1875,-0.3125,0.0411,-0.1531,0.1210,0.9799,
2025-03-09 22:04:10.332,3.6500,-0.3900,10.3200,14.7500,25.5000,-9.7500,0.0433,-0.1481,0.1206,0.9806,
2025-03-09 22:04:10.354,2.9300,0.4200,9.6700,8.6250,22.0625,-2.1875,0.0452,-0.1439,0.1206,0.9812,
2025-03-09 22:04:10.360,2.8200,0.5300,9.6000,5.4375,22.5625,-1.3750,0.0455,-0.1420,0.1207,0.9814,
2025-03-09 22:04:10.379,2.7600,0.3600,9.3200,2.5000,23.4375,-1.7500,0.0457,-0.1380,0.1207,0.9820,
2025-03-09 22:04:10.407,2.6300,0.4400,9.5500,-1.3125,19.0625,-0.5000,0.0452,-0.1345,0.1207,0.9825,
2025-03-09 22:04:10.410,2.6300,0.5700,10.1200,-4.0625,17.0625,2.1875,0.0447,-0.1332,0.1209,0.9827,
2025-03-09 22:04:10.430,2.5600,0.9600,9.4900,16.2500,37.4375,-5.1875,0.0452,-0.1279,0.1210,0.9833,
2025-03-09 22:04:10.446,2.5200,0.3200,9.5200,8.8750,32.5000,-3.0625,0.0463,-0.1216,0.1207,0.9841,
2025-03-09 22:04:10.459,2.2800,0.4100,9.1100,2.8125,30.7500,-1.9375,0.0462,-0.1190,0.1207,0.9844,
2025-03-09 22:04:10.482,2.8900,-0.2700,10.3200,11.8125,36.4375,-5.8750,0.0468,-0.1132,0.1204,0.9851,
2025-03-09 22:04:10.498,2.2200,0.6000,9.3100,12.3750,25.1875,-1.8125,0.0478,-0.1079,0.1203,0.9857,
2025-03-09 22:04:10.509,2.0400,0.7900,9.6100,4.6250,21.5000,-1.5000,0.0479,-0.1061,0.1203,0.9859,
2025-03-09 22:04:10.528,2.0800,0.6400,10.0400,5.8750,26.1250,-3.5625,0.0486,-0.1017,0.1202,0.9863,
2025-03-09 22:04:10.538,2.0000,0.5500,9.9200,8.3750,32.1250,-3.5625,0.0490,-0.0990,0.1201,0.9866,
2025-03-09 22:04:10.559,1.7600,0.9100,10.0900,19.2500,37.8125,-2.1250,0.0510,-0.0924,0.1203,0.9871,
2025-03-09 22:04:10.581,1.9200,0.6800,9.9700,28.6250,49.3125,-1.9375,0.0546,-0.0843,0.1207,0.9876,
2025-03-09 22:04:10.597,1.7700,0.6500,9.4000,16.0625,45.9375,1.1875,0.0568,-0.0756,0.1215,0.9881,
2025-03-09 22:04:10.610,1.6000,0.7000,9.3500,10.3125,42.8750,2.1250,0.0572,-0.0719,0.1219,0.9883,
2025-03-09 22:04:10.631,1.3700,0.4700,9.5700,29.7500,50.5625,-2.9375,0.0599,-0.0636,0.1224,0.9886,
2025-03-09 22:04:10.639,1.1900,1.0300,9.2700,30.0625,50.6250,-2.2500,0.0619,-0.0591,0.1227,0.9888,
2025-03-09 22:04:10.659,1.0800,1.1100,9.9100,24.4375,47.6250,-3.5000,0.0659,-0.0508,0.1230,0.9889,
2025-03-09 22:04:10.670,1.0700,1.2300,10.0500,18.5625,47.5000,-3.8750,0.0670,-0.0466,0.1230,0.9890,
2025-03-09 22:04:10.679,1.0200,1.1700,9.6900,15.3125,49.8125,-4.9375,0.0677,-0.0422,0.1229,0.9892,
2025-03-09 22:04:10.688,0.9400,1.0300,9.4700,12.6250,50.7500,-5.9375,0.0683,-0.0378,0.1227,0.9894,
2025-03-09 22:04:10.706,0.8800,1.0000,9.4000,8.7500,49.1875,-5.6875,0.0685,-0.0336,0.1226,0.9895,
2025-03-09 22:04:10.708,0.8000,1.0500,9.1700,2.5000,45.2500,-4.3125,0.0683,-0.0298,0.1225,0.9897,
2025-03-09 22:04:10.734,0.7000,1.2300,10.8800,-22.0000,35.0000,-4.1875,0.0648,-0.0240,0.1221,0.9901,
2025-03-09 22:04:10.743,0.7400,1.3600,11.6200,-18.5000,39.7500,-2.6250,0.0629,-0.0208,0.1221,0.9903,
2025-03-09 22:04:10.748,0.6400,1.3500,11.0400,4.1875,53.6875,-3.1250,0.0627,-0.0162,0.1221,0.9904,
2025-03-09 22:04:10.763,0.3100,1.2300,10.0500,27.0000,75.6875,-8.3750,0.0641,-0.0096,0.1218,0.9904,
2025-03-09 22:04:10.768,0.0800,0.9300,8.4100,26.2500,91.3125,-16.0000,0.0654,-0.0016,0.1210,0.9905,
2025-03-09 22:04:10.779,0.1600,0.9100,8.7600,26.2500,71.7500,-15.1250,0.0669,0.0048,0.1201,0.9905,
2025-03-09 22:04:10.789,0.0700,0.9900,8.9800,16.8125,57.3750,-12.6250,0.0677,0.0098,0.1194,0.9905,
2025-03-09 22:04:10.797,-0.0800,1.0400,9.3900,9.3750,49.8125,-10.9375,0.0680,0.0141,0.1188,0.9905,
2025-03-09 22:04:10.810,-0.0600,1.1600,10.0000,0.4375,43.3750,-7.8125,0.0676,0.0178,0.1183,0.9905,
2025-03-09 22:04:10.819,-0.1000,1.0300,9.8200,-2.0000,42.3125,-6.6875,0.0670,0.0214,0.1180,0.9905,
2025-03-09 22:04:10.826,-0.2900,1.1100,9.4600,-0.0625,43.3125,-4.8750,0.0665,0.0250,0.1179,0.9905,
2025-03-09 22:04:10.837,-0.3800,1.1700,9.4700,-2.8125,42.0625,-3.2500,0.0659,0.0285,0.1178,0.9904,
2025-03-09 22:04:10.849,-0.5200,1.1300,9.3300,-6.0000,40.0000,-4.9375,0.0649,0.0319,0.1176,0.9904,
2025-03-09 22:04:10.856,-0.4000,1.0500,9.9100,-12.8750,38.7500,-6.3125,0.0635,0.0350,0.1174,0.9904,
2025-03-09 22:04:10.867,-0.4300,0.8300,9.4800,-9.9375,40.1875,-6.7500,0.0622,0.0383,0.1170,0.9904,
2025-03-09 22:04:10.878,-0.4300,0.7900,9.5600,-7.5000,42.6875,-4.6875,0.0612,0.0418,0.1169,0.9904,
2025-03-09 22:04:10.887,-0.5900,1.0300,9.8000,-11.5000,40.5000,-1.2500,0.0598,0.0451,0.1170,0.9903,
2025-03-09 22:04:10.896,-0.7700,1.1700,9.6600,-8.8125,41.4375,0.3750,0.0585,0.0484,0.1173,0.9902,
2025-03-09 22:04:10.910,-0.8800,1.2400,10.2500,-8.8125,41.1875,0.5625,0.0574,0.0518,0.1175,0.9901,
2025-03-09 22:04:10.918,-0.9700,1.0400,9.9000,-6.8750,42.0000,-1.0625,0.0564,0.0552,0.1177,0.9899,
2025-03-09 22:04:10.928,-1.0000,0.9900,9.7100,-7.6875,42.9375,-0.5000,0.0554,0.0587,0.1179,0.9897,
2025-03-09 22:04:10.940,-1.0100,1.0100,9.9300,-10.5000,42.3125,-0.6250,0.0540,0.0621,0.1181,0.9896,
2025-03-09 22:04:10.947,-0.9800,0.9300,9.7500,-8.3125,41.8750,-1.6875,0.0529,0.0656,0.1182,0.9894,
2025-03-09 22:04:10.968,-1.0600,0.9700,9.3000,-0.6250,43.4375,-1.6875,0.0524,0.0692,0.1182,0.9892,
2025-03-09 22:04:10.968,-1.1000,0.9800,9.3200,0.3125,43.0625,-1.6250,0.0519,0.0728,0.1183,0.9889,
2025-03-09 22:04:10.978,-1.3400,0.8800,9.0400,-0.3750,41.1875,-2.1875,0.0515,0.0763,0.1183,0.9887,
2025-03-09 22:04:10.987,-1.3800,0.9400,9.5400,-1.5625,38.8750,-2.4375,0.0510,0.0795,0.1183,0.9885,
2025-03-09 22:04:11.004,-1.6000,1.1900,9.9500,-1.0625,37.3750,-2.3750,0.0505,0.0826,0.1182,0.9883,
2025-03-09 22:04:11.009,-1.5700,0.9400,9.9100,5.1875,39.5000,-3.6250,0.0505,0.0860,0.1180,0.9880,
2025-03-09 22:04:11.017,-1.5600,0.9400,9.9500,5.0625,40.8125,-4.4375,0.0505,0.0895,0.1178,0.9877,
2025-03-09 22:04:11.035,-1.6200,0.9800,9.6900,1.8750,43.5625,-4.1250,0.0502,0.0931,0.1176,0.9874,
2025-03-09 22:04:11.041,-1.6100,1.0000,9.3600,0.5000,45.6250,-3.4375,0.0497,0.0970,0.1176,0.9871,
2025-03-09 22:04:11.049,-1.6900,0.9000,8.8900,2.1875,45.1875,-3.0000,0.0494,0.1008,0.1174,0.9867,
2025-03-09 22:04:11.070,-1.8300,0.9200,8.9600,4.9375,42.6250,-2.8750,0.0494,0.1044,0.1174,0.9863,
2025-03-09 22:04:11.071,-2.0000,0.9800,9.0200,8.5000,39.9375,-2.1875,0.0494,0.1044,0.1174,0.9863,
2025-03-09 22:04:11.077,-2.1000,0.9100,9.0500,5.9375,38.1250,-1.0625,0.0497,0.1079,0.1173,0.9860,
2025-03-09 22:04:11.092,-2.0900,0.7800,9.5100,-7.6250,34.8750,2.7500,0.0498,0.1111,0.1173,0.9856,
2025-03-09 22:04:11.096,-2.1500,0.9700,9.5900,-18.1250,34.6875,4.3125,0.0489,0.1139,0.1177,0.9853,
2025-03-09 22:04:11.112,-2.2200,1.1800,9.6000,-6.3750,38.6250,2.0625,0.0471,0.1166,0.1184,0.9850,
2025-03-09 22:04:11.118,-2.2900,1.0000,9.8100,-0.5000,38.6250,0.2500,0.0461,0.1197,0.1188,0.9846,
2025-03-09 22:04:11.127,-2.2600,0.9100,9.5300,4.0625,44.0625,-1.0625,0.0458,0.1229,0.1190,0.9842,
2025-03-09 22:04:11.138,-3.3500,1.2600,9.3800,10.0625,50.9375,-0.6875,0.0457,0.1267,0.1190,0.9837,
2025-03-09 22:04:11.153,-1.9100,1.4800,10.0400,22.6250,60.8750,-3.1875,0.0460,0.1310,0.1190,0.9831,
2025-03-09 22:04:11.189,-2.9400,1.0600,7.8700,-8.0000,52.8750,1.5625,0.0472,0.1363,0.1187,0.9824,
2025-03-09 22:04:11.189,-2.5200,1.0800,9.7500,13.3125,39.9375,-0.6250,0.0460,0.1406,0.1191,0.9818,
2025-03-09 22:04:11.189,-2.8600,1.0500,9.2300,3.6875,36.1875,-3.3750,0.0467,0.1440,0.1191,0.9813,
2025-03-09 22:04:11.189,-2.8000,1.0700,9.6300,4.1250,35.2500,-2.8125,0.0466,0.1471,0.1189,0.9808,
2025-03-09 22:04:11.197,-2.9100,1.2000,9.4900,9.0625,36.8125,-2.1250,0.0466,0.1501,0.1188,0.9804,
2025-03-09 22:04:11.210,-2.9200,1.2200,9.6700,12.8125,36.5000,-2.3125,0.0469,0.1532,0.1187,0.9799,
2025-03-09 22:04:11.224,-2.9700,1.1300,9.8800,15.1875,34.5000,-2.5625,0.0476,0.1564,0.1184,0.9794,
2025-03-09 22:04:11.228,-2.9100,0.9100,9.9800,17.6875,36.5625,-2.7500,0.0485,0.1594,0.1181,0.9789,
2025-03-09 22:04:11.239,-2.8800,0.8600,9.7300,17.6875,39.6250,-1.0625,0.0496,0.1626,0.1178,0.9784,
2025-03-09 22:04:11.254,-3.0400,1.1400,9.1800,18.4375,42.3125,1.8750,0.0506,0.1661,0.1176,0.9778,
2025-03-09 22:04:11.257,-3.1200,1.1300,8.5900,14.0625,41.6250,1.8750,0.0517,0.1697,0.1177,0.9771,
2025-03-09 22:04:11.273,-3.2500,1.2200,8.4900,7.1875,38.5625,0.8750,0.0525,0.1733,0.1179,0.9764,
2025-03-09 22:04:11.277,-3.2500,1.1100,8.8900,1.5625,33.6875,-0.3750,0.0527,0.1765,0.1180,0.9758,
2025-03-09 22:04:11.288,-3.2300,1.0200,9.1100,-0.6250,31.4375,-1.2500,0.0525,0.1793,0.1181,0.9753,
2025-03-09 22:04:11.305,-3.4600,1.3400,9.0600,0.3125,32.6250,-0.1250,0.0521,0.1819,0.1182,0.9748,
2025-03-09 22:04:11.308,-3.4400,1.2300,9.3000,-1.1875,33.5625,-0.8125,0.0518,0.1846,0.1183,0.9743,
2025-03-09 22:04:11.318,-3.4800,1.2300,8.9800,-1.3750,35.1250,-2.1250,0.0513,0.1874,0.1184,0.9738,
2025-03-09 22:04:11.337,-3.4600,1.1000,8.7600,2.4375,36.3125,-1.7500,0.0504,0.1932,0.1184,0.9727,
2025-03-09 22:04:11.347,-3.4900,1.1500,8.8700,7.0000,39.0000,-1.1250,0.0500,0.1961,0.1183,0.9721,
2025-03-09 22:04:11.358,-3.4600,1.0500,9.0900,8.4375,39.0000,-1.1250,0.0501,0.1993,0.1183,0.9715,
2025-03-09 22:04:11.368,-3.6500,1.1700,8.8400,9.5000,41.4375,-0.6875,0.0502,0.2023,0.1182,0.9709,
2025-03-09 22:04:11.377,-3.6900,1.1900,9.1200,10.0625,41.3125,0.5625,0.0506,0.2059,0.1182,0.9701,
2025-03-09 22:04:11.390,-3.6600,1.0700,8.8400,11.1875,42.0625,0.9375,0.0510,0.2093,0.1182,0.9693,
2025-03-09 22:04:11.400,-3.8000,1.2500,8.8700,11.6250,42.8125,1.8125,0.0515,0.2129,0.1182,0.9685,
2025-03-09 22:04:11.408,-3.9100,1.3500,8.9100,8.8750,41.5625,2.8125,0.0521,0.2165,0.1183,0.9677,
2025-03-09 22:04:11.420,-4.0500,1.4700,8.6500,7.3750,41.1250,3.1875,0.0524,0.2200,0.1186,0.9669,
2025-03-09 22:04:11.428,-4.0400,1.3800,8.7500,5.3750,40.8125,2.7500,0.0527,0.2234,0.1189,0.9660,
2025-03-09 22:04:11.438,-4.1100,1.2100,8.1100,5.0000,41.2500,1.8750,0.0527,0.2267,0.1192,0.9652,
2025-03-09 22:04:11.469,-4.1700,1.2900,8.2900,6.0625,42.2500,2.0625,0.0528,0.2302,0.1194,0.9643,
2025-03-09 22:04:11.470,-4.1100,1.1700,8.4400,5.6250,39.6250,1.8750,0.0529,0.2337,0.1197,0.9635,
2025-03-09 22:04:11.470,-4.1700,0.9800,8.1400,2.9375,39.5625,1.5000,0.0530,0.2369,0.1199,0.9626,
2025-03-09 22:04:11.480,-4.4500,1.5000,8.8700,-20.6250,33.8750,6.3125,0.0529,0.2402,0.1202,0.9618,
2025-03-09 22:04:11.487,-4.6100,1.4500,8.1300,-31.0000,37.3750,6.8125,0.0510,0.2427,0.1213,0.9611,
2025-03-09 22:04:11.497,-4.5800,1.5000,8.6900,-5.3125,36.0625,0.9375,0.0482,0.2454,0.1226,0.9604,
2025-03-09 22:04:11.510,-4.5100,1.3000,8.5400,1.5625,35.8750,-0.9375,0.0474,0.2482,0.1229,0.9597,
2025-03-09 22:04:11.517,-4.6000,1.2300,8.2300,3.0625,38.2500,-2.6875,0.0472,0.2512,0.1230,0.9589,
2025-03-09 22:04:11.528,-4.6600,1.2800,8.0800,3.2500,40.1875,-2.9375,0.0469,0.2543,0.1229,0.9581,
2025-03-09 22:04:11.540,-4.7700,1.2800,7.8900,4.0000,39.8750,-2.6875,0.0468,0.2576,0.1227,0.9573,
2025-03-09 22:04:11.548,-4.8800,1.3900,7.8900,11.7500,40.3125,-2.4375,0.0466,0.2609,0.1226,0.9564,
2025-03-09 22:04:11.566,-4.9400,1.4000,8.2400,19.7500,39.3750,-2.4375,0.0471,0.2643,0.1223,0.9555,
2025-03-09 22:04:11.571,-4.9400,1.3800,8.0900,27.5625,39.4375,-2.5625,0.0482,0.2677,0.1218,0.9546,
2025-03-09 22:04:11.581,-5.0300,1.5000,8.3000,32.4375,39.7500,-2.1250,0.0500,0.2712,0.1211,0.9536,
2025-03-09 22:04:11.600,-5.0700,1.4700,8.3000,29.7500,36.6875,-2.5625,0.0521,0.2747,0.1204,0.9525,
2025-03-09 22:04:11.604,-5.1400,1.5100,8.2300,25.0625,35.1250,-2.7500,0.0541,0.2780,0.1196,0.9516,
2025-03-09 22:04:11.607,-5.1400,1.5000,8.3400,20.4375,33.1250,-2.6250,0.0557,0.2811,0.1190,0.9507,
2025-03-09 22:04:11.617,-5.1800,1.5500,8.0000,17.7500,33.1875,-2.9375,0.0568,0.2839,0.1183,0.9498,
2025-03-09 22:04:11.630,-5.1900,1.4900,8.1500,15.6250,31.8125,-3.6250,0.0578,0.2867,0.1179,0.9490,
2025-03-09 22:04:11.638,-5.1900,1.4600,8.0700,18.1875,31.7500,-5.0000,0.0585,0.2894,0.1173,0.9482,
2025-03-09 22:04:11.648,-5.2800,1.6600,8.0300,18.5625,32.3125,-5.6875,0.0594,0.2921,0.1166,0.9474,
2025-03-09 22:04:11.663,-5.4100,1.8300,8.0300,13.7500,30.8125,-6.0000,0.0604,0.2948,0.1158,0.9466,
2025-03-09 22:04:11.670,-5.3500,1.6200,8.1800,5.6250,27.6875,-7.0625,0.0610,0.2974,0.1151,0.9458,
2025-03-09 22:04:11.679,-5.3000,1.4500,8.3700,-0.1875,24.3750,-7.8750,0.0610,0.2997,0.1146,0.9452,
2025-03-09 22:04:11.689,-5.2900,1.3700,8.7900,-0.8750,24.7500,-7.8125,0.0604,0.3015,0.1140,0.9447,
2025-03-09 22:04:11.697,-5.4000,1.4700,8.5600,5.1875,31.8750,-6.6875,0.0599,0.3035,0.1136,0.9441,
2025-03-09 22:04:11.708,-5.3000,1.3000,8.7300,7.5000,38.6875,-6.1875,0.0598,0.3062,0.1130,0.9434,
2025-03-09 22:04:11.720,-5.4800,1.4500,7.8800,8.3750,45.1250,-5.5000,0.0599,0.3093,0.1125,0.9424,
2025-03-09 22:04:11.730,-5.5100,1.4700,7.8900,8.9375,49.1875,-3.5625,0.0600,0.3130,0.1121,0.9412,
2025-03-09 22:04:11.751,-5.5700,1.4300,7.4900,6.8750,46.3125,-3.5625,0.0601,0.3209,0.1116,0.9386,
2025-03-09 22:04:11.758,-5.7500,1.4900,7.3400,6.5000,44.0000,-3.1875,0.0601,0.3246,0.1114,0.9373,
2025-03-09 22:04:11.768,-5.7500,1.3900,7.2100,5.3125,42.0625,-4.3125,0.0601,0.3282,0.1111,0.9361,
2025-03-09 22:04:11.783,-5.7900,1.5100,7.1300,8.0000,40.0625,-3.6250,0.0601,0.3316,0.1109,0.9349,
2025-03-09 22:04:11.789,-5.7000,1.3200,7.2300,10.1875,39.4375,-3.4375,0.0602,0.3349,0.1106,0.9338,
2025-03-09 22:04:11.799,-5.6500,1.3000,6.4300,15.4375,42.7500,-3.9375,0.0605,0.3381,0.1102,0.9327,
2025-03-09 22:04:11.810,-5.7700,1.6300,6.0800,21.6875,45.4375,-2.3125,0.0612,0.3416,0.1097,0.9314,
2025-03-09 22:04:11.818,-5.8900,1.7400,6.1400,19.6250,40.4375,-2.1250,0.0624,0.3454,0.1091,0.9300,
2025-03-09 22:04:11.829,-5.9100,1.6600,6.3200,12.7500,32.7500,-5.0000,0.0636,0.3488,0.1086,0.9287,
2025-03-09 22:04:11.840,-5.9400,1.6200,7.3400,1.1250,24.3125,-7.1250,0.0641,0.3515,0.1080,0.9277,
2025-03-09 22:04:11.849,-5.9000,1.4400,7.4500,-8.0625,20.3125,-9.3125,0.0638,0.3535,0.1075,0.9271,
2025-03-09 22:04:11.858,-5.8000,1.2500,6.1500,-5.1250,26.5000,-9.5625,0.0627,0.3550,0.1071,0.9266,
2025-03-09 22:04:11.870,-5.8200,1.2500,5.9000,-1.0000,30.2500,-8.1250,0.0618,0.3571,0.1067,0.9259,
2025-03-09 22:04:11.879,-5.8700,1.2700,5.5600,0.5000,27.3750,-7.5625,0.0612,0.3595,0.1063,0.9251,
2025-03-09 22:04:11.887,-5.9100,1.3600,5.7300,-1.5000,19.7500,-7.5625,0.0607,0.3617,0.1058,0.9243,
2025-03-09 22:04:11.907,-5.9700,1.2400,6.5700,-8.1875,10.1250,-9.8125,0.0602,0.3633,0.1053,0.9237,
2025-03-09 22:04:11.918,-6.3300,1.2400,7.6500,-14.8750,5.4375,-12.6875,0.0577,0.3644,0.1043,0.9236,
2025-03-09 22:04:11.932,-6.4600,1.5400,7.9800,-9.0000,6.2500,-7.5625,0.0560,0.3648,0.1038,0.9236,
2025-03-09 22:04:11.942,-6.3100,1.4800,7.0100,-1.0625,10.0625,-2.5625,0.0551,0.3653,0.1035,0.9235,
2025-03-09 22:04:11.960,-6.3900,1.4000,7.0300,-5.1250,5.8125,-3.3750,0.0545,0.3669,0.1033,0.9229,
2025-03-09 22:04:11.970,-6.4200,1.3700,7.3300,-4.5000,0.3750,-3.2500,0.0540,0.3673,0.1032,0.9228,
2025-03-09 22:04:11.977,-6.4000,1.2600,7.8500,-5.7500,-4.4375,-3.1875,0.0535,0.3672,0.1031,0.9228,
2025-03-09 22:04:11.991,-6.3600,1.2200,7.8600,-6.3750,-4.3750,-2.3750,0.0530,0.3669,0.1030,0.9230,
2025-03-09 22:04:11.998,-6.3700,1.4400,7.3900,-1.4375,0.6875,1.0625,0.0524,0.3665,0.1030,0.9232,
2025-03-09 22:04:12.020,-6.5900,1.6400,7.3200,-7.6250,0.8125,2.1875,0.0524,0.3667,0.1035,0.9231,
2025-03-09 22:04:12.039,-6.3700,1.2200,7.4000,-12.2500,-3.6875,-0.8750,0.0510,0.3666,0.1042,0.9231,
2025-03-09 22:04:12.058,-6.4500,1.4200,7.2200,-8.7500,-4.6875,2.5000,0.0491,0.3658,0.1048,0.9235,
2025-03-09 22:04:12.073,-6.4200,1.3600,7.3800,-8.7500,-4.6875,2.5000,0.0486,0.3653,0.1052,0.9236,
2025-03-09 22:04:12.094,-6.4400,1.4200,7.3400,-7.1875,0.0625,3.1875,0.0474,0.3645,0.1061,0.9239,
2025-03-09 22:04:12.111,-6.3600,1.2400,7.5100,-5.7500,6.6875,2.4375,0.0463,0.3643,0.1069,0.9240,
2025-03-09 22:04:12.119,-6.5000,1.4900,7.1600,-5.7500,6.6875,2.4375,0.0458,0.3647,0.1072,0.9238,
2025-03-09 22:04:12.140,-6.6100,1.5800,7.0000,-9.5625,3.1250,-2.0000,0.0446,0.3655,0.1079,0.9235,
2025-03-09 22:04:12.157,-6.5300,1.2900,7.6100,-5.0000,10.6875,-2.0000,0.0430,0.3661,0.1081,0.9233,
2025-03-09 22:04:12.174,-6.5800,1.3500,7.5000,-2.8750,14.3750,-1.6875,0.0425,0.3669,0.1082,0.9230,
2025-03-09 22:04:12.189,-6.6900,1.3900,7.4900,6.0000,20.5625,-0.7500,0.0419,0.3694,0.1081,0.9220,
2025-03-09 22:04:12.208,-6.6600,1.2900,7.6700,3.7500,31.1875,2.1875,0.0427,0.3732,0.1077,0.9205,
2025-03-09 22:04:12.219,-6.7400,1.4800,6.7300,0.1250,34.6250,0.8750,0.0426,0.3755,0.1078,0.9196,
2025-03-09 22:04:12.239,-6.5900,1.2400,6.6500,13.8750,25.8750,-0.5625,0.0428,0.3807,0.1077,0.9174,
2025-03-09 22:04:12.260,-6.6500,1.2500,7.0800,24.2500,29.6250,0.7500,0.0449,0.3849,0.1068,0.9157,
2025-03-09 22:04:12.269,-6.6400,1.1900,7.3300,25.9375,35.2500,0.7500,0.0465,0.3874,0.1062,0.9146,
2025-03-09 22:04:12.290,-6.6600,1.3500,6.2900,22.0625,38.6875,1.5625,0.0497,0.3937,0.1050,0.9119,
2025-03-09 22:04:12.308,-6.6500,1.3700,6.0400,15.4375,25.8125,1.6875,0.0526,0.3995,0.1041,0.9093,
2025-03-09 22:04:12.320,-6.8500,1.4500,6.7000,10.8750,24.3125,0.1875,0.0535,0.4017,0.1039,0.9083,
2025-03-09 22:04:12.340,-6.9700,1.6100,6.3800,8.5625,24.0000,-0.1250,0.0546,0.4056,0.1034,0.9066,
2025-03-09 22:04:12.358,-7.0200,1.7200,6.0400,2.0000,18.1250,-4.9375,0.0554,0.4092,0.1030,0.9049,
2025-03-09 22:04:12.369,-6.9800,1.4800,6.2400,-1.2500,16.3750,-6.2500,0.0552,0.4107,0.1026,0.9043,
2025-03-09 22:04:12.389,-7.1500,1.6200,6.4100,-5.7500,9.0000,-5.0625,0.0540,0.4129,0.1021,0.9034,
2025-03-09 22:04:12.412,-7.0400,1.3800,6.4000,-2.6250,9.5000,-4.6250,0.0527,0.4142,0.1017,0.9029,
2025-03-09 22:04:12.420,-7.1400,1.5800,6.2600,-0.2500,9.5625,-4.1875,0.0524,0.4150,0.1014,0.9026,
2025-03-09 22:04:12.440,-7.0700,1.3200,6.6300,5.1875,12.8750,-2.1875,0.0519,0.4165,0.1008,0.9020,
2025-03-09 22:04:12.458,-7.0200,1.2400,6.8900,12.5000,21.3125,1.3125,0.0526,0.4188,0.1002,0.9010,
2025-03-09 22:04:12.472,-7.1700,1.4700,6.2300,9.1250,19.3750,2.2500,0.0533,0.4205,0.0999,0.9002,
2025-03-09 22:04:12.489,-7.2800,1.4900,6.1800,3.6250,16.6875,1.8125,0.0543,0.4235,0.0999,0.8988,
2025-03-09 22:04:12.508,-7.2900,1.4200,6.6000,4.0000,16.4375,1.9375,0.0548,0.4260,0.1000,0.8975,
2025-03-09 22:04:12.519,-7.2600,1.5800,5.9000,8.6250,19.7500,3.0625,0.0552,0.4276,0.1000,0.8967,
2025-03-09 22:04:12.541,-7.3700,1.6000,6.0600,6.0000,11.5625,1.4375,0.0563,0.4303,0.1000,0.8954,
2025-03-09 22:04:12.562,-7.3900,1.5900,6.4700,4.3125,9.4375,0.9375,0.0569,0.4320,0.0999,0.8945,
2025-03-09 22:04:12.570,-7.3700,1.5200,6.1900,1.5000,11.4375,-0.5625,0.0571,0.4328,0.0998,0.8941,
2025-03-09 22:04:12.593,-7.3900,1.4700,6.3100,3.4375,8.8125,0.0000,0.0571,0.4344,0.0997,0.8934,
2025-03-09 22:04:12.607,-7.3800,1.5100,6.3200,4.5625,9.3125,1.0000,0.0573,0.4356,0.0995,0.8928,
2025-03-09 22:04:12.619,-7.5100,1.6700,6.3900,-1.0000,7.2500,-0.2500,0.0572,0.4361,0.0995,0.8926,
2025-03-09 22:04:12.641,-7.4200,1.5900,5.5900,-6.0625,1.3750,-0.9375,0.0565,0.4367,0.0997,0.8923,
2025-03-09 22:04:12.661,-7.3700,1.5700,5.7700,-3.6250,2.0000,-0.5000,0.0557,0.4369,0.1000,0.8922,
2025-03-09 22:04:12.682,-7.4200,1.6500,5.9200,-1.5000,0.6875,0.1250,0.0554,0.4371,0.1002,0.8921,
2025-03-09 22:04:12.699,-7.2900,1.4900,5.9100,0.3125,0.7500,-0.4375,0.0551,0.4371,0.1002,0.8921,
2025-03-09 22:04:12.721,-7.3000,1.4700,5.9800,1.3125,0.8750,0.6875,0.0549,0.4371,0.1001,0.8921,
2025-03-09 22:04:12.752,-7.3800,1.5500,5.9300,0.6250,-0.1250,0.9375,0.0549,0.4372,0.0999,0.8921,
2025-03-09 22:04:12.793,-7.4100,1.4800,6.1000,-2.1875,-1.9375,0.6875,0.0546,0.4370,0.1000,0.8922,
2025-03-09 22:04:12.793,-7.3700,1.3300,6.3400,-1.0000,2.5625,1.1875,0.0542,0.4367,0.1000,0.8924,
2025-03-09 22:04:12.811,-7.3400,1.2600,6.4100,8.0000,9.0000,3.4375,0.0544,0.4374,0.1003,0.8920,
2025-03-09 22:04:12.811,-7.4900,1.6300,6.1900,8.3750,8.1250,2.6875,0.0557,0.4388,0.1002,0.8912,
2025-03-09 22:04:12.832,-7.4000,1.5400,5.9800,3.5000,4.1875,1.8125,0.0560,0.4393,0.1001,0.8910,
2025-03-09 22:04:12.842,-7.4900,1.7100,5.9900,1.6250,2.0000,1.6875,0.0565,0.4397,0.1002,0.8907,
2025-03-09 22:04:12.852,-7.5100,1.8200,5.6800,-2.9375,-2.2500,-0.3750,0.0565,0.4397,0.1003,0.8907,
2025-03-09 22:04:12.870,-7.5600,1.7000,6.0700,2.0000,2.3750,-1.1250,0.0562,0.4395,0.1003,0.8909,
2025-03-09 22:04:12.891,-7.4400,1.7000,5.8100,3.0000,3.4375,-0.7500,0.0565,0.4400,0.1000,0.8906,
2025-03-09 22:04:12.907,-7.3200,1.6000,5.7000,5.9375,2.1875,0.0625,0.0571,0.4404,0.0996,0.8904,
2025-03-09 22:04:12.920,-7.3100,1.6300,5.7600,4.5625,-0.1250,0.1250,0.0574,0.4405,0.0994,0.8904,
2025-03-09 22:04:12.938,-7.4100,1.7200,5.5000,0.6875,-5.1250,0.0000,0.0577,0.4399,0.0992,0.8907,
2025-03-09 22:04:12.962,-7.5300,1.7600,5.8400,-7.6875,-12.0625,-2.0000,0.0569,0.4384,0.0993,0.8915,
2025-03-09 22:04:12.970,-7.5300,1.5800,6.5800,-4.0625,-3.8750,-1.7500,0.0563,0.4375,0.0993,0.8919,
2025-03-09 22:04:12.990,-7.4000,1.6200,6.2200,-1.8750,-0.3750,-1.0625,0.0558,0.4371,0.0993,0.8922,
2025-03-09 22:04:13.014,-7.4400,1.6200,6.2800,-2.0000,0.4375,-1.8750,0.0554,0.4371,0.0992,0.8922,
2025-03-09 22:04:13.020,-7.4100,1.5800,6.2500,-1.2500,1.6875,-2.0625,0.0552,0.4373,0.0991,0.8922,
2025-03-09 22:04:13.041,-7.3800,1.5900,5.8800,-2.8125,0.5625,-1.5000,0.0545,0.4372,0.0990,0.8922,
2025-03-09 22:04:13.051,-7.3800,1.6000,6.0700,-4.0000,-0.7500,-1.3750,0.0541,0.4370,0.0990,0.8923,
2025-03-09 22:04:13.070,-7.3900,1.6300,6.0300,-1.1875,0.6250,-1.1875,0.0536,0.4370,0.0989,0.8924,
2025-03-09 22:04:13.088,-7.3800,1.5000,6.0500,0.9375,2.4375,-2.0625,0.0534,0.4372,0.0986,0.8923,
2025-03-09 22:04:13.106,-7.3100,1.4000,5.8200,1.1875,2.7500,-0.3750,0.0533,0.4376,0.0983,0.8922,
2025-03-09 22:04:13.119,-7.4200,1.5600,5.7200,-0.2500,0.5625,0.0625,0.0532,0.4376,0.0982,0.8922,
2025-03-09 22:04:13.139,-7.5100,1.6200,5.9900,-1.6250,-3.4375,-0.5625,0.0529,0.4371,0.0983,0.8924,
2025-03-09 22:04:13.161,-7.4100,1.5600,6.0400,-1.1250,-1.0625,-0.6250,0.0526,0.4368,0.0981,0.8926,
2025-03-09 22:04:13.170,-7.3900,1.5800,5.8400,-2.1875,-1.0625,-0.8125,0.0524,0.4367,0.0981,0.8927,
2025-03-09 22:04:13.191,-7.4800,1.6100,6.1800,-0.6250,-3.3750,-2.0000,0.0518,0.4362,0.0980,0.8930,
2025-03-09 22:04:13.206,-7.4500,1.4700,6.4100,5.5000,2.1250,-1.8750,0.0522,0.4362,0.0974,0.8931,
2025-03-09 22:04:13.219,-7.3700,1.4400,5.9400,6.6875,5.0000,-1.7500,0.0526,0.4366,0.0970,0.8929,
2025-03-09 22:04:13.243,-7.3800,1.4700,5.7200,4.1875,2.3125,-1.3125,0.0532,0.4373,0.0964,0.8926,
2025-03-09 22:04:13.257,-7.5200,1.5700,6.1700,-1.6875,-2.8125,-1.5000,0.0530,0.4369,0.0963,0.8927,
2025-03-09 22:04:13.271,-7.5300,1.6400,6.3600,-1.6875,-2.1250,-0.9375,0.0529,0.4368,0.0963,0.8928,
2025-03-09 22:04:13.290,-7.5200,1.6400,6.2500,-2.4375,0.0625,-0.6875,0.0526,0.4367,0.0963,0.8929,
2025-03-09 22:04:13.312,-7.4400,1.5300,6.0600,-1.6875,1.0625,-0.8750,0.0521,0.4367,0.0964,0.8929,
2025-03-09 22:04:13.321,-7.4600,1.5700,5.9000,-0.2500,1.5000,-0.8750,0.0521,0.4368,0.0963,0.8929,
2025-03-09 22:04:13.341,-7.3400,1.5100,5.9300,-1.5000,0.0000,-1.1250,0.0518,0.4369,0.0962,0.8928,
2025-03-09 22:04:13.380,-7.3900,1.5700,6.3300,-3.3750,0.1250,-1.0625,0.0513,0.4368,0.0963,0.8929,
2025-03-09 22:04:13.380,-7.3500,1.4900,6.0900,-2.2500,3.0000,-1.0625,0.0510,0.4370,0.0963,0.8929,
2025-03-09 22:04:13.382,-7.4000,1.5400,5.9500,-1.8125,4.3125,-0.3125,0.0507,0.4373,0.0964,0.8927,
2025-03-09 22:04:13.388,-7.4000,1.5200,5.8400,-1.1250,5.0625,-0.6875,0.0505,0.4376,0.0964,0.8926,
2025-03-09 22:04:13.406,-7.2800,1.4700,5.3600,-0.5000,3.5625,-1.0000,0.0504,0.4382,0.0963,0.8923,
2025-03-09 22:04:13.422,-7.3300,1.4700,5.6600,-3.3750,-1.5625,-1.3750,0.0501,0.4381,0.0963,0.8923,
2025-03-09 22:04:13.445,-7.3600,1.3800,6.3700,-1.4375,-2.8125,-0.6875,0.0497,0.4375,0.0963,0.8927,
2025-03-09 22:04:13.449,-7.3700,1.4400,6.1300,0.5625,1.1875,0.3750,0.0497,0.4376,0.0962,0.8926,
2025-03-09 22:04:13.471,-7.4300,1.5100,5.9700,-1.3125,1.1250,0.3125,0.0496,0.4379,0.0964,0.8925,
2025-03-09 22:04:13.489,-7.4500,1.4800,6.1000,0.6250,0.1250,-0.5625,0.0495,0.4378,0.0964,0.8925,
2025-03-09 22:04:13.498,-7.4400,1.4800,6.1200,2.6875,1.3750,-0.0625,0.0496,0.4378,0.0963,0.8925,
2025-03-09 22:04:13.507,-7.4000,1.5200,5.9500,4.5625,2.8750,0.6250,0.0499,0.4381,0.0961,0.8924,
2025-03-09 22:04:13.523,-7.4000,1.4100,6.0800,4.3750,3.8125,0.0625,0.0501,0.4383,0.0959,0.8923,
2025-03-09 22:04:13.529,-7.3000,1.2500,6.0700,3.0625,4.5625,0.3750,0.0501,0.4385,0.0958,0.8922,
2025-03-09 22:04:13.538,-7.4700,1.6200,5.8000,1.7500,4.3125,1.6875,0.0502,0.4388,0.0958,0.8920,
2025-03-09 22:04:13.551,-7.5900,1.6800,6.0100,0.0000,2.6250,2.4375,0.0502,0.4390,0.0960,0.8919,
2025-03-09 22:04:13.556,-7.5400,1.6400,6.0400,-0.3125,2.2500,2.0625,0.0503,0.4391,0.0961,0.8918,
2025-03-09 22:04:13.570,-7.5000,1.6600,5.9800,-0.2500,2.5625,1.4375,0.0504,0.4393,0.0963,0.8917,
2025-03-09 22:04:13.588,-7.4600,1.5600,5.7500,-2.8125,1.3125,-0.1250,0.0499,0.4396,0.0964,0.8916,
2025-03-09 22:04:13.597,-7.4900,1.6100,5.6900,-3.5000,-0.1875,-0.2500,0.0497,0.4396,0.0966,0.8916,
2025-03-09 22:04:13.610,-7.4700,1.5800,5.8700,-3.3750,-2.0000,-1.0625,0.0494,0.4394,0.0966,0.8917,
2025-03-09 22:04:13.617,-7.4200,1.5000,5.8700,-1.9375,-2.5625,-1.8750,0.0492,0.4392,0.0966,0.8918,
2025-03-09 22:04:13.629,-7.4300,1.5100,6.0600,-1.9375,-3.7500,-1.9375,0.0489,0.4389,0.0964,0.8920,
2025-03-09 22:04:13.640,-7.4700,1.5400,6.0700,-1.3750,-3.3750,-1.2500,0.0488,0.4386,0.0964,0.8922,
2025-03-09 22:04:13.650,-7.4500,1.4100,6.2900,-1.8750,-2.1875,-0.7500,0.0486,0.4384,0.0964,0.8923,
2025-03-09 22:04:13.656,-7.4000,1.4000,5.9100,-0.9375,0.4375,-0.5000,0.0486,0.4384,0.0964,0.8923,
2025-03-09 22:04:13.687,-7.3800,1.4500,5.7200,-2.0000,0.0625,-0.1875,0.0484,0.4384,0.0965,0.8923,
2025-03-09 22:04:13.687,-7.4000,1.4200,5.9600,-4.1875,-2.6250,-0.4375,0.0481,0.4382,0.0966,0.8924,
2025-03-09 22:04:13.691,-7.4600,1.5100,6.0700,-3.3125,-2.9375,-0.1875,0.0478,0.4379,0.0967,0.8925,
2025-03-09 22:04:13.706,-7.4400,1.5000,6.1200,-2.7500,-1.8125,0.3125,0.0475,0.4377,0.0967,0.8926,
2025-03-09 22:04:13.708,-7.4200,1.4600,6.1700,-3.2500,-1.2500,0.4375,0.0472,0.4375,0.0969,0.8927,
2025-03-09 22:04:13.717,-7.4900,1.4800,6.1500,-3.1875,-1.1250,0.5625,0.0469,0.4373,0.0969,0.8928,
2025-03-09 22:04:13.731,-7.5200,1.4900,6.0600,-2.6250,-1.0000,0.1250,0.0467,0.4372,0.0970,0.8929,
2025-03-09 22:04:13.736,-7.5200,1.4100,6.0300,-0.4375,-0.3125,-0.2500,0.0466,0.4371,0.0970,0.8929,
2025-03-09 22:04:13.749,-7.4800,1.4300,5.8700,-0.5625,0.0000,0.0000,0.0466,0.4371,0.0970,0.8929,
2025-03-09 22:04:13.761,-7.5100,1.5000,5.9900,-3.1875,-1.7500,-0.2500,0.0463,0.4370,0.0970,0.8930,
2025-03-09 22:04:13.768,-7.5800,1.5500,6.0600,-4.8750,-3.3125,-0.5000,0.0460,0.4367,0.0972,0.8932,
2025-03-09 22:04:13.777,-7.5000,1.6000,6.2500,-4.8750,-3.8750,-0.7500,0.0456,0.4363,0.0973,0.8933,
2025-03-09 22:04:13.790,-7.5100,1.5000,6.2900,-3.1250,-2.1250,-1.0625,0.0453,0.4361,0.0973,0.8935,
2025-03-09 22:04:13.801,-7.4700,1.5200,6.0600,0.1250,1.1875,-0.3125,0.0452,0.4362,0.0974,0.8934,
2025-03-09 22:04:13.807,-7.4300,1.5000,5.8700,0.0625,2.3125,-0.2500,0.0452,0.4363,0.0973,0.8934,
2025-03-09 22:04:13.821,-7.4600,1.5300,5.7300,-2.4375,0.8750,-0.4375,0.0450,0.4364,0.0974,0.8933,
2025-03-09 22:04:13.827,-7.4300,1.4900,6.0600,-6.2500,-2.1875,-1.2500,0.0445,0.4362,0.0975,0.8935,
2025-03-09 22:04:13.837,-7.4000,1.4200,6.0800,-7.4375,-2.5625,-1.5000,0.0439,0.4359,0.0977,0.8936,
2025-03-09 22:04:13.851,-7.3400,1.4000,6.0300,-8.1875,-1.1875,-1.5000,0.0432,0.4357,0.0978,0.8937,
2025-03-09 22:04:13.857,-7.3000,1.4000,6.0100,-9.3125,-0.8750,-1.5000,0.0424,0.4355,0.0981,0.8938,
2025-03-09 22:04:13.866,-7.3000,1.3300,6.0000,-8.7500,-0.6875,-1.3125,0.0416,0.4354,0.0983,0.8939,
2025-03-09 22:04:13.881,-7.3500,1.3000,6.2200,-5.9375,0.0625,-0.5625,0.0411,0.4352,0.0984,0.8940,
2025-03-09 22:04:13.894,-7.3400,1.3100,5.9500,1.3750,2.1250,0.5625,0.0411,0.4354,0.0984,0.8939,
2025-03-09 22:04:13.907,-7.3800,1.4400,5.7100,4.8125,2.1875,1.4375,0.0415,0.4356,0.0983,0.8938,
2025-03-09 22:04:13.909,-7.4200,1.5000,5.7200,5.1250,0.5000,0.8125,0.0415,0.4356,0.0983,0.8938,
2025-03-09 22:04:13.916,-7.4100,1.4500,6.0500,3.2500,-1.5625,0.0000,0.0419,0.4357,0.0981,0.8938,
2025-03-09 22:04:13.926,-7.4000,1.4000,6.1600,2.1250,-1.3125,-0.2500,0.0422,0.4356,0.0980,0.8938,
2025-03-09 22:04:13.940,-7.4600,1.4700,6.1900,2.5625,-0.1875,0.6875,0.0423,0.4354,0.0980,0.8939,
2025-03-09 22:04:13.947,-7.4100,1.4400,6.0600,2.7500,0.8125,1.1875,0.0425,0.4354,0.0979,0.8939,
2025-03-09 22:04:13.957,-7.4100,1.4700,6.0000,1.9375,0.6250,1.3750,0.0427,0.4355,0.0979,0.8938,
2025-03-09 22:04:13.970,-7.4700,1.5200,5.9800,1.3125,-0.3125,1.3750,0.0429,0.4355,0.0979,0.8938,
2025-03-09 22:04:13.978,-7.4200,1.4400,6.1300,1.2500,-1.2500,0.6875,0.0431,0.4356,0.0980,0.8937,
2025-03-09 22:04:13.987,-7.4100,1.4300,6.2400,0.8750,-1.0000,0.3125,0.0432,0.4355,0.0980,0.8938,
2025-03-09 22:04:14.016,-7.3800,1.3900,6.1600,1.1250,0.4375,0.1250,0.0432,0.4354,0.0979,0.8939,
2025-03-09 22:04:14.019,-7.3500,1.4300,6.0900,1.2500,1.4375,0.6875,0.0432,0.4353,0.0978,0.8939,
2025-03-09 22:04:14.019,-7.3400,1.4100,5.9300,1.1875,2.0625,0.6250,0.0433,0.4354,0.0978,0.8939,
2025-03-09 22:04:14.037,-7.3900,1.4200,5.9600,1.1250,1.8750,0.5000,0.0433,0.4355,0.0978,0.8938,
2025-03-09 22:04:14.043,-7.4400,1.4700,5.7600,2.6250,2.0000,0.8125,0.0434,0.4356,0.0978,0.8938,
2025-03-09 22:04:14.061,-7.4600,1.5000,5.7500,3.7500,1.3125,0.4375,0.0436,0.4358,0.0978,0.8937,
2025-03-09 22:04:14.062,-7.4700,1.5000,5.9300,2.5625,-0.5625,0.1250,0.0439,0.4359,0.0976,0.8936,
2025-03-09 22:04:14.066,-7.4900,1.4700,6.0900,2.0625,-1.5625,0.1250,0.0441,0.4359,0.0975,0.8936,
2025-03-09 22:04:14.082,-7.3900,1.3700,6.1700,1.5625,-0.6250,-0.1250,0.0442,0.4358,0.0974,0.8936,
2025-03-09 22:04:14.090,-7.3700,1.4000,6.0600,0.6250,-0.1250,0.1875,0.0443,0.4358,0.0974,0.8937,
2025-03-09 22:04:14.097,-7.3700,1.4200,6.1100,1.0000,0.0625,0.6250,0.0443,0.4357,0.0973,0.8937,
2025-03-09 22:04:14.107,-7.4000,1.4400,6.0300,1.2500,0.5000,0.7500,0.0443,0.4357,0.0973,0.8937,
2025-03-09 22:04:14.120,-7.4200,1.4600,6.0000,1.2500,0.7500,1.0000,0.0444,0.4357,0.0973,0.8937,
2025-03-09 22:04:14.128,-7.4300,1.4500,5.9500,1.5625,1.1250,1.0000,0.0445,0.4357,0.0973,0.8937,
2025-03-09 22:04:14.142,-7.3700,1.4200,5.8200,1.7500,1.4375,0.9375,0.0446,0.4358,0.0973,0.8937,
2025-03-09 22:04:14.150,-7.4600,1.4700,5.7100,0.4375,0.5000,0.6875,0.0447,0.4359,0.0973,0.8936,
2025-03-09 22:04:14.159,-7.4800,1.4700,5.8400,-1.4375,-2.0625,0.6250,0.0447,0.4359,0.0973,0.8936,
2025-03-09 22:04:14.168,-7.5400,1.5100,6.0000,-2.3750,-3.8750,0.5625,0.0446,0.4358,0.0974,0.8937,
2025-03-09 22:04:14.184,-7.5900,1.6000,6.1800,-2.7500,-5.5000,0.2500,0.0444,0.4355,0.0975,0.8938,
2025-03-09 22:04:14.188,-7.5300,1.4400,6.4200,-1.6250,-4.1250,-0.1250,0.0443,0.4350,0.0975,0.8940,
2025-03-09 22:04:14.198,-7.5900,1.4500,6.4500,0.6875,-1.9375,-0.3125,0.0442,0.4347,0.0976,0.8942,
2025-03-09 22:04:14.209,-7.5600,1.5000,6.3000,3.5625,1.5000,0.5000,0.0443,0.4346,0.0976,0.8942,
2025-03-09 22:04:14.217,-7.4800,1.4000,6.1300,5.0000,3.0625,0.8125,0.0445,0.4347,0.0975,0.8942,
2025-03-09 22:04:14.227,-7.4800,1.4400,6.0900,5.3750,3.3750,0.9375,0.0449,0.4350,0.0973,0.8940,
2025-03-09 22:04:14.243,-7.4800,1.5500,6.1100,5.0000,2.6250,1.4375,0.0454,0.4353,0.0972,0.8939,
2025-03-09 22:04:14.247,-7.5300,1.6500,6.0400,4.1250,2.0000,1.4375,0.0457,0.4355,0.0972,0.8938,
2025-03-09 22:04:14.257,-7.5000,1.5500,6.2800,3.0000,1.5000,0.7500,0.0460,0.4357,0.0971,0.8937,
2025-03-09 22:04:14.269,-7.4200,1.5000,6.0800,3.8750,2.3750,0.2500,0.0463,0.4357,0.0970,0.8936,
2025-03-09 22:04:14.278,-7.4000,1.5000,6.0200,3.6875,2.3125,-0.0625,0.0465,0.4359,0.0969,0.8935,
2025-03-09 22:04:14.288,-7.4100,1.4700,5.9500,2.5000,0.8125,-0.1250,0.0468,0.4361,0.0967,0.8935,
2025-03-09 22:04:14.306,-7.4200,1.4800,6.2300,1.0000,-0.3125,-0.4375,0.0469,0.4362,0.0967,0.8934,
2025-03-09 22:04:14.307,-7.4600,1.5000,6.3700,0.8750,-0.3125,-0.2500,0.0469,0.4361,0.0966,0.8935,
2025-03-09 22:04:14.317,-7.4800,1.5200,6.2600,1.6250,2.4375,-0.1875,0.0469,0.4360,0.0966,0.8935,
2025-03-09 22:04:14.331,-7.4400,1.5400,5.9500,1.6250,3.9375,0.3750,0.0470,0.4362,0.0965,0.8934,
2025-03-09 22:04:14.338,-7.4500,1.5400,5.7900,2.1875,3.9375,0.6250,0.0471,0.4364,0.0964,0.8933,
2025-03-09 22:04:14.354,-7.4200,1.5700,5.6800,1.1875,2.3125,0.8125,0.0472,0.4367,0.0964,0.8932,
2025-03-09 22:04:14.361,-7.4900,1.5200,6.0400,-0.9375,0.0000,0.6250,0.0473,0.4369,0.0964,0.8931,
2025-03-09 22:04:14.368,-7.4700,1.4800,6.1800,-2.6875,-1.3125,0.1875,0.0472,0.4369,0.0965,0.8931,
2025-03-09 22:04:14.377,-7.5000,1.4800,6.1500,-1.7500,0.0625,0.1250,0.0471,0.4368,0.0966,0.8931,
2025-03-09 22:04:14.390,-7.5200,1.5700,6.0300,0.6250,1.2500,0.5000,0.0469,0.4368,0.0967,0.8931,
2025-03-09 22:04:14.398,-7.5000,1.5600,5.8400,1.1875,1.7500,0.0000,0.0469,0.4368,0.0966,0.8931,
2025-03-09 22:04:14.408,-7.5000,1.5700,5.9900,0.0000,0.4375,-0.9375,0.0470,0.4370,0.0966,0.8930,
2025-03-09 22:04:14.420,-7.4800,1.4900,6.0900,-0.3125,-0.4375,-1.3750,0.0469,0.4370,0.0965,0.8930,
2025-03-09 22:04:14.427,-7.4900,1.4800,6.0200,0.3750,0.5625,-0.9375,0.0469,0.4370,0.0964,0.8931,
2025-03-09 22:04:14.438,-7.5000,1.5200,5.8800,1.0625,1.8125,-0.4375,0.0468,0.4370,0.0963,0.8931,
2025-03-09 22:04:14.448,-7.5100,1.5400,5.7600,0.8750,2.3750,-0.3125,0.0468,0.4371,0.0963,0.8930,
2025-03-09 22:04:14.459,-7.4500,1.5000,5.7100,-1.3125,1.3750,-0.8750,0.0469,0.4373,0.0962,0.8929,
2025-03-09 22:04:14.467,-7.4400,1.4400,6.0200,-3.1875,-0.6250,-0.6875,0.0467,0.4374,0.0963,0.8929,
2025-03-09 22:04:14.480,-7.4100,1.4300,6.1800,-3.0000,-0.8125,-0.9375,0.0464,0.4374,0.0963,0.8929,
2025-03-09 22:04:14.491,-7.4000,1.4300,6.0600,-0.4375,0.8750,-0.6875,0.0461,0.4372,0.0963,0.8930,
2025-03-09 22:04:14.497,-7.4100,1.5300,5.7500,1.5625,2.4375,-0.3750,0.0460,0.4373,0.0963,0.8930,
2025-03-09 22:04:14.510,-7.3800,1.4600,5.8500,0.3125,1.1250,-0.7500,0.0461,0.4375,0.0962,0.8929,
2025-03-09 22:04:14.518,-7.4000,1.4000,5.9700,-1.3750,-0.5000,-1.1250,0.0461,0.4376,0.0961,0.8928,
2025-03-09 22:04:14.528,-7.4000,1.4000,5.9900,-0.5625,-0.4375,-0.7500,0.0459,0.4376,0.0961,0.8929,
2025-03-09 22:04:14.540,-7.3700,1.4400,5.7400,0.6250,0.5625,-0.5625,0.0458,0.4375,0.0960,0.8929,
2025-03-09 22:04:14.550,-7.3900,1.4500,5.7500,0.6875,0.5000,-0.1250,0.0458,0.4376,0.0959,0.8929,
2025-03-09 22:04:14.558,-7.4300,1.5500,5.8000,-0.8750,-1.1875,0.0000,0.0458,0.4376,0.0959,0.8929,
2025-03-09 22:04:14.571,-7.4900,1.5500,6.1300,-1.5000,-2.5625,-0.1250,0.0458,0.4374,0.0959,0.8929,
2025-03-09 22:04:14.578,-7.4500,1.5500,6.1800,-1.0000,-2.5000,0.0000,0.0457,0.4372,0.0959,0.8930,
2025-03-09 22:04:14.589,-7.4800,1.6000,6.2200,-0.0625,-1.3750,0.1875,0.0456,0.4370,0.0960,0.8931,
2025-03-09 22:04:14.606,-7.4700,1.5600,6.2000,-0.7500,0.1250,-0.1875,0.0456,0.4369,0.0960,0.8932,
2025-03-09 22:04:14.608,-7.3900,1.4300,6.0800,-2.1250,0.5000,-0.7500,0.0455,0.4369,0.0960,0.8932,
2025-03-09 22:04:14.622,-7.3900,1.3600,5.9500,-2.7500,0.4375,-1.0000,0.0454,0.4369,0.0960,0.8932,
2025-03-09 22:04:14.632,-7.3900,1.3100,5.9100,-2.5000,0.6250,-1.0000,0.0451,0.4369,0.0961,0.8932,
2025-03-09 22:04:14.639,-7.4000,1.3200,5.9500,-0.7500,0.3125,-0.5625,0.0448,0.4369,0.0961,0.8932,
2025-03-09 22:04:14.653,-7.4300,1.3900,5.9300,2.2500,0.9375,0.3750,0.0447,0.4368,0.0961,0.8933,
2025-03-09 22:04:14.662,-7.5000,1.4100,6.2000,2.0625,0.4375,0.5625,0.0448,0.4369,0.0959,0.8932,
2025-03-09 22:04:14.670,-7.5300,1.5300,6.1200,2.6875,1.2500,1.0625,0.0449,0.4369,0.0958,0.8933,
2025-03-09 22:04:14.678,-7.5700,1.6200,5.9200,3.3750,2.6875,1.3125,0.0450,0.4370,0.0958,0.8932,
2025-03-09 22:04:14.689,-7.5200,1.5200,5.8600,2.9375,3.6250,1.3750,0.0453,0.4372,0.0958,0.8931,
2025-03-09 22:04:14.698,-7.5000,1.4600,5.8900,0.5000,2.3750,0.6875,0.0455,0.4375,0.0958,0.8929,
2025-03-09 22:04:14.720,-7.4900,1.4700,5.8600,1.5625,0.6250,0.6250,0.0455,0.4378,0.0958,0.8928,
2025-03-09 22:04:14.728,-7.4900,1.5100,5.7900,2.5625,0.8125,0.3750,0.0457,0.4379,0.0958,0.8928,
2025-03-09 22:04:14.738,-7.5200,1.6100,5.7400,2.0625,0.6875,0.6875,0.0458,0.4379,0.0957,0.8927,
2025-03-09 22:04:14.755,-7.5200,1.5700,6.0100,0.7500,-0.3750,0.1875,0.0460,0.4380,0.0957,0.8927,
2025-03-09 22:04:14.758,-7.4800,1.5300,6.1500,0.0625,-1.2500,-0.3750,0.0460,0.4380,0.0956,0.8927,
2025-03-09 22:04:14.781,-7.5300,1.5100,6.2700,0.3750,1.4375,0.0000,0.0460,0.4379,0.0956,0.8928,
2025-03-09 22:04:14.789,-7.4700,1.5200,5.6400,1.8125,4.0000,0.1250,0.0460,0.4380,0.0956,0.8927,
2025-03-09 22:04:14.800,-7.4400,1.5000,5.6700,2.3125,3.3125,0.3125,0.0461,0.4383,0.0956,0.8925,
2025-03-09 22:04:14.810,-7.4300,1.4600,5.7700,1.0625,0.3125,-0.3125,0.0463,0.4385,0.0955,0.8924,
2025-03-09 22:04:14.829,-7.4200,1.5000,6.2400,0.3750,-2.0000,-0.7500,0.0463,0.4384,0.0954,0.8925,
2025-03-09 22:04:14.846,-7.4300,1.4900,6.1300,2.1250,0.0625,-0.5625,0.0463,0.4383,0.0953,0.8926,
2025-03-09 22:04:14.857,-7.4300,1.4800,5.9100,0.3750,1.9375,-0.2500,0.0467,0.4385,0.0952,0.8925,
2025-03-09 22:04:14.878,-7.4400,1.4100,5.9700,-2.1250,0.0625,-0.5000,0.0466,0.4387,0.0952,0.8923,
2025-03-09 22:04:14.905,-7.4200,1.4700,6.0100,1.9375,0.3750,0.2500,0.0463,0.4386,0.0953,0.8924,
2025-03-09 22:04:14.917,-7.4300,1.5000,5.9400,1.5625,1.0625,0.3125,0.0465,0.4387,0.0951,0.8924,
2025-03-09 22:04:14.930,-7.4800,1.5300,5.8800,0.8125,1.0000,0.4375,0.0466,0.4387,0.0950,0.8924,
2025-03-09 22:04:14.949,-7.5200,1.5600,5.7400,-1.6875,0.1250,0.3125,0.0466,0.4389,0.0951,0.8923,
2025-03-09 22:04:14.969,-7.5600,1.5900,5.8000,-4.6250,-2.9375,-0.3125,0.0462,0.4387,0.0953,0.8924,
2025-03-09 22:04:14.980,-7.5900,1.4700,6.3300,-3.3750,-3.1250,-0.5625,0.0459,0.4385,0.0955,0.8925,
2025-03-09 22:04:14.998,-7.5400,1.5700,5.8200,1.1250,1.5000,0.2500,0.0456,0.4382,0.0955,0.8926,
2025-03-09 22:04:15.020,-7.5900,1.6200,5.8500,0.1875,-0.6875,0.6250,0.0458,0.4384,0.0955,0.8925,
2025-03-09 22:04:15.028,-7.6500,1.6200,6.0600,0.8125,-0.8750,0.0000,0.0458,0.4383,0.0956,0.8926,
2025-03-09 22:04:15.050,-7.6500,1.5800,6.1000,1.8750,0.0625,-0.5625,0.0460,0.4382,0.0955,0.8926,
2025-03-09 22:04:15.068,-7.6100,1.5100,6.2100,2.4375,1.3750,-1.0000,0.0462,0.4383,0.0952,0.8926,
2025-03-09 22:04:15.082,-7.3900,1.3600,6.0500,1.3750,1.7500,-1.0000,0.0463,0.4384,0.0951,0.8925,
2025-03-09 22:04:15.099,-7.3900,1.3700,5.9000,1.5000,1.8125,-0.6875,0.0463,0.4385,0.0948,0.8925,
2025-03-09 22:04:15.118,-7.4100,1.4400,5.7400,0.8750,1.3750,0.3125,0.0463,0.4388,0.0946,0.8924,
2025-03-09 22:04:15.129,-7.4500,1.5100,5.8400,-0.6875,-0.4375,0.6250,0.0464,0.4389,0.0946,0.8923,
2025-03-09 22:04:15.148,-7.5100,1.5600,5.9700,-0.2500,-1.2500,-0.3125,0.0464,0.4388,0.0947,0.8924,
2025-03-09 22:04:15.188,-7.4700,1.5400,6.0300,-1.2500,-1.5625,-0.3750,0.0463,0.4386,0.0947,0.8925,
2025-03-09 22:04:15.188,-7.4900,1.4700,5.9900,-2.0000,-1.2500,-0.1250,0.0463,0.4384,0.0947,0.8926,
2025-03-09 22:04:15.208,-7.4400,1.4500,6.0800,-1.8750,-1.0000,0.5000,0.0459,0.4382,0.0948,0.8927,
2025-03-09 22:04:15.218,-7.4500,1.4400,6.1300,0.8125,0.2500,1.1250,0.0457,0.4380,0.0949,0.8928,
2025-03-09 22:04:15.230,-7.5000,1.5400,6.0900,0.7500,1.2500,1.7500,0.0457,0.4379,0.0950,0.8928,
2025-03-09 22:04:15.259,-7.4400,1.5200,5.8600,-0.1250,2.3125,1.3750,0.0458,0.4381,0.0952,0.8927,
2025-03-09 22:04:15.268,-7.4700,1.5000,5.8900,-0.9375,1.1250,1.5000,0.0458,0.4383,0.0955,0.8926,
2025-03-09 22:04:15.278,-7.4400,1.4800,5.8700,-0.5625,0.1875,1.1250,0.0458,0.4383,0.0955,0.8926,
2025-03-09 22:04:15.307,-7.4800,1.5400,5.7900,-0.4375,-1.2500,0.1250,0.0457,0.4383,0.0957,0.8926,
2025-03-09 22:04:15.321,-7.5100,1.5800,5.8300,-0.3125,-1.7500,-0.1250,0.0457,0.4380,0.0956,0.8927,
2025-03-09 22:04:15.329,-7.5000,1.5500,5.9700,1.3125,-1.0625,0.1250,0.0457,0.4379,0.0956,0.8928,
2025-03-09 22:04:15.362,-7.4700,1.5000,5.8200,1.3125,0.4375,0.2500,0.0459,0.4379,0.0955,0.8928,
2025-03-09 22:04:15.367,-7.4300,1.4200,5.9600,-0.3750,-0.8125,0.2500,0.0460,0.4378,0.0955,0.8928,
2025-03-09 22:04:15.381,-7.4500,1.5200,5.9500,-1.2500,-0.5625,0.4375,0.0458,0.4377,0.0955,0.8929,
2025-03-09 22:04:15.399,-7.4400,1.5000,6.0100,-0.1250,-0.5625,0.2500,0.0457,0.4376,0.0955,0.8929,
2025-03-09 22:04:15.418,-7.4500,1.5000,6.0500,0.0000,-0.3125,0.6250,0.0457,0.4376,0.0956,0.8929,
2025-03-09 22:04:15.429,-7.4800,1.5400,5.9400,-0.6875,0.8125,0.8750,0.0456,0.4376,0.0956,0.8929,
2025-03-09 22:04:15.451,-7.4900,1.5100,5.8400,-1.4375,0.5000,0.5000,0.0455,0.4376,0.0958,0.8929,
2025-03-09 22:04:15.473,-7.5400,1.5000,5.9100,-0.5625,-0.2500,0.5000,0.0453,0.4376,0.0958,0.8929,
2025-03-09 22:04:15.479,-7.5300,1.4700,5.9700,0.8750,0.0000,0.0625,0.0453,0.4376,0.0958,0.8929,
2025-03-09 22:04:15.500,-7.5000,1.5100,5.9500,1.7500,-0.1250,0.4375,0.0455,0.4377,0.0956,0.8929,
2025-03-09 22:04:15.519,-7.5900,1.6200,6.2100,0.3750,-0.5000,0.3125,0.0457,0.4376,0.0956,0.8929,
2025-03-09 22:04:15.530,-7.5700,1.5400,6.2100,-0.9375,1.5000,0.0625,0.0456,0.4376,0.0956,0.8929,
2025-03-09 22:04:15.550,-7.5300,1.5200,5.9300,1.2500,1.8125,-0.0625,0.0455,0.4379,0.0956,0.8928,
2025-03-09 22:04:15.566,-7.4600,1.3700,6.0600,1.9375,1.8125,-0.2500,0.0457,0.4382,0.0955,0.8926,
2025-03-09 22:04:15.580,-7.5100,1.6300,5.9200,3.7500,3.3125,1.1875,0.0459,0.4384,0.0955,0.8925,
2025-03-09 22:04:15.599,-7.4700,1.5600,5.7500,-0.3125,1.0625,-0.0625,0.0463,0.4389,0.0954,0.8923,
2025-03-09 22:04:15.620,-7.4000,1.5000,5.9600,-2.2500,-1.0000,-0.8125,0.0461,0.4389,0.0954,0.8923,
2025-03-09 22:04:15.629,-7.4400,1.4900,6.1600,-2.1250,-2.0625,-0.6875,0.0458,0.4387,0.0955,0.8924,
2025-03-09 22:04:15.675,-7.4400,1.5300,5.9800,-0.6250,-0.8750,-0.5000,0.0455,0.4383,0.0955,0.8926,
2025-03-09 22:04:15.685,-7.4200,1.4500,5.8100,1.6875,0.4375,-0.0625,0.0457,0.4383,0.0954,0.8926,
2025-03-09 22:04:15.685,-7.4200,1.4600,5.8700,1.4375,-0.4375,0.0000,0.0458,0.4383,0.0953,0.8926,
2025-03-09 22:04:15.699,-7.4700,1.5000,6.0600,0.6250,-0.8750,0.1250,0.0458,0.4381,0.0952,0.8927,
2025-03-09 22:04:15.721,-7.4700,1.5000,5.9600,0.0000,0.7500,0.0625,0.0458,0.4382,0.0952,0.8927,
2025-03-09 22:04:15.730,-7.4800,1.4900,5.9700,-3.7500,-1.0000,-0.5000,0.0455,0.4381,0.0953,0.8927,
2025-03-09 22:04:15.749,-7.5100,1.4900,6.0200,-2.0000,-0.2500,-0.1875,0.0450,0.4379,0.0955,0.8928,
2025-03-09 22:04:15.771,-7.5200,1.4800,5.9800,0.5000,2.8125,0.0625,0.0448,0.4382,0.0956,0.8927,
2025-03-09 22:04:15.779,-7.4400,1.4000,5.8500,1.1875,3.9375,0.0625,0.0449,0.4385,0.0955,0.8925,
2025-03-09 22:04:15.801,-7.5100,1.5300,5.6900,1.1875,0.3750,0.2500,0.0450,0.4388,0.0955,0.8923,
2025-03-09 22:04:15.815,-7.5300,1.5700,5.7200,0.7500,-0.3125,-0.1250,0.0452,0.4388,0.0954,0.8923,
2025-03-09 22:04:15.830,-7.5300,1.6200,5.8200,-0.6875,-2.1250,-0.3750,0.0452,0.4387,0.0954,0.8924,
2025-03-09 22:04:15.851,-7.5500,1.5800,5.9800,-1.3750,-3.2500,-1.1250,0.0449,0.4382,0.0953,0.8927,
2025-03-09 22:04:15.869,-7.4600,1.4300,6.0200,0.3125,0.2500,-0.3750,0.0449,0.4381,0.0952,0.8927,
2025-03-09 22:04:15.882,-7.4300,1.4300,5.9900,0.3125,0.3750,0.0625,0.0449,0.4381,0.0952,0.8927,
2025-03-09 22:04:15.900,-7.4300,1.5200,5.8300,0.5000,-1.0000,0.0625,0.0449,0.4380,0.0952,0.8928,
2025-03-09 22:04:15.920,-7.4600,1.5100,6.0600,-1.3125,-1.3750,0.0625,0.0448,0.4377,0.0953,0.8929,
2025-03-09 22:04:15.929,-7.5600,1.5600,6.1400,-1.5000,-0.5625,0.0000,0.0447,0.4377,0.0953,0.8929,
2025-03-09 22:04:15.961,-7.5000,1.5500,5.8700,-1.1250,1.1250,0.0625,0.0445,0.4379,0.0954,0.8929,
2025-03-09 22:04:15.967,-7.5100,1.5000,5.9500,1.5000,1.5625,0.0000,0.0446,0.4381,0.0953,0.8927,
2025-03-09 22:04:15.983,-7.5300,1.5800,6.0400,2.5000,2.2500,0.1250,0.0447,0.4383,0.0953,0.8926,
2025-03-09 22:04:15.999,-7.4500,1.5600,5.8200,0.1250,1.6875,-0.6250,0.0449,0.4386,0.0952,0.8925,
2025-03-09 22:04:16.016,-7.4200,1.4200,5.8700,-2.1250,-0.3125,-0.9375,0.0446,0.4386,0.0952,0.8925,
2025-03-09 22:04:16.030,-7.4100,1.3900,5.8200,-0.9375,-1.0000,-0.4375,0.0445,0.4385,0.0953,0.8925,
2025-03-09 22:04:16.048,-7.5200,1.4700,6.0600,1.1875,0.4375,-0.7500,0.0446,0.4385,0.0952,0.8926,
2025-03-09 22:04:16.059,-7.4600,1.4800,5.9700,1.2500,1.8750,-0.5625,0.0446,0.4386,0.0951,0.8925,
2025-03-09 22:04:16.079,-7.4500,1.4400,6.1100,0.1250,2.2500,0.0000,0.0446,0.4389,0.0952,0.8924,
2025-03-09 22:04:16.101,-7.4500,1.3800,5.9200,1.7500,4.2500,0.8750,0.0447,0.4395,0.0951,0.8921,
2025-03-09 22:04:16.116,-7.5200,1.5700,5.6700,-1.5000,-1.4375,-0.0625,0.0447,0.4396,0.0952,0.8920,
2025-03-09 22:04:16.131,-7.5300,1.5200,5.9500,-2.6875,-2.8750,-0.8125,0.0445,0.4394,0.0953,0.8921,
2025-03-09 22:04:16.149,-7.4900,1.5200,5.8900,-1.8125,-0.0625,-0.2500,0.0442,0.4392,0.0954,0.8922,
2025-03-09 22:04:16.167,-7.5000,1.5500,6.0300,-1.1250,-0.1875,-0.5000,0.0439,0.4392,0.0955,0.8922,
2025-03-09 22:04:16.178,-7.4900,1.4300,6.0600,0.4375,1.3125,-0.2500,0.0439,0.4393,0.0955,0.8922,
2025-03-09 22:04:16.189,-7.4700,1.5300,5.8800,2.4375,2.6250,0.5625,0.0441,0.4395,0.0955,0.8921,
2025-03-09 22:04:16.209,-7.4400,1.4700,5.6700,0.5000,0.3125,0.0625,0.0443,0.4397,0.0954,0.8920,
2025-03-09 22:04:16.228,-7.4300,1.3800,6.0000,-1.0000,-0.5625,0.5000,0.0442,0.4396,0.0954,0.8920,
2025-03-09 22:04:16.264,-7.5100,1.4600,5.8500,1.1875,1.3750,1.3125,0.0444,0.4398,0.0956,0.8919,
2025-03-09 22:04:16.267,-7.5500,1.5800,5.7900,1.7500,1.0625,1.3125,0.0446,0.4399,0.0956,0.8918,
2025-03-09 22:04:16.267,-7.5900,1.5200,6.0500,0.5000,-0.1250,0.0625,0.0446,0.4399,0.0956,0.8918,
2025-03-09 22:04:16.281,-7.5800,1.4800,6.1100,0.6875,-0.2500,0.1250,0.0446,0.4399,0.0956,0.8918,
2025-03-09 22:04:16.298,-7.5400,1.4800,5.9800,0.8750,1.3750,-0.0625,0.0447,0.4400,0.0955,0.8918,
2025-03-09 22:04:16.311,-7.5100,1.5100,5.8400,-0.3750,1.1875,0.2500,0.0447,0.4401,0.0955,0.8917,
2025-03-09 22:04:16.331,-7.5500,1.5000,6.0300,-2.8750,-0.1250,-0.1875,0.0442,0.4401,0.0957,0.8918,
2025-03-09 22:04:16.339,-7.5400,1.5200,5.9400,-2.8125,0.8750,-0.1875,0.0441,0.4401,0.0958,0.8917,
2025-03-09 22:04:16.358,-7.4600,1.4600,5.7700,-2.0625,-0.1875,0.1875,0.0437,0.4401,0.0960,0.8917,
2025-03-09 22:04:16.370,-7.4900,1.4100,5.8000,-2.2500,-1.6250,0.1250,0.0435,0.4399,0.0961,0.8918,
2025-03-09 22:04:16.377,-7.5200,1.4500,5.9900,-2.5000,-2.1875,0.3750,0.0433,0.4398,0.0962,0.8919,
2025-03-09 22:04:16.394,-7.5500,1.4500,6.2200,-2.5000,-0.8750,0.5625,0.0432,0.4397,0.0963,0.8919,
2025-03-09 22:04:16.400,-7.6100,1.5600,6.2500,-1.5625,1.0000,0.8750,0.0431,0.4397,0.0964,0.8919,
2025-03-09 22:04:16.408,-7.6300,1.6000,6.1800,-0.5625,1.8125,1.0000,0.0431,0.4399,0.0965,0.8918,
2025-03-09 22:04:16.416,-7.6200,1.5600,6.1700,-0.6875,1.6875,0.3750,0.0430,0.4400,0.0965,0.8918,
