A1,,,,,,,,,,,
time,accx,accy,accz,gyrox,gyroy,gyroz,w1,w2,w3,w4,
2025-03-09 15:05:01.783,9.8100,-0.0100,-0.1900,-0.9375,-2.2500,-4.1250,88.5625,-179.5625,0.0000,223.8125,
2025-03-09 15:05:01.797,9.9300,0.0400,-0.1800,-1.5625,-2.2500,-2.5625,88.5625,-179.5000,0.0000,223.8125,
2025-03-09 15:05:01.805,10.0400,0.0300,-0.2400,-3.6875,-2.8750,0.8750,88.5000,-179.5625,0.0000,223.8750,
2025-03-09 15:05:01.825,9.9300,0.0000,-0.2200,-5.2500,-1.0000,1.6250,88.5000,-179.5625,0.0000,223.9375,
2025-03-09 15:05:01.835,9.8200,0.0000,-0.2300,-5.1875,0.6875,0.4375,88.5000,-179.5625,0.0000,224.0000,
2025-03-09 15:05:01.845,9.6900,0.0500,-0.1600,-4.7500,1.1250,-0.7500,88.5000,-179.5625,0.0000,224.0625,
2025-03-09 15:05:01.858,9.7500,0.0100,-0.2500,-5.3125,-0.0625,1.0000,88.5000,-179.5625,0.0000,224.0625,
2025-03-09 15:05:01.878,9.8300,0.0000,-0.1700,-5.6250,-2.3125,4.0625,88.5000,-179.6250,0.0000,224.1250,
2025-03-09 15:05:01.896,9.7700,0.0700,-0.0500,-4.5625,-2.0000,2.1250,88.5000,-179.6875,0.0000,224.1250,
2025-03-09 15:05:01.896,9.7400,0.0400,-0.0600,-3.0000,-1.5000,-0.0625,88.4375,-179.6875,0.0000,224.1875,
2025-03-09 15:05:01.910,9.7700,0.0100,-0.1600,-1.8750,-1.2500,-1.5625,88.4375,-179.6250,0.0000,224.1875,
2025-03-09 15:05:01.926,9.9100,-0.0100,-0.2500,-3.0000,-2.3750,1.3750,88.4375,-179.6875,0.0000,224.2500,
2025-03-09 15:05:01.933,9.9100,0.0100,-0.1900,-3.2500,-2.3125,1.8750,88.4375,-179.6875,0.0000,224.1875,
2025-03-09 15:05:01.948,9.8200,0.0300,-0.1700,-2.2500,-1.9375,1.4375,88.3750,-179.6875,0.0000,224.2500,
2025-03-09 15:05:01.955,9.7200,0.0200,-0.1900,-1.2500,-2.5000,1.0000,88.3750,-179.6875,0.0000,224.2500,
2025-03-09 15:05:02.013,9.7300,-0.0900,-0.4000,-1.5000,-2.2500,1.0000,88.3125,-179.7500,0.0000,224.2500,
2025-03-09 15:05:02.013,9.6900,-0.0600,-0.1700,-5.0000,-1.6875,1.4375,88.3125,-179.7500,0.0000,224.3125,
2025-03-09 15:05:02.014,9.7700,0.0000,-0.2400,-5.0625,-2.0625,0.7500,88.3125,-179.7500,0.0000,224.3750,
2025-03-09 15:05:02.014,9.9600,0.0600,-0.2200,-4.0625,-2.4375,1.0000,88.2500,-179.7500,0.0000,224.3750,
2025-03-09 15:05:02.023,10.0100,0.0300,-0.2400,-1.3750,-0.8125,0.7500,88.2500,-179.7500,0.0000,224.3750,
2025-03-09 15:05:02.037,9.9400,-0.0800,-0.3000,-1.2500,1.0625,-0.6875,88.2500,-179.7500,0.0000,224.4375,
2025-03-09 15:05:02.061,9.6900,-0.1300,-0.2300,-3.8750,0.9375,-0.0625,88.3125,-179.7500,0.0000,224.5000,
2025-03-09 15:05:02.074,9.6500,-0.0100,-0.1000,-4.4375,-0.6250,-0.5000,88.3125,-179.7500,0.0000,224.5625,
2025-03-09 15:05:02.083,9.7100,0.0400,-0.1000,-3.8750,-1.3125,-1.3125,88.2500,-179.7500,0.0000,224.6250,
2025-03-09 15:05:02.102,9.9000,0.0700,-0.1700,-3.2500,-2.0000,-0.8125,88.2500,-179.7500,0.0000,224.6875,
2025-03-09 15:05:02.105,9.9000,0.0600,-0.2400,-3.3125,-2.1250,0.4375,88.2500,-179.7500,0.0000,224.6875,
2025-03-09 15:05:02.126,9.8000,-0.0300,-0.2900,-3.6875,-2.0625,0.4375,88.1875,-179.7500,0.0000,224.8125,
2025-03-09 15:05:02.133,9.8500,-0.0200,-0.2900,-3.6875,-2.2500,0.8125,88.1875,-179.7500,0.0000,224.8125,
2025-03-09 15:05:02.143,9.9200,0.0000,-0.2900,-2.8750,-1.9375,0.8125,88.1875,-179.7500,0.0000,224.8125,
2025-03-09 15:05:02.158,9.9500,0.0200,-0.3200,-1.9375,-0.9375,0.1875,88.1875,-179.7500,0.0000,224.8750,
2025-03-09 15:05:02.172,9.8300,-0.0100,-0.3100,-3.4375,-0.3750,2.9375,88.1875,-179.8125,0.0000,224.8750,
2025-03-09 15:05:02.190,9.8500,-0.0100,-0.2800,-4.0000,-0.3125,3.1250,88.1875,-179.8125,0.0000,224.8750,
2025-03-09 15:05:02.194,9.7600,0.0100,-0.1600,-3.8125,-0.3750,2.2500,88.1875,-179.8750,0.0000,224.9375,
2025-03-09 15:05:02.205,9.8100,0.0500,-0.1500,-2.3750,-0.4375,1.6875,88.1875,-179.8750,0.0000,224.9375,
2025-03-09 15:05:02.223,9.9700,0.1000,-0.2100,-2.6875,-0.1875,1.8125,88.1875,-179.8750,0.0000,224.9375,
2025-03-09 15:05:02.235,9.9200,-0.0800,-0.3100,-3.2500,-0.5625,3.8750,88.1875,-179.9375,0.0000,224.9375,
2025-03-09 15:05:02.249,9.8600,-0.1600,-0.4000,-3.3750,-0.0625,5.0625,88.1875,179.9375,0.0000,224.9375,
2025-03-09 15:05:02.255,9.7100,-0.1500,-0.3400,-3.8750,0.6250,5.4375,88.1875,179.9375,0.0000,224.8750,
2025-03-09 15:05:02.310,9.5200,-0.1800,-0.2900,-3.3125,-0.1875,4.5000,88.1875,179.8750,0.0000,224.8750,
2025-03-09 15:05:02.310,9.7800,-0.1900,-0.2700,-2.5625,-1.3750,4.0000,88.1875,179.8125,0.0000,224.8750,
2025-03-09 15:05:02.310,9.9300,-0.0900,-0.2700,-3.0625,-1.6250,4.3750,88.1250,179.7500,0.0000,224.8750,
2025-03-09 15:05:02.310,9.8900,-0.0600,-0.2500,-2.3750,-0.7500,3.3750,88.1250,179.6875,0.0000,224.8125,
2025-03-09 15:05:02.316,9.7800,-0.1100,-0.2300,-2.5000,-0.4375,2.6250,88.1250,179.6875,0.0000,224.8125,
2025-03-09 15:05:02.338,9.7000,-0.1100,-0.1300,-1.3125,-0.8125,0.5000,88.1250,179.6875,0.0000,224.8750,
2025-03-09 15:05:02.346,9.6100,-0.0400,-0.1600,-0.4375,-0.1875,-2.5000,88.1250,179.6875,0.0000,224.8750,
2025-03-09 15:05:02.355,9.7300,-0.0400,-0.2400,-0.9375,-1.1250,-1.7500,88.1250,179.6875,0.0000,224.8750,
2025-03-09 15:05:02.369,9.8400,-0.0500,-0.2700,-1.3125,-2.4375,0.1875,88.0625,179.6875,0.0000,224.9375,
2025-03-09 15:05:02.373,10.0400,-0.0600,-0.4000,-2.0000,-2.7500,2.1875,88.0625,179.6875,0.0000,224.9375,
2025-03-09 15:05:02.385,9.9900,-0.0800,-0.3500,-2.2500,-2.2500,2.6875,88.0625,179.6250,0.0000,224.9375,
2025-03-09 15:05:02.397,9.8800,-0.1100,-0.2900,-1.6250,-1.0625,1.5625,88.0000,179.6250,0.0000,224.9375,
2025-03-09 15:05:02.405,9.8200,-0.1600,-0.3700,-0.5625,0.1250,0.5625,88.0000,179.6250,0.0000,224.9375,
2025-03-09 15:05:02.414,9.7800,-0.1100,-0.2800,0.3750,1.1250,-0.9375,88.0625,179.6250,0.0000,224.9375,
2025-03-09 15:05:02.427,9.8100,-0.0800,-0.2500,1.7500,1.8125,-2.0625,88.0625,179.6875,0.0000,224.9375,
2025-03-09 15:05:02.432,9.9200,0.0000,-0.2500,2.3125,1.8125,-1.5625,88.0625,179.6875,0.0000,224.9375,
2025-03-09 15:05:02.444,9.9700,0.0300,-0.2700,3.3750,1.8750,-1.1250,88.1250,179.6875,0.0000,224.8750,
2025-03-09 15:05:02.458,9.8700,0.0600,-0.2200,3.0625,2.0000,0.0000,88.1250,179.6875,0.0000,224.8750,
2025-03-09 15:05:02.465,9.8100,0.0000,-0.2200,2.2500,1.4375,1.1250,88.1250,179.6875,0.0000,224.8125,
2025-03-09 15:05:02.473,9.7200,-0.1800,-0.2700,1.1875,1.6250,0.3125,88.1250,179.6875,0.0000,224.8125,
2025-03-09 15:05:02.490,9.5700,-0.2300,-0.2100,-0.6250,1.0625,0.8750,88.1250,179.6875,0.0000,224.8125,
2025-03-09 15:05:02.495,9.6500,-0.2700,-0.2700,1.0000,-0.3750,0.6250,88.1250,179.6875,0.0000,224.8125,
2025-03-09 15:05:02.507,9.7000,-0.1700,-0.2400,1.0625,-1.3125,1.3750,88.1250,179.6250,0.0000,224.7500,
2025-03-09 15:05:02.518,9.7600,-0.0900,-0.1700,0.3750,-2.5625,3.0625,88.1250,179.6250,0.0000,224.7500,
2025-03-09 15:05:02.525,9.8000,-0.0800,-0.1500,-1.0000,-2.6250,2.8750,88.0625,179.5625,0.0000,224.7500,
2025-03-09 15:05:02.533,9.8200,-0.0900,-0.2300,-1.9375,-2.3750,2.3750,88.0625,179.5625,0.0000,224.6875,
2025-03-09 15:05:02.551,9.7600,-0.1600,-0.2600,-2.4375,-2.0000,1.6875,88.0000,179.5625,0.0000,224.7500,
2025-03-09 15:05:02.558,9.7500,-0.1600,-0.2900,-1.6875,-2.3125,1.3125,88.0000,179.5625,0.0000,224.7500,
2025-03-09 15:05:02.565,9.7700,-0.1300,-0.2800,-0.5000,-2.4375,0.6250,88.0000,179.5000,0.0000,224.7500,
2025-03-09 15:05:02.609,9.8300,-0.0200,-0.2600,1.3750,-2.3750,-0.5625,87.9375,179.5000,0.0000,224.6875,
2025-03-09 15:05:02.609,9.8700,-0.0900,-0.3000,1.3750,-2.0625,-0.8125,87.9375,179.5625,0.0000,224.6875,
2025-03-09 15:05:02.612,9.9400,-0.1300,-0.3700,0.0625,-1.6875,-0.1875,87.9375,179.5625,0.0000,224.6875,
2025-03-09 15:05:02.613,9.8400,-0.1200,-0.3300,-0.3125,-0.6250,-0.1875,87.9375,179.5625,0.0000,224.6875,
2025-03-09 15:05:02.616,9.7100,-0.1500,-0.3600,0.2500,-0.1250,-1.0625,87.9375,179.5625,0.0000,224.6875,
2025-03-09 15:05:02.622,9.6500,-0.1500,-0.2600,-0.5625,-0.3125,-0.9375,87.9375,179.5625,0.0000,224.7500,
2025-03-09 15:05:02.638,9.7300,-0.1300,-0.2600,-0.4375,-1.4375,-1.1875,87.8750,179.5625,0.0000,224.7500,
2025-03-09 15:05:02.647,9.8200,-0.0900,-0.2400,0.2500,-1.8125,-1.0625,87.8750,179.5625,0.0000,224.7500,
2025-03-09 15:05:02.659,9.9200,0.0000,-0.2400,0.3750,-2.5000,-0.6875,87.8750,179.5625,0.0000,224.7500,
2025-03-09 15:05:02.667,9.8500,-0.0300,-0.2600,-0.3750,-1.2500,-1.0000,87.8750,179.6250,0.0000,224.7500,
2025-03-09 15:05:02.672,9.7700,-0.1300,-0.3100,-1.7500,-0.6875,-0.6250,87.8750,179.6250,0.0000,224.8125,
2025-03-09 15:05:02.683,9.7100,-0.1800,-0.3400,-1.9375,-1.2500,0.2500,87.8125,179.6250,0.0000,224.8125,
2025-03-09 15:05:02.701,9.7300,-0.1400,-0.3300,-0.9375,-1.8750,0.3750,87.8125,179.6250,0.0000,224.8125,
2025-03-09 15:05:02.706,9.8100,-0.1800,-0.3500,-0.4375,-2.3750,0.1250,87.8125,179.6250,0.0000,224.8125,
2025-03-09 15:05:02.715,9.9100,-0.1400,-0.3700,0.3750,-1.5000,-1.1250,87.8125,179.6250,0.0000,224.8125,
2025-03-09 15:05:02.728,9.9200,-0.0600,-0.2500,0.2500,-0.4375,-1.8750,87.8125,179.6250,0.0000,224.8125,
2025-03-09 15:05:02.735,9.9500,-0.0300,-0.2600,1.3750,-0.0625,-1.9375,87.8125,179.6250,0.0000,224.8750,
2025-03-09 15:05:02.744,9.9600,-0.0800,-0.3800,1.4375,0.0000,-1.5000,87.8125,179.6875,0.0000,224.8750,
2025-03-09 15:05:02.761,9.9000,-0.0800,-0.3200,-0.4375,-0.0625,0.2500,87.8125,179.6875,0.0000,224.8750,
2025-03-09 15:05:02.765,9.7200,-0.1900,-0.3600,-1.0625,-0.1250,0.0625,87.8125,179.6875,0.0000,224.8750,
2025-03-09 15:05:02.780,9.6300,-0.1800,-0.3200,-1.2500,-0.1875,-0.5000,87.8125,179.6875,0.0000,224.8750,
2025-03-09 15:05:02.787,9.7000,-0.1600,-0.3400,-0.1250,-0.1250,-1.8750,87.8125,179.6875,0.0000,224.8750,
2025-03-09 15:05:02.801,9.7900,-0.0800,-0.2600,1.1250,0.0625,-2.4375,87.8125,179.6875,0.0000,224.8750,
2025-03-09 15:05:02.811,9.9500,-0.0300,-0.3400,2.4375,-0.1250,-2.8125,87.8125,179.7500,0.0000,224.8750,
2025-03-09 15:05:02.815,9.9700,-0.0400,-0.3100,1.2500,0.0000,-0.7500,87.8125,179.7500,0.0000,224.8750,
2025-03-09 15:05:02.822,9.8700,-0.1100,-0.3800,0.3125,0.0625,-0.2500,87.8125,179.7500,0.0000,224.8750,
2025-03-09 15:05:02.833,9.7900,-0.1300,-0.3400,-2.2500,-0.0625,1.4375,87.8125,179.7500,0.0000,224.9375,
2025-03-09 15:05:02.849,9.6600,-0.1400,-0.3300,-2.2500,-0.6875,1.5000,87.8125,179.6875,0.0000,224.9375,
2025-03-09 15:05:02.854,9.6700,-0.0700,-0.2900,-1.3750,-0.6250,-0.1250,87.8125,179.6875,0.0000,224.9375,
2025-03-09 15:05:02.865,9.7500,-0.0600,-0.3000,0.3750,-0.4375,-1.8125,87.8125,179.7500,0.0000,224.9375,
2025-03-09 15:05:02.910,9.9700,0.0000,-0.3000,0.8750,0.1875,-2.1875,87.8125,179.7500,0.0000,224.9375,
2025-03-09 15:05:02.910,10.0200,-0.0500,-0.3600,0.7500,0.6250,-1.5000,87.8125,179.7500,0.0000,224.9375,
2025-03-09 15:05:02.911,10.0400,-0.0500,-0.3200,0.1875,0.9375,0.0000,87.8125,179.7500,0.0000,224.9375,
2025-03-09 15:05:02.911,9.9700,-0.0900,-0.4000,0.4375,1.9375,-0.2500,87.8125,179.7500,0.0000,224.9375,
2025-03-09 15:05:02.915,9.6700,-0.1400,-0.3000,-0.3750,2.6250,-0.7500,87.8750,179.7500,0.0000,225.0000,
2025-03-09 15:05:02.922,9.6200,-0.2100,-0.3500,-0.6875,2.1250,0.1250,87.8750,179.7500,0.0000,225.0000,
2025-03-09 15:05:02.944,9.6900,-0.1600,-0.2900,0.0000,1.7500,-0.7500,87.8750,179.8125,0.0000,225.0000,
2025-03-09 15:05:02.944,9.8200,-0.0300,-0.2300,0.0000,1.8750,-1.6250,87.9375,179.8125,0.0000,225.0000,
2025-03-09 15:05:02.953,9.8600,0.0000,-0.2500,0.6875,2.8750,-2.8750,87.9375,179.8125,0.0000,225.0000,
2025-03-09 15:05:02.977,9.8900,-0.0200,-0.2900,0.9375,3.6875,-3.5000,88.0000,179.8750,0.0000,225.0625,
2025-03-09 15:05:02.977,9.8400,0.0000,-0.2600,1.8750,5.3125,-3.1250,88.0000,179.8750,0.0000,225.0625,
2025-03-09 15:05:02.989,9.7500,-0.0600,-0.2200,0.1250,6.3750,-3.3750,88.1250,179.9375,0.0000,225.1250,
2025-03-09 15:05:02.998,9.7100,0.0100,-0.2100,-3.5625,6.8750,-5.1875,88.1875,-179.9375,0.0000,225.1875,
2025-03-09 15:05:03.003,9.7300,-0.0300,-0.2500,-2.1875,6.9375,-6.0000,88.2500,-179.8750,0.0000,225.2500,
2025-03-09 15:05:03.019,9.8800,-0.0700,-0.3000,-0.9375,5.5000,-3.8125,88.2500,-179.8750,0.0000,225.3125,
2025-03-09 15:05:03.029,9.9700,-0.0100,-0.2900,1.2500,4.3750,-1.6875,88.3125,-179.8750,0.0000,225.3125,
2025-03-09 15:05:03.033,9.9400,0.0400,-0.2300,2.2500,5.1875,-0.3125,88.3750,-179.8750,0.0000,225.3125,
2025-03-09 15:05:03.043,9.9100,0.0100,-0.2300,3.0625,7.3125,0.2500,88.4375,-179.8750,0.0000,225.2500,
2025-03-09 15:05:03.057,9.7800,-0.0700,-0.2300,3.3750,10.0625,-0.3125,88.5625,-179.8750,0.0000,225.2500,
2025-03-09 15:05:03.063,9.7600,-0.0900,-0.1800,3.1875,12.2500,-1.4375,88.6875,-179.8125,0.0000,225.1875,
2025-03-09 15:05:03.074,9.7100,-0.0900,-0.1600,1.1875,11.0625,-0.3750,88.7500,-179.8125,0.0000,225.1875,
2025-03-09 15:05:03.085,9.7800,-0.0400,-0.1400,0.7500,8.5000,1.7500,88.8750,-179.8750,0.0000,225.1875,
2025-03-09 15:05:03.093,9.8800,-0.0400,-0.1900,2.1250,6.0000,4.9375,88.9375,-179.8750,0.0000,225.1250,
2025-03-09 15:05:03.105,9.8600,0.0200,-0.0900,1.0625,4.2500,9.5000,88.9375,179.9375,0.0000,225.0000,
2025-03-09 15:05:03.123,9.8300,0.0000,-0.1100,1.8125,4.6250,12.5625,89.0000,179.8125,0.0000,224.8750,
2025-03-09 15:05:03.123,9.6500,-0.1100,0.0000,1.5000,5.0625,12.8125,89.0000,179.6875,0.0000,224.6875,
2025-03-09 15:05:03.133,9.7100,-0.2100,-0.0600,1.3750,4.6250,12.0625,89.0000,179.5625,0.0000,224.5625,
2025-03-09 15:05:03.148,9.7700,-0.2000,-0.0500,0.6250,5.0625,8.9375,89.0000,179.5000,0.0000,224.5000,
2025-03-09 15:05:03.162,9.9300,-0.1400,-0.0400,-0.3750,5.7500,5.2500,89.0625,179.4375,0.0000,224.4375,
2025-03-09 15:05:03.164,10.0400,-0.1500,-0.1200,-0.9375,6.8750,2.5000,89.0625,179.4375,0.0000,224.4375,
2025-03-09 15:05:03.195,10.0200,-0.1500,-0.1200,-0.6250,8.0625,1.6250,89.1250,179.3750,0.0000,224.4375,
2025-03-09 15:05:03.225,9.8900,-0.2000,-0.1300,-0.4375,9.0000,2.1875,89.1875,179.3750,0.0000,224.3750,
2025-03-09 15:05:03.225,9.8600,-0.2000,-0.0500,0.8750,10.5625,1.3125,89.2500,179.3750,0.0000,224.3750,
2025-03-09 15:05:03.225,9.6900,-0.2100,-0.0600,1.9375,11.7500,-1.0625,89.3125,179.3750,0.0000,224.3750,
2025-03-09 15:05:03.225,9.7200,-0.2000,-0.0900,0.0625,12.5000,-1.6875,89.3750,179.3750,0.0000,224.3750,
2025-03-09 15:05:03.242,9.7300,-0.1500,0.0400,-2.6250,12.9375,-0.6250,89.3750,179.3750,0.0000,224.4375,
2025-03-09 15:05:03.242,9.7700,-0.1200,0.0700,-3.3750,12.6875,0.0000,89.3750,0.5625,0.0000,224.4375,
2025-03-09 15:05:03.243,9.8200,-0.1200,0.1100,-4.9375,10.6875,2.5000,89.3750,0.5625,0.0000,224.5000,
2025-03-09 15:05:03.253,9.8900,-0.0800,0.1000,-4.0000,9.4375,3.2500,89.3125,0.6250,0.0000,224.5000,
2025-03-09 15:05:03.268,9.8800,-0.0800,0.1300,-3.4375,9.8750,2.5625,89.2500,0.6250,0.0000,224.5000,
2025-03-09 15:05:03.273,9.8500,-0.1500,0.1000,-3.1875,10.6875,2.6250,89.1875,0.6250,0.0000,224.5000,
2025-03-09 15:05:03.283,9.8700,-0.2100,0.0400,-1.3125,12.3750,1.4375,89.0625,0.6875,0.0000,224.5000,
2025-03-09 15:05:03.297,9.9800,-0.3100,-0.0700,0.0000,15.3125,-1.1250,89.0000,0.6250,0.0000,224.5000,
2025-03-09 15:05:03.306,9.8700,-0.2500,0.1600,0.6875,17.8750,-3.2500,88.8750,0.6250,0.0000,224.5625,
2025-03-09 15:05:03.315,9.7600,-0.1200,0.3200,1.0625,16.8125,-5.3125,88.7500,0.5625,0.0000,224.5625,
2025-03-09 15:05:03.326,9.7200,-0.0500,0.4400,-0.7500,13.0000,-5.4375,88.6875,0.5000,0.0000,224.6250,
2025-03-09 15:05:03.334,9.5600,-0.1300,0.4000,-0.2500,11.7500,-6.2500,88.5625,0.4375,0.0000,224.6875,
2025-03-09 15:05:03.343,9.3100,0.0500,0.6500,-6.4375,18.1250,-8.7500,88.4375,0.3750,0.0000,224.8750,
2025-03-09 15:05:03.365,9.8800,-0.0900,0.4000,-19.3750,29.1250,-7.4375,88.1875,0.3125,0.0000,225.1250,
2025-03-09 15:05:03.365,10.0900,-0.0900,0.3300,-4.2500,12.6250,-3.8125,88.0625,0.2500,0.0000,225.1875,
2025-03-09 15:05:03.377,9.8300,-0.1200,0.3800,1.8750,5.8750,-0.8125,88.0000,0.2500,0.0000,225.1875,
2025-03-09 15:05:03.384,9.8000,-0.0500,0.4600,3.9375,8.8125,-3.8750,87.9375,0.2500,0.0000,225.1875,
2025-03-09 15:05:03.392,9.9400,-0.0600,0.5000,3.5625,10.6875,-5.5000,87.8750,0.1875,0.0000,225.1875,
2025-03-09 15:05:03.403,9.8300,-0.0500,0.4900,8.4375,4.4375,-4.9375,87.8125,0.1250,0.0000,225.1875,
2025-03-09 15:05:03.417,9.8000,-0.1800,0.3100,9.0625,4.3750,-5.8125,87.7500,0.0625,0.0000,225.1250,
2025-03-09 15:05:03.423,9.7100,-0.1700,0.3600,5.3750,4.7500,-3.6250,87.7500,0.0000,0.0000,225.1250,
2025-03-09 15:05:03.433,9.5900,-0.1500,0.4100,-4.1250,11.3750,-1.9375,87.6250,0.0000,0.0000,225.1875,
2025-03-09 15:05:03.450,9.9100,-0.0900,0.2600,-4.7500,8.6875,0.6875,87.5000,0.0000,0.0000,225.2500,
2025-03-09 15:05:03.454,9.8100,-0.0500,0.5000,0.1250,1.8125,2.1250,87.5000,0.0000,0.0000,225.1875,
2025-03-09 15:05:03.518,9.9000,-0.0800,0.4400,1.4375,2.1250,0.0000,87.5000,0.0000,0.0000,225.1875,
2025-03-09 15:05:03.518,9.9500,0.0500,0.5900,2.4375,2.8125,-0.3125,87.4375,0.0000,0.0000,225.1875,
2025-03-09 15:05:03.518,9.7300,-0.0200,0.4600,2.6875,4.1250,-1.1250,87.4375,0.0000,0.0000,225.1875,
2025-03-09 15:05:03.518,9.6100,0.0700,0.7700,-5.6250,14.5000,-3.3750,87.2500,0.0000,0.0000,225.2500,
2025-03-09 15:05:03.518,9.9900,-0.1200,0.3800,-8.5000,16.1250,-2.0625,87.1250,0.0000,0.0000,225.3125,
2025-03-09 15:05:03.518,9.8100,-0.1300,0.4800,-4.3125,11.6875,-0.8125,87.0000,0.0000,0.0000,225.3750,
2025-03-09 15:05:03.531,9.9600,-0.0800,0.5200,-3.3750,9.8750,1.7500,86.9375,0.0000,0.0000,225.3750,
2025-03-09 15:05:03.540,9.7900,-0.0600,0.6600,1.2500,7.1250,1.3750,86.8750,0.0000,0.0000,225.3750,
2025-03-09 15:05:03.543,9.7500,0.0100,0.7800,-1.0000,11.5000,1.5000,86.7500,0.0000,0.0000,225.3750,
2025-03-09 15:05:03.554,10.0400,-0.2000,0.6600,-2.5625,13.6250,1.3125,86.6250,0.0000,0.0000,225.3750,
2025-03-09 15:05:03.568,10.0700,-0.2100,0.7100,-5.8750,15.5625,2.0625,86.4375,0.0625,0.0000,225.4375,
2025-03-09 15:05:03.577,9.9800,-0.2100,0.6900,-7.1875,17.3750,2.0625,86.2500,0.0625,0.0000,225.4375,
2025-03-09 15:05:03.583,10.0400,-0.2400,0.6400,-10.3125,20.8750,1.9375,86.2500,0.0625,0.0000,225.4375,
2025-03-09 15:05:03.598,9.8400,-0.3000,0.5800,-10.4375,18.6250,2.0000,86.0625,0.1250,0.0000,225.5625,
2025-03-09 15:05:03.604,9.6400,-0.2000,0.6600,-9.2500,16.6875,1.9375,85.7500,0.1875,0.0000,225.6875,
2025-03-09 15:05:03.620,9.5500,-0.1300,0.7900,-9.3125,17.3125,1.3125,85.5625,0.1875,0.0000,225.7500,
2025-03-09 15:05:03.628,9.4300,-0.0300,0.9600,-8.2500,15.8750,1.0625,85.4375,0.1875,0.0000,225.8125,
2025-03-09 15:05:03.636,9.5100,0.1400,1.1900,-11.0625,18.6875,1.1250,85.4375,0.1875,0.0000,225.8125,
2025-03-09 15:05:03.643,9.7000,0.1400,1.2400,-10.6250,19.5625,1.3125,85.0625,0.2500,0.0000,226.0000,
2025-03-09 15:05:03.656,9.8800,0.1000,1.2800,-6.5000,17.5000,2.9375,84.8750,0.2500,0.0000,226.0000,
2025-03-09 15:05:03.664,9.9100,-0.0600,1.1400,-3.3125,15.1250,4.8125,84.7500,0.3125,0.0000,226.0000,
2025-03-09 15:05:03.682,9.7300,-0.0600,1.2200,0.3125,11.4375,3.3125,84.6250,0.3750,0.0000,225.9375,
2025-03-09 15:05:03.684,9.7600,0.1100,1.2300,-1.3750,15.9375,-0.0625,84.6250,0.3750,0.0000,225.9375,
2025-03-09 15:05:03.693,9.9900,0.0200,0.8600,-1.0625,16.7500,-4.2500,84.4375,0.3750,0.0000,225.9375,
2025-03-09 15:05:03.711,10.0800,0.0100,0.7700,-7.7500,21.5000,-5.6875,84.1250,0.2500,0.0000,226.1250,
2025-03-09 15:05:03.720,10.2400,-0.0400,0.7700,-12.8750,26.1250,-7.6250,83.8750,0.1875,0.0000,226.3125,
2025-03-09 15:05:03.725,10.0000,-0.1800,0.7700,-11.4375,22.3125,-8.0625,83.6250,0.1250,0.0000,226.5000,
2025-03-09 15:05:03.735,9.8800,-0.2200,0.8400,-11.7500,21.5000,-3.3750,83.6250,0.1250,0.0000,226.5000,
2025-03-09 15:05:03.748,9.9200,-0.1100,1.0700,-12.1875,25.7500,-2.0625,83.4375,0.1250,0.0000,226.6250,
2025-03-09 15:05:03.755,9.6500,-0.1800,1.1600,-5.8125,23.5625,-3.8750,82.9375,0.9375,0.0000,226.8750,
2025-03-09 15:05:03.767,9.4200,-0.2100,1.2900,-3.2500,22.0625,-1.2500,82.7500,0.8125,0.0000,226.8750,
2025-03-09 15:05:03.810,9.5400,-0.2000,1.3400,-0.9375,23.2500,-0.1250,82.5000,0.8125,0.0000,226.9375,
2025-03-09 15:05:03.810,9.6800,-0.0900,1.4300,-1.1875,22.8125,-0.1875,82.5000,0.8125,0.0000,226.9375,
2025-03-09 15:05:03.810,9.9100,0.0900,1.4500,-3.4375,21.3750,0.3750,82.3125,0.8125,0.0000,226.9375,
2025-03-09 15:05:03.810,10.1100,0.0700,1.4800,-6.8750,25.7500,-0.3125,81.8125,0.8750,0.0000,227.0000,
2025-03-09 15:05:03.825,9.9900,0.0200,1.5200,-7.1875,26.4375,-3.0000,81.5625,0.6875,0.0000,227.1250,
2025-03-09 15:05:03.829,9.6600,-0.0100,1.5500,-7.1250,26.7500,-5.2500,81.3125,0.4375,0.0000,227.1875,
2025-03-09 15:05:03.839,9.4900,-0.2300,1.5300,-8.2500,33.3125,-5.2500,81.3125,0.4375,0.0000,227.1875,
2025-03-09 15:05:03.847,9.8600,-0.2700,1.5700,-13.2500,40.3125,-2.3750,81.0000,0.1250,0.0000,227.3125,
2025-03-09 15:05:03.860,9.6500,-0.2300,1.6800,-9.1250,30.6250,-1.4375,80.3125,0.1875,0.0000,227.5625,
2025-03-09 15:05:03.866,9.4100,-0.2300,1.6600,-3.3750,21.3750,-2.6875,80.1250,0.1250,0.0000,227.5625,
2025-03-09 15:05:03.878,9.3400,-0.0600,1.7000,-0.6250,19.7500,-3.8750,79.9375,0.0000,0.0000,227.6250,
2025-03-09 15:05:03.895,9.3400,0.0200,1.7100,-2.0000,18.4375,-1.0000,79.9375,0.0000,0.0000,227.6250,
2025-03-09 15:05:03.928,9.4100,0.0500,1.8500,-5.3125,20.2500,1.0000,79.7500,0.0000,0.0000,227.6250,
2025-03-09 15:05:03.928,9.7400,0.1200,1.9700,-4.9375,22.1875,-1.0625,79.3125,0.0000,0.0000,227.7500,
2025-03-09 15:05:03.928,9.6900,0.1000,2.0600,-1.6875,22.5000,-2.7500,79.1250,-0.0625,0.0000,227.7500,
2025-03-09 15:05:03.928,9.5700,0.0600,2.0600,-0.8125,21.1875,-4.5625,78.8750,-0.2500,0.0000,227.8125,
2025-03-09 15:05:03.933,9.5900,0.0800,1.9500,-1.4375,26.6875,-5.6250,78.8750,-0.2500,0.0000,227.8125,
2025-03-09 15:05:03.943,9.5900,0.0800,1.9500,-4.8750,32.5625,-3.9375,78.6250,-0.5000,0.0000,227.8750,
2025-03-09 15:05:03.954,9.4000,-0.3000,2.0200,-5.8125,26.1250,0.6875,78.0625,-0.5000,0.0000,228.0000,
2025-03-09 15:05:03.965,9.3000,-0.1800,2.0000,-9.0000,25.8125,5.0000,77.8125,-0.1875,0.0000,228.0000,
2025-03-09 15:05:03.993,9.2700,-0.1900,2.1900,-6.7500,25.7500,4.9375,77.5625,0.1250,0.0000,228.0000,
2025-03-09 15:05:03.993,9.1000,-0.2100,2.0200,-3.4375,17.9375,2.1250,77.5625,0.1250,0.0000,228.0000,
2025-03-09 15:05:03.997,9.5400,-0.0700,2.1700,-3.3750,22.6250,3.3125,77.3750,0.2500,0.0000,228.0000,
2025-03-09 15:05:04.009,9.5600,-0.1200,2.2800,-2.4375,26.6250,1.6875,76.9375,0.5000,0.0000,228.0000,
2025-03-09 15:05:04.015,9.5800,-0.0200,2.3200,-3.6875,23.7500,1.5000,76.6875,0.5625,0.0000,228.0625,
2025-03-09 15:05:04.025,9.7100,0.0000,2.4000,-7.3750,29.3750,0.6875,76.3750,0.6875,0.0000,228.0625,
2025-03-09 15:05:04.033,9.6500,-0.0100,2.4500,-11.1250,32.1250,-0.0625,76.3750,0.6875,0.0000,228.0625,
2025-03-09 15:05:04.047,9.5400,0.0000,2.4100,-11.2500,27.0625,1.1250,76.1250,0.7500,0.0000,228.1875,
2025-03-09 15:05:04.055,9.4200,0.0000,2.4100,-9.0000,24.5625,2.8750,75.5625,1.0625,0.0000,228.3125,
2025-03-09 15:05:04.065,9.5600,-0.1000,2.2600,-8.3125,27.0625,4.8750,75.3125,1.3125,0.0000,228.3125,
2025-03-09 15:05:04.109,9.6900,-0.2300,2.3400,-9.3750,29.8125,5.4375,75.0625,1.5625,0.0000,228.3125,
2025-03-09 15:05:04.112,9.6900,-0.2300,2.3400,-9.9375,27.5625,1.6250,75.0625,1.5625,0.0000,228.3125,
2025-03-09 15:05:04.112,9.3400,-0.3600,2.4500,-11.8125,24.5625,-0.4375,74.8125,1.7500,0.0000,228.3750,
2025-03-09 15:05:04.112,9.3700,-0.1600,2.7800,-13.2500,27.2500,-0.3125,74.3125,1.9375,0.0000,228.5625,
2025-03-09 15:05:04.114,9.5400,-0.1700,2.8900,-15.1250,33.3125,-2.1875,73.9375,1.9375,0.0000,228.6875,
2025-03-09 15:05:04.130,9.4200,-0.2100,2.8800,-10.9375,31.6250,-3.8125,73.9375,1.9375,0.0000,228.6875,
2025-03-09 15:05:04.138,9.4200,-0.2100,2.8800,-10.9375,31.6250,-3.8125,73.6875,1.8750,0.0000,228.8125,
2025-03-09 15:05:04.146,9.2500,-0.1300,2.8800,-4.6250,33.9375,-1.8125,73.3750,1.8125,0.0000,228.8750,
2025-03-09 15:05:04.155,9.1700,-0.1100,3.2300,-7.6250,45.8750,-0.6875,73.0625,1.7500,0.0000,228.9375,
2025-03-09 15:05:04.168,8.9700,-0.1900,3.2000,-5.6250,40.9375,0.3750,72.6250,1.7500,0.0000,229.0000,
2025-03-09 15:05:04.181,8.3900,-0.0500,3.3400,-3.1250,30.5000,2.2500,72.2500,1.8125,0.0000,229.0625,
2025-03-09 15:05:04.183,8.3900,-0.0500,3.3400,-3.0000,35.9375,8.1875,71.9375,1.8750,0.0000,229.0625,
2025-03-09 15:05:04.196,9.1900,-0.0700,3.4100,-5.3750,45.2500,7.1250,71.5625,2.0625,0.0000,229.0000,
2025-03-09 15:05:04.209,9.4500,-0.3400,3.1800,-0.6875,42.1875,4.5625,71.1250,2.3125,0.0000,229.0000,
2025-03-09 15:05:04.214,9.4600,-0.4100,3.1000,-1.1250,36.8125,3.0000,70.7500,2.3750,0.0000,228.9375,
2025-03-09 15:05:04.237,11.1400,-0.0300,4.3700,-6.7500,33.3750,2.4375,70.3750,2.4375,0.0000,228.9375,
2025-03-09 15:05:04.238,11.1400,-0.0300,4.3700,-6.7500,33.3750,2.4375,70.0625,2.5000,0.0000,228.9375,
2025-03-09 15:05:04.243,9.6000,0.2000,4.1900,-6.2500,44.4375,-10.0625,69.6875,2.6875,0.0000,228.9375,
2025-03-09 15:05:04.258,7.2800,0.3000,3.9000,-11.3125,41.5625,-17.0625,69.3125,2.4375,0.0000,229.0625,
2025-03-09 15:05:04.266,9.3000,-0.4400,3.9400,-22.0625,38.4375,-2.0000,68.8750,2.0625,0.0000,229.3125,
2025-03-09 15:05:04.275,8.6900,-0.6000,3.6900,-17.4375,24.0000,-0.3750,68.5000,2.1875,0.0000,229.5000,
2025-03-09 15:05:04.292,8.6900,-0.6000,3.6900,-5.5625,13.3750,-4.9375,68.3125,2.3750,0.0000,229.6250,
2025-03-09 15:05:04.298,8.4200,-0.5600,3.6200,-6.5625,15.1875,-3.3750,68.1250,2.2500,0.0000,229.6875,
2025-03-09 15:05:04.305,9.0400,-0.1700,3.8600,-12.0000,27.3125,0.5625,68.0000,2.2500,0.0000,229.7500,
2025-03-09 15:05:04.317,9.2400,-0.2900,3.9500,-26.6250,54.6250,3.8125,67.7500,2.3125,0.0000,229.8750,
2025-03-09 15:05:04.325,9.3000,-0.3700,3.9800,-21.8125,46.8750,2.0000,67.1875,2.6250,0.0000,230.0000,
2025-03-09 15:05:04.335,9.3000,-0.3700,3.9800,-4.5000,17.3125,-1.1875,66.7500,2.8125,0.0000,230.1250,
2025-03-09 15:05:04.351,9.2000,-0.4300,3.6500,0.7500,8.8750,-2.1250,66.5625,2.8125,0.0000,230.1875,
2025-03-09 15:05:04.355,9.0000,-0.4300,3.4900,-3.6250,15.0000,-1.1875,66.5000,2.7500,0.0000,230.1875,
2025-03-09 15:05:04.365,9.5800,-0.1200,4.0700,-12.9375,30.7500,4.6250,66.3750,2.7500,0.0000,230.1875,
2025-03-09 15:05:04.422,9.5500,-0.1300,4.1900,-21.7500,52.1250,7.1875,66.0625,2.9375,0.0000,230.2500,
2025-03-09 15:05:04.422,9.2200,-0.2500,4.1000,-16.3125,43.0625,3.5000,65.1250,3.4375,0.0000,230.3750,
2025-03-09 15:05:04.422,8.8600,-0.2900,4.1800,-4.6250,15.2500,2.2500,64.9375,3.5000,0.0000,230.3750,
2025-03-09 15:05:04.422,8.6800,-0.3200,4.1600,-3.4375,18.5000,0.0000,64.8125,3.5625,0.0000,230.3750,
2025-03-09 15:05:04.446,8.4600,-0.3500,4.1200,-2.0000,20.6875,-0.3125,64.4375,3.5625,0.0000,230.4375,
2025-03-09 15:05:04.446,8.5600,-0.2800,4.2000,-1.5000,27.5000,1.1250,64.1875,3.5625,0.0000,230.5000,
2025-03-09 15:05:04.454,9.0000,-0.2800,4.6200,-12.8125,56.0625,5.0000,63.7500,3.6875,0.0000,230.5000,
2025-03-09 15:05:04.477,8.9500,-0.3900,4.5200,-5.3750,39.3125,1.2500,63.1875,3.8125,0.0000,230.5625,
2025-03-09 15:05:04.484,8.7500,-0.3000,4.5500,1.4375,14.0625,-1.0625,62.6875,3.8125,0.0000,230.5625,
2025-03-09 15:05:04.497,8.7200,-0.3200,4.4900,-0.8125,15.1875,-0.6875,62.5625,3.8125,0.0000,230.5625,
2025-03-09 15:05:04.505,8.7100,-0.3400,4.3100,2.6875,23.1250,-5.0625,62.3750,3.6875,0.0000,230.6250,
2025-03-09 15:05:04.527,8.7800,-0.4700,4.7000,-11.3750,58.9375,3.8125,61.8125,3.4375,0.0000,230.6875,
2025-03-09 15:05:04.543,8.9400,-0.3000,5.1000,-21.9375,66.3125,10.3125,60.6250,3.9375,0.0000,230.7500,
2025-03-09 15:05:04.556,8.6500,-0.3200,5.1200,3.8750,15.6875,5.0625,60.3125,4.1250,0.0000,230.6875,
2025-03-09 15:05:04.583,8.4600,-0.3700,5.1500,9.8125,28.1250,1.0625,59.9375,4.1250,0.0000,230.5625,
2025-03-09 15:05:04.592,8.6100,-0.4100,5.2000,10.0625,39.7500,3.8125,59.2500,3.9375,0.0000,230.4375,
2025-03-09 15:05:04.607,8.5500,-0.1600,5.5700,-0.6250,73.8750,6.8125,58.6875,3.9375,0.0000,230.3750,
2025-03-09 15:05:04.625,8.0000,-0.6400,5.3100,1.6875,41.0000,-2.0625,57.3750,3.8750,0.0000,230.3125,
2025-03-09 15:05:04.647,7.6500,-0.5700,5.4000,-3.9375,34.8125,1.4375,56.6250,3.8125,0.0000,230.3125,
2025-03-09 15:05:04.657,8.1400,-0.4200,6.0100,-18.2500,82.3125,15.7500,56.1250,4.0000,0.0000,230.3125,
2025-03-09 15:05:04.709,7.6500,-0.5300,5.8600,3.9375,34.0625,2.1875,54.5625,4.5625,0.0000,230.2500,
2025-03-09 15:05:04.712,7.8900,-0.3500,6.1300,6.3125,20.0625,-0.1875,54.0000,4.4375,0.0000,230.1875,
2025-03-09 15:05:04.712,7.7000,-0.2500,6.2000,1.5625,30.3125,-2.6875,53.8125,4.3750,0.0000,230.1875,
2025-03-09 15:05:04.745,7.3100,-0.4300,5.7800,4.0625,42.5000,-4.0625,53.1250,4.1875,0.0000,230.2500,
2025-03-09 15:05:04.745,7.5300,-0.4300,6.0700,0.5625,57.7500,0.8125,52.1875,4.0000,0.0000,230.2500,
2025-03-09 15:05:04.766,7.5300,-0.3600,6.2200,5.7500,44.3125,2.2500,51.5000,4.0625,0.0000,230.2500,
2025-03-09 15:05:04.776,7.6800,-0.5000,6.0300,22.5000,27.3125,0.9375,50.8750,3.7500,0.0000,230.1250,
2025-03-09 15:05:04.799,8.0700,-0.8000,6.0100,21.9375,36.6875,3.0625,50.2500,3.3125,0.0000,230.0000,
2025-03-09 15:05:04.809,7.6200,-0.6800,6.2600,2.0000,38.3750,1.9375,49.8125,3.2500,0.0000,229.9375,
2025-03-09 15:05:04.827,7.2500,-0.2800,6.5400,-0.1875,33.3125,5.1250,49.1250,3.2500,0.0000,229.8750,
2025-03-09 15:05:04.850,7.1500,-0.2600,6.6300,4.1250,34.6875,3.3750,48.4375,3.3125,0.0000,229.7500,
2025-03-09 15:05:04.857,7.0700,-0.3200,6.6600,8.6250,38.4375,1.5625,48.1250,3.2500,0.0000,229.7500,
2025-03-09 15:05:04.880,7.2000,-0.5800,6.6700,-0.8750,51.1250,13.8125,47.3125,3.1250,0.0000,229.6250,
2025-03-09 15:05:04.893,7.3400,-0.3200,7.1800,-5.7500,51.2500,17.0625,46.3125,3.4375,0.0000,229.3750,
2025-03-09 15:05:04.908,7.2700,-0.4000,7.1600,7.7500,33.1875,3.5000,45.9375,3.5000,0.0000,229.2500,
2025-03-09 15:05:04.945,6.8500,-0.5100,6.8700,9.1875,43.6250,-2.1250,45.2500,3.3125,0.0000,229.1875,
2025-03-09 15:05:04.945,6.6200,-0.5300,7.0100,0.7500,39.5625,-1.6250,44.4375,3.1250,0.0000,229.1250,
2025-03-09 15:05:04.955,6.7400,-0.4400,7.1800,-1.3750,24.6875,-0.4375,44.1250,3.1250,0.0000,229.1875,
2025-03-09 15:05:05.015,6.7700,-0.4500,7.2400,-1.8125,23.1875,5.1250,43.6875,3.1250,0.0000,229.1875,
2025-03-09 15:05:05.017,7.0600,-0.5600,7.4200,1.9375,27.0625,7.2500,43.1875,3.2500,0.0000,229.0625,
2025-03-09 15:05:05.017,7.0800,-0.5000,7.4500,8.0000,38.6250,1.9375,42.8750,3.1875,0.0000,229.0000,
2025-03-09 15:05:05.034,6.6900,-0.4400,7.5900,-1.3750,55.6250,8.5625,42.0625,3.1250,0.0000,228.9375,
2025-03-09 15:05:05.047,6.5200,-0.3900,7.7600,-4.3750,72.7500,9.9375,40.8125,3.2500,0.0000,228.7500,
2025-03-09 15:05:05.061,6.3600,-0.4300,7.8000,-0.6875,44.5625,-0.3125,40.0625,3.3125,0.0000,228.7500,
2025-03-09 15:05:05.077,6.2900,-0.5600,7.6600,-2.4375,38.1875,-4.8750,39.3125,3.1875,0.0000,228.8125,
2025-03-09 15:05:05.097,6.2800,-0.5400,7.8300,-9.0625,36.8125,1.4375,38.5625,3.2500,0.0000,228.8750,
2025-03-09 15:05:05.106,6.1400,-0.4800,7.8600,-9.0625,39.8125,4.6250,38.1875,3.3750,0.0000,228.8750,
2025-03-09 15:05:05.128,6.0100,-0.3000,8.2700,-0.1875,50.6250,6.1250,37.3125,3.5000,0.0000,228.8125,
2025-03-09 15:05:05.144,6.0300,-0.7400,8.0500,2.4375,62.1250,4.2500,36.1875,3.5000,0.0000,228.7500,
2025-03-09 15:05:05.158,5.7900,-0.7700,8.1200,-16.9375,104.1875,20.0625,35.3750,3.6250,0.0000,228.6875,
2025-03-09 15:05:05.180,5.1100,-0.6200,8.0900,-6.6875,41.8750,12.4375,33.6250,4.0625,0.0000,228.5000,
2025-03-09 15:05:05.194,5.1700,-0.7600,8.3600,-8.4375,40.6250,10.8750,32.8125,4.3125,0.0000,228.3125,
2025-03-09 15:05:05.219,5.3800,-0.7000,8.6400,-8.8125,45.3125,9.2500,32.3750,4.4375,0.0000,228.2500,
2025-03-09 15:05:05.226,5.3500,-0.9200,8.7600,0.1875,37.6250,3.4375,31.5625,4.6250,0.0000,228.1875,
2025-03-09 15:05:05.244,4.9900,-0.8300,8.9000,1.0000,41.0000,2.5000,30.7500,4.6250,0.0000,228.1250,
2025-03-09 15:05:05.257,4.8400,-0.9100,8.8600,3.8125,44.6875,3.0625,30.3125,4.5625,0.0000,228.1250,
2025-03-09 15:05:05.313,4.3800,-0.8900,8.8400,-0.3125,51.0000,2.8750,29.3750,4.5000,0.0000,228.0000,
2025-03-09 15:05:05.323,4.3700,-0.8200,9.1500,-3.2500,49.7500,2.1250,28.4375,4.5000,0.0000,228.0000,
2025-03-09 15:05:05.323,4.5800,-0.9000,9.2600,-6.2500,46.1250,2.5625,28.0000,4.5625,0.0000,228.0000,
2025-03-09 15:05:05.331,4.5100,-0.8200,9.3500,-7.6250,39.1875,2.6250,27.1875,4.6875,0.0000,228.0000,
2025-03-09 15:05:05.342,4.2000,-0.6000,9.4300,-4.6875,44.5625,-4.3125,26.3750,4.7500,0.0000,228.1250,
2025-03-09 15:05:05.360,3.8600,-0.7600,9.1500,-1.3750,48.6250,-11.9375,25.9375,4.6875,0.0000,228.2500,
2025-03-09 15:05:05.377,3.8200,-0.8900,9.2300,-2.8125,45.6250,-11.6250,25.0000,4.5625,0.0000,228.5625,
2025-03-09 15:05:05.399,4.0700,-0.9100,9.3900,-3.9375,41.4375,-2.7500,24.2500,4.5625,0.0000,228.6875,
2025-03-09 15:05:05.406,4.2800,-1.0100,9.5300,-3.7500,40.3125,-1.1875,23.8125,4.6250,0.0000,228.6875,
2025-03-09 15:05:05.428,3.9900,-0.8900,9.3500,-0.6250,44.8125,-4.5000,23.0000,4.5625,0.0000,228.8125,
2025-03-09 15:05:05.443,3.3500,-0.7700,9.0800,-4.0625,52.0625,-10.2500,22.0625,4.5000,0.0000,229.0000,
2025-03-09 15:05:05.458,3.3700,-0.9300,9.0100,-4.4375,50.3125,-12.8750,21.5625,4.5000,0.0000,229.1875,
2025-03-09 15:05:05.476,3.6700,-0.9300,9.3400,-8.5000,42.6875,-8.3750,20.7500,4.5625,0.0000,229.4375,
2025-03-09 15:05:05.496,3.8900,-0.9600,9.4000,-5.5000,43.8125,-2.1250,19.8750,4.6250,0.0000,229.5625,
2025-03-09 15:05:05.512,3.7300,-0.8600,9.3800,-7.3125,49.2500,-0.6250,19.4375,4.6875,0.0000,229.5625,
2025-03-09 15:05:05.529,2.8900,-0.5500,9.0700,-6.1250,63.3750,-3.1250,18.3125,4.7500,0.0000,229.6875,
2025-03-09 15:05:05.545,2.7300,-0.9200,9.0000,-7.9375,66.8125,-8.2500,17.0000,4.8125,0.0000,229.8750,
2025-03-09 15:05:05.558,2.9300,-1.0500,9.1300,-5.6875,65.0000,-7.8125,16.3750,4.8125,0.0000,230.0000,
2025-03-09 15:05:05.597,2.6800,-1.3300,8.9300,-4.7500,64.3750,-1.6250,15.1250,4.8750,0.0000,230.1250,
2025-03-09 15:05:05.614,2.6600,-0.7100,9.4700,-9.1250,70.4375,9.5000,13.8125,5.0625,0.0000,230.0625,
2025-03-09 15:05:05.614,2.3700,-0.5000,9.5500,-6.4375,71.0000,8.2500,13.1250,5.1250,0.0000,230.0625,
2025-03-09 15:05:05.635,1.6500,-0.9100,9.2500,3.1875,80.0000,-6.3750,11.6250,5.0625,0.0000,230.1250,
2025-03-09 15:05:05.645,1.6500,-1.1800,9.1200,8.5000,83.1250,-16.2500,10.0625,4.8125,0.0000,230.5000,
2025-03-09 15:05:05.660,1.7000,-1.3000,9.0600,8.0625,75.3125,-15.0625,9.3125,4.6875,0.0000,230.6875,
2025-03-09 15:05:05.676,1.6300,-1.2100,9.2400,2.2500,71.0000,0.2500,7.9375,4.6250,0.0000,230.8125,
2025-03-09 15:05:05.699,0.7500,-0.6700,9.2500,5.6250,80.0000,5.1875,6.4375,4.5000,0.0000,230.7500,
2025-03-09 15:05:05.706,0.8200,-0.4500,9.6700,5.3750,80.8750,5.1250,5.6875,4.5000,0.0000,230.7500,
2025-03-09 15:05:05.719,1.0000,-0.5500,9.8300,5.3125,79.1875,1.3750,4.9375,4.4375,0.0000,230.7500,
2025-03-09 15:05:05.738,0.3900,-1.0800,9.2700,11.1875,80.0625,-20.0625,3.3750,4.1875,0.0000,231.0625,
2025-03-09 15:05:05.748,0.0800,-1.2200,9.0100,6.5000,79.6875,-20.3750,2.6250,4.1250,0.0000,231.3125,
2025-03-09 15:05:05.769,-0.1000,-1.1000,9.0000,3.7500,77.6250,-14.6875,1.8750,4.0625,0.0000,231.5000,
2025-03-09 15:05:05.772,0.4800,-0.7200,9.8500,0.0625,68.9375,-5.5000,1.2500,4.0625,0.0000,231.5625,
2025-03-09 15:05:05.785,0.2300,-0.6600,9.7800,-1.1875,61.4375,-0.3125,0.6250,4.0625,0.0000,231.5625,
2025-03-09 15:05:05.804,-0.3000,-0.7700,9.4200,2.1250,61.5000,-2.8125,0.0625,4.0625,0.0000,231.6250,
2025-03-09 15:05:05.804,-0.5300,-0.8900,9.3800,1.3125,61.6875,-5.4375,-0.5000,4.0625,0.0000,231.6875,
2025-03-09 15:05:05.807,-0.6700,-0.6800,9.4900,-4.6250,62.1250,-5.8125,-1.0625,4.0625,0.0000,231.7500,
2025-03-09 15:05:05.820,-0.4200,-0.5600,9.8700,-8.7500,58.8125,-9.5000,-1.6250,4.1875,0.0000,231.8750,
2025-03-09 15:05:05.829,-0.1200,-0.7000,10.0600,-9.1250,54.0625,-14.0625,-2.1250,4.2500,0.0000,232.0625,
2025-03-09 15:05:05.847,-0.5700,-1.4300,9.3400,0.6875,50.5625,-18.7500,-3.1250,4.3125,0.0000,232.4375,
2025-03-09 15:05:05.855,-0.8000,-1.4300,9.2500,-1.3125,47.6250,-12.1250,-3.5625,4.3125,0.0000,232.5625,
2025-03-09 15:05:05.871,-0.9900,-1.0500,9.4100,-7.5000,44.1875,-3.0000,-4.0000,4.4375,0.0000,232.6250,
2025-03-09 15:05:05.914,-1.1800,-0.9200,9.5800,-9.5000,36.8125,2.3125,-4.3125,4.5000,0.0000,232.5625,
2025-03-09 15:05:05.915,-1.0300,-0.8400,9.8300,-6.7500,25.4375,3.0000,-4.5625,4.5625,0.0000,232.5625,
2025-03-09 15:05:05.915,-0.9500,-0.9100,9.9300,-5.5625,18.1875,-2.8750,-4.7500,4.6250,0.0000,232.6250,
2025-03-09 15:05:05.915,-0.5800,-1.0800,10.2800,-5.5625,18.1875,-2.8750,-4.9375,4.6875,0.0000,232.6250,
2025-03-09 15:05:05.915,-0.4800,-1.1500,10.2600,-7.5000,20.0000,-2.1250,-5.1250,4.7500,0.0000,232.6250,
2025-03-09 15:05:05.930,-0.5900,-1.2500,10.0200,-3.6875,23.7500,-1.6250,-5.3750,4.8125,0.0000,232.6875,
2025-03-09 15:05:05.937,-1.0300,-1.0500,9.6900,8.1250,26.5625,1.0000,-5.6250,4.6875,0.0000,232.6875,
2025-03-09 15:05:05.943,-1.4600,-1.0700,9.4300,7.7500,22.5625,1.6250,-5.8125,4.6250,0.0000,232.5625,
2025-03-09 15:05:05.953,-1.7300,-1.1300,9.2700,7.7500,22.5625,1.6250,-6.0625,4.5625,0.0000,232.5625,
2025-03-09 15:05:05.973,-1.7400,-1.1900,9.3000,1.1875,13.6875,3.8125,-6.1875,4.5625,0.0000,232.5000,
2025-03-09 15:05:05.973,-1.0300,-1.2300,9.9600,-9.6875,-7.6250,13.2500,-6.1250,4.6250,0.0000,232.3750,
2025-03-09 15:05:05.982,-0.6100,-1.0700,10.2900,-12.3125,-8.6250,18.3125,-6.0625,4.7500,0.0000,232.1875,
2025-03-09 15:05:05.998,-0.1800,-0.8500,10.7700,-12.1875,0.5625,17.8750,-6.0625,4.8125,0.0000,231.9375,
2025-03-09 15:05:06.004,-0.0600,-0.8300,10.7900,-5.0000,15.8750,9.6250,-6.2500,4.8750,0.0000,231.8750,
2025-03-09 15:05:06.015,-1.1900,-0.9000,9.7200,0.1250,26.1875,3.5000,-6.5000,4.8750,0.0000,231.8125,
2025-03-09 15:05:06.025,-1.3400,-0.8700,9.6600,2.0000,28.7500,-0.0625,-6.7500,4.8750,0.0000,231.8125,
2025-03-09 15:05:06.033,-1.5800,-0.8800,9.5600,4.8750,25.5625,-5.5000,-7.0000,4.8125,0.0000,231.9375,
2025-03-09 15:05:06.043,-1.8000,-0.9800,9.4100,6.5000,19.1875,-7.6250,-7.1875,4.7500,0.0000,231.9375,
2025-03-09 15:05:06.063,-1.7900,-1.0200,9.4700,4.9375,12.2500,-4.7500,-7.3125,4.7500,0.0000,232.0000,
2025-03-09 15:05:06.070,-1.7800,-1.0000,9.3900,0.0000,6.1875,1.3750,-7.3750,4.7500,0.0000,232.0000,
2025-03-09 15:05:06.081,-1.6700,-0.9700,9.3800,-7.5625,1.1250,8.0625,-7.3750,4.8125,0.0000,231.9375,
2025-03-09 15:05:06.087,-1.2000,-0.7600,9.7500,-13.8750,-0.0625,11.1875,-7.3750,4.8750,0.0000,231.8125,
2025-03-09 15:05:06.093,-1.1900,-0.7400,9.7600,-12.5000,1.3750,7.8125,-7.4375,5.0000,0.0000,231.5625,
2025-03-09 15:05:06.104,-1.1500,-0.8600,9.6600,-8.3125,2.8750,2.1250,-7.4375,5.1250,0.0000,231.5625,
2025-03-09 15:05:06.121,-1.1800,-1.1500,9.5500,-3.8750,2.8750,-2.1250,-7.4375,5.1250,0.0000,231.5625,
2025-03-09 15:05:06.126,-1.1100,-1.3000,9.5500,-1.2500,1.5000,-3.9375,-7.5000,5.1250,0.0000,231.6250,
2025-03-09 15:05:06.136,-1.0200,-1.3400,9.5700,-3.0625,0.6250,-1.8750,-7.5000,5.1875,0.0000,231.6250,
2025-03-09 15:05:06.147,-0.9400,-1.3200,9.5600,-5.9375,0.3750,1.4375,-7.5000,5.2500,0.0000,231.5625,
2025-03-09 15:05:06.153,-1.0200,-1.1200,9.4700,-8.7500,-0.1875,4.7500,-7.5000,5.3125,0.0000,231.5000,
2025-03-09 15:05:06.162,-1.0500,-0.9800,9.4400,-8.3125,-1.5625,6.5625,-7.5000,5.3750,0.0000,231.4375,
2025-03-09 15:05:06.215,-1.0100,-0.8800,9.5200,-7.2500,-2.8750,7.1250,-7.4375,5.4375,0.0000,231.3750,
2025-03-09 15:05:06.215,-0.7500,-0.9700,9.8000,-5.1250,-1.6875,4.4375,-7.4375,5.5000,0.0000,231.3125,
2025-03-09 15:05:06.217,-0.9500,-1.1000,9.6300,-2.5000,2.7500,-1.8125,-7.4375,5.5000,0.0000,231.2500,
2025-03-09 15:05:06.218,-1.1400,-1.1600,9.4700,-1.5625,5.6250,-5.1875,-7.5000,5.5625,0.0000,231.3125,
2025-03-09 15:05:06.218,-1.2000,-1.1400,9.3900,-1.0625,5.9375,-6.7500,-7.5625,5.5625,0.0000,231.3750,
2025-03-09 15:05:06.230,-1.0900,-1.1600,9.4600,0.2500,5.4375,-7.7500,-7.5625,5.6250,0.0000,231.5000,
2025-03-09 15:05:06.239,-0.9700,-1.1900,9.5200,0.1875,5.1250,-6.2500,-7.6250,5.6250,0.0000,231.5625,
2025-03-09 15:05:06.244,-0.9300,-1.3100,9.5500,-0.9375,5.8750,-3.5000,-7.6250,5.6875,0.0000,231.4375,
2025-03-09 15:05:06.253,-1.1600,-1.5600,9.3200,0.3125,5.5625,-1.2500,-7.6875,5.6875,0.0000,231.4375,
2025-03-09 15:05:06.270,-1.2000,-1.5100,9.4200,-0.7500,4.3125,1.5625,-7.7500,5.6875,0.0000,231.4375,
2025-03-09 15:05:06.281,-1.3200,-1.3900,9.5100,-1.4375,3.6875,3.6250,-7.8125,5.6875,0.0000,231.3750,
2025-03-09 15:05:06.283,-1.3600,-1.3200,9.5400,-2.5000,4.0000,4.1875,-7.8125,5.6875,0.0000,231.3750,
2025-03-09 15:05:06.295,-1.5600,-1.1100,9.5500,-2.0625,4.7500,3.1250,-7.8750,5.6875,0.0000,231.3125,
2025-03-09 15:05:06.303,-1.6100,-1.0600,9.4700,-1.2500,4.3125,1.0625,-7.9375,5.7500,0.0000,231.3125,
2025-03-09 15:05:06.314,-1.7000,-0.8900,9.5400,-2.0000,2.8750,0.1875,-7.9375,5.7500,0.0000,231.3125,
2025-03-09 15:05:06.334,-1.4700,-1.0900,9.6200,-0.6875,1.4375,-1.7500,-7.9375,5.7500,0.0000,231.3125,
2025-03-09 15:05:06.334,-1.4000,-1.0600,9.7700,-1.3750,0.6875,-2.8750,-7.9375,5.7500,0.0000,231.3125,
2025-03-09 15:05:06.343,-1.2200,-1.0800,9.9200,-1.1875,1.3125,-3.0625,-8.0000,5.8125,0.0000,231.2500,
2025-03-09 15:05:06.355,-1.3100,-1.2800,9.8000,1.7500,2.5625,-4.8125,-8.0000,5.7500,0.0000,231.3125,
2025-03-09 15:05:06.365,-1.3700,-1.3800,9.6800,0.3750,2.4375,-2.0625,-8.0000,5.7500,0.0000,231.3125,
2025-03-09 15:05:06.373,-1.3700,-1.2900,9.7100,-0.3125,1.1875,0.6875,-8.0000,5.7500,0.0000,231.3125,
2025-03-09 15:05:06.389,-1.4300,-1.1900,9.6600,-0.8125,-0.4375,1.6250,-8.0625,5.8125,0.0000,231.3125,
2025-03-09 15:05:06.393,-1.2900,-0.9700,9.9000,-3.3125,-0.9375,2.0625,-8.0000,5.8125,0.0000,231.2500,
2025-03-09 15:05:06.403,-1.3400,-0.9700,9.9200,-3.0625,0.0000,-0.6875,-8.0000,5.8750,0.0000,231.2500,
2025-03-09 15:05:06.414,-1.2700,-1.1300,9.9000,-1.5000,0.3750,-2.7500,-8.0000,5.8750,0.0000,231.3125,
2025-03-09 15:05:06.424,-1.3600,-1.2600,9.7700,0.0000,1.0000,-3.7500,-8.0000,5.8750,0.0000,231.3125,
2025-03-09 15:05:06.434,-1.4300,-1.3700,9.6500,0.0000,0.0625,-1.8750,-8.0000,5.8750,0.0000,231.3750,
2025-03-09 15:05:06.450,-1.3600,-1.2500,9.7000,-0.0625,-1.2500,-0.3750,-8.0000,5.9375,0.0000,231.3125,
2025-03-09 15:05:06.453,-1.3800,-1.2300,9.7100,-1.7500,-1.4375,0.9375,-8.0000,5.9375,0.0000,231.3125,
2025-03-09 15:05:06.465,-1.3600,-1.0800,9.7400,-2.3125,-1.1250,0.3125,-8.0000,6.0000,0.0000,231.3125,
2025-03-09 15:05:06.481,-1.5000,-0.9200,9.6600,-1.4375,-0.6875,-1.8750,-8.0000,6.0000,0.0000,231.3125,
2025-03-09 15:05:06.510,-1.5100,-0.9400,9.6100,1.0625,-1.4375,-4.5625,-7.9375,6.0000,0.0000,231.3750,
2025-03-09 15:05:06.510,-1.5600,-1.0600,9.5200,3.5000,-2.4375,-6.8125,-7.9375,5.9375,0.0000,231.3750,
2025-03-09 15:05:06.510,-1.4100,-1.4600,9.5500,3.3125,-4.3125,-6.7500,-7.8750,5.9375,0.0000,231.4375,
2025-03-09 15:05:06.514,-1.3400,-1.3500,9.6600,1.6875,-5.0000,-4.8750,-7.8125,5.9375,0.0000,231.5000,
2025-03-09 15:05:06.523,-1.2800,-1.4400,9.6100,2.2500,-5.1250,-4.0000,-7.7500,5.9375,0.0000,231.5625,
2025-03-09 15:05:06.535,-1.3300,-1.5000,9.5200,0.5625,-4.7500,-3.2500,-7.7500,5.9375,0.0000,231.5625,
2025-03-09 15:05:06.545,-1.3400,-1.2500,9.5800,-1.1250,-4.6250,-1.6875,-7.6875,5.9375,0.0000,231.5625,
2025-03-09 15:05:06.553,-1.4400,-1.2000,9.5400,-0.3125,-5.6250,-2.1875,-7.6250,5.9375,0.0000,231.6250,
2025-03-09 15:05:06.569,-1.2600,-1.2300,9.5900,-0.2500,-6.1875,-1.5625,-7.5625,5.9375,0.0000,231.6250,
2025-03-09 15:05:06.573,-1.3700,-1.2000,9.6700,0.5625,-6.5000,-2.8125,-7.5000,6.0000,0.0000,231.6250,
2025-03-09 15:05:06.585,-1.3300,-1.2900,9.6900,1.9375,-6.1250,-4.7500,-7.4375,5.9375,0.0000,231.6875,
2025-03-09 15:05:06.598,-1.2200,-1.2100,9.8900,1.0000,-5.5000,-4.7500,-7.3750,6.0000,0.0000,231.6875,
2025-03-09 15:05:06.603,-1.1300,-1.3500,9.7700,1.3750,-4.3125,-5.1875,-7.3125,6.0000,0.0000,231.7500,
2025-03-09 15:05:06.613,-1.1800,-1.1600,9.7200,0.3125,-3.2500,-3.8750,-7.3125,6.0000,0.0000,231.8125,
2025-03-09 15:05:06.629,-1.2700,-1.0300,9.6800,1.0625,-3.8125,-3.2500,-7.2500,6.0000,0.0000,231.8125,
2025-03-09 15:05:06.634,-1.2600,-1.0500,9.6400,1.3125,-5.1875,-2.8750,-7.1875,6.0000,0.0000,231.8750,
2025-03-09 15:05:06.651,-1.2600,-1.1200,9.6600,2.2500,-7.3125,-3.5625,-7.1250,5.9375,0.0000,231.8750,
2025-03-09 15:05:06.661,-1.1100,-1.3200,9.7000,2.6250,-8.7500,-4.0000,-7.0625,5.9375,0.0000,231.8750,
2025-03-09 15:05:06.663,-0.9800,-1.4600,9.7300,1.3750,-8.0000,-3.8125,-6.9375,5.9375,0.0000,231.9375,
2025-03-09 15:05:06.673,-0.9300,-1.4500,9.8300,0.9375,-6.0625,-2.0000,-6.8750,5.9375,0.0000,231.9375,
2025-03-09 15:05:06.687,-0.9600,-1.2200,9.8900,1.3125,-3.6875,-0.1875,-6.8750,5.9375,0.0000,231.9375,
2025-03-09 15:05:06.697,-1.0500,-1.1500,9.8300,2.7500,-1.5625,0.2500,-6.8125,5.9375,0.0000,231.8125,
2025-03-09 15:05:06.712,-1.2000,-1.1300,9.7300,3.8750,-0.2500,-1.5000,-6.8125,5.8750,0.0000,231.8125,
2025-03-09 15:05:06.720,-1.3300,-1.0200,9.6600,5.1875,-0.3125,-3.1250,-6.8125,5.8125,0.0000,231.8750,
2025-03-09 15:05:06.724,-1.3300,-1.1100,9.6200,5.8125,-1.3750,-4.1875,-6.8125,5.7500,0.0000,231.8750,
2025-03-09 15:05:06.735,-1.3300,-1.1200,9.6200,5.1875,-2.8750,-3.8750,-6.8125,5.7500,0.0000,231.9375,
2025-03-09 15:05:06.755,-1.4400,-1.1800,9.5900,2.4375,-4.5000,-2.3750,-6.7500,5.6875,0.0000,231.9375,
2025-03-09 15:05:06.755,-1.4200,-1.1000,9.7000,0.2500,-6.1875,-0.7500,-6.7500,5.6875,0.0000,231.9375,
2025-03-09 15:05:06.763,-1.3800,-1.0800,9.6600,-0.1250,-7.6875,-0.4375,-6.6250,5.6875,0.0000,231.9375,
2025-03-09 15:05:06.820,-1.3300,-1.0800,9.6900,-0.3125,-8.4375,-1.3125,-6.5625,5.6875,0.0000,231.9375,
2025-03-09 15:05:06.821,-1.3000,-1.0400,9.6400,-2.1250,-8.8125,-0.9375,-6.4375,5.7500,0.0000,231.9375,
2025-03-09 15:05:06.823,-1.2500,-1.1000,9.5400,-2.6875,-9.8750,-0.7500,-6.3750,5.7500,0.0000,231.8750,
2025-03-09 15:05:06.823,-1.2400,-1.1400,9.5400,-3.9375,-11.3125,-1.3125,-6.2500,5.8125,0.0000,231.8750,
2025-03-09 15:05:06.823,-1.0600,-1.1200,9.6400,-4.8125,-12.6875,-2.0000,-6.1250,5.8750,0.0000,231.8750,
2025-03-09 15:05:06.823,-0.9500,-1.2300,9.6500,-2.7500,-12.6250,-5.4375,-6.0000,5.8750,0.0000,231.9375,
2025-03-09 15:05:06.847,-1.0300,-1.2000,9.5800,-1.0000,-12.4375,-8.8750,-5.8750,5.9375,0.0000,232.0000,
2025-03-09 15:05:06.847,-1.0600,-1.1500,9.5200,-0.8750,-12.5625,-10.0625,-5.7500,5.9375,0.0000,232.0625,
2025-03-09 15:05:06.860,-1.1400,-1.1500,9.4900,1.1250,-15.4375,-11.0625,-5.7500,5.9375,0.0000,232.0625,
2025-03-09 15:05:06.865,-0.9900,-1.1900,9.4600,3.1875,-18.3750,-10.1875,-5.4375,5.9375,0.0000,232.2500,
2025-03-09 15:05:06.874,-0.8400,-1.2800,9.5400,0.8750,-19.2500,-7.3125,-5.2500,5.9375,0.0000,232.3125,
2025-03-09 15:05:06.883,-0.6000,-1.3900,9.5800,1.4375,-19.2500,-6.6875,-5.0625,5.9375,0.0000,232.3750,
2025-03-09 15:05:06.899,-0.9500,-1.2900,9.3700,2.8125,-20.3125,-8.2500,-5.0625,5.9375,0.0000,232.3750,
2025-03-09 15:05:06.903,-1.0400,-1.1700,9.3900,1.2500,-23.6250,-9.5000,-4.8125,5.8750,0.0000,232.4375,
2025-03-09 15:05:06.914,-0.9100,-1.1700,9.4500,-0.0625,-28.7500,-10.6875,-4.3125,5.9375,0.0000,232.6250,
2025-03-09 15:05:06.926,-0.6900,-1.2100,9.5900,-4.0000,-30.7500,-9.5625,-4.0000,5.9375,0.0000,232.6875,
2025-03-09 15:05:06.937,-0.2900,-1.2600,9.8700,-4.8750,-28.6875,-8.5000,-3.7500,6.0000,0.0000,232.7500,
2025-03-09 15:05:06.945,-0.2700,-1.3200,9.8300,-1.0000,-24.8750,-8.8125,-3.7500,6.0000,0.0000,232.7500,
2025-03-09 15:05:06.958,-0.3600,-1.3500,9.6700,1.5000,-22.1875,-7.1250,-3.5000,6.0000,0.0000,232.7500,
2025-03-09 15:05:06.964,-0.6300,-1.2800,9.5500,2.2500,-23.0625,-4.7500,-3.0625,6.0000,0.0000,232.8125,
2025-03-09 15:05:06.973,-0.4800,-1.3600,9.6000,5.1250,-26.5625,-4.5000,-2.8125,5.9375,0.0000,232.8750,
2025-03-09 15:05:06.987,-0.3400,-1.4200,9.6000,7.1875,-29.5625,-5.7500,-2.5000,5.8750,0.0000,232.8750,
2025-03-09 15:05:07.009,-0.3300,-1.3400,9.6200,7.9375,-29.9375,-4.5000,-2.5000,5.8750,0.0000,232.8750,
2025-03-09 15:05:07.009,-0.2000,-1.2200,9.7300,7.3125,-30.5000,-3.0000,-2.1875,5.8125,0.0000,232.8750,
2025-03-09 15:05:07.029,-0.4100,-1.2500,9.4600,6.6875,-31.1875,0.1250,-1.6250,5.7500,0.0000,232.8750,
2025-03-09 15:05:07.030,-0.6900,-1.1400,9.2900,1.6250,-34.6250,5.6250,-1.3125,5.7500,0.0000,232.8125,
2025-03-09 15:05:07.048,-0.8100,-1.0300,9.0600,-1.3125,-42.8750,11.3125,-0.8750,5.7500,0.0000,232.6875,
2025-03-09 15:05:07.048,-0.6800,-0.9600,9.2100,-2.2500,-51.3125,15.3125,-0.8750,5.7500,0.0000,232.6875,
2025-03-09 15:05:07.064,-0.4000,-0.8600,9.3800,-2.6875,-59.0625,15.2500,-0.4375,5.7500,0.0000,232.5000,
2025-03-09 15:05:07.064,0.1200,-1.0400,9.5200,-2.8125,-61.8750,12.1875,0.6875,5.8125,0.0000,232.1875,
2025-03-09 15:05:07.112,0.4300,-1.2300,9.6300,-2.9375,-58.3750,7.1250,1.1875,5.8125,0.0000,232.0625,
2025-03-09 15:05:07.112,0.2500,-1.2700,9.4000,1.1250,-56.3750,2.0000,1.7500,5.8125,0.0000,232.0000,
2025-03-09 15:05:07.112,0.1900,-1.3500,9.1500,6.3750,-58.1250,1.0625,1.7500,5.8125,0.0000,232.0000,
2025-03-09 15:05:07.112,0.1700,-1.3600,9.0400,7.0000,-63.1875,5.2500,2.3125,5.7500,0.0000,231.8750,
2025-03-09 15:05:07.115,-0.0300,-1.1900,8.7000,8.2500,-70.2500,10.3125,3.5625,5.6250,0.0000,231.6250,
2025-03-09 15:05:07.124,-0.0900,-1.1500,8.5100,8.0625,-80.3125,15.8125,4.3750,5.5625,0.0000,231.4375,
2025-03-09 15:05:07.142,-0.2000,-1.1100,8.3400,3.5000,-92.5625,20.3750,5.1875,5.5625,0.0000,231.1875,
2025-03-09 15:05:07.143,-0.2000,-1.1100,8.3400,-1.6875,-106.1250,23.8125,5.1875,5.5625,0.0000,231.1875,
2025-03-09 15:05:07.153,1.1900,-0.4800,9.3400,-0.6250,-117.3125,22.3750,6.1875,5.6250,0.0000,230.9375,
2025-03-09 15:05:07.168,1.7900,-0.3900,9.6000,0.7500,-118.1250,15.8125,8.4375,5.6875,0.0000,230.4375,
2025-03-09 15:05:07.174,2.1800,-0.3200,9.8200,3.8125,-112.7500,8.9375,9.5000,5.6875,0.0000,230.3125,
2025-03-09 15:05:07.184,2.1300,-0.5000,9.1200,6.6875,-106.5000,3.6250,10.5625,5.6250,0.0000,230.2500,
2025-03-09 15:05:07.201,2.1300,-0.5000,9.1200,9.5000,-105.6250,-0.0625,10.5625,5.6250,0.0000,230.2500,
2025-03-09 15:05:07.203,2.0200,-0.7700,8.3200,11.1250,-111.5625,-1.6875,11.5625,5.5625,0.0000,230.1250,
2025-03-09 15:05:07.216,1.9200,-1.4600,7.4400,10.8125,-122.7500,-3.0625,13.8125,5.3750,0.0000,230.0625,
2025-03-09 15:05:07.227,2.3100,-1.8500,7.3500,9.0625,-136.6875,0.8125,15.1250,5.3750,0.0000,230.0000,
2025-03-09 15:05:07.234,2.9200,-2.0200,7.4900,11.6875,-151.0000,7.4375,16.5625,5.3125,0.0000,229.8125,
2025-03-09 15:05:07.256,4.7700,-0.7800,8.9900,15.0625,-164.7500,21.3750,18.1250,5.2500,0.0000,229.5625,
2025-03-09 15:05:07.267,5.2100,-0.2400,9.4400,19.4375,-155.6250,15.1250,21.1875,5.1250,0.0000,229.0000,
2025-03-09 15:05:07.281,5.3300,-0.0400,9.4800,25.6250,-138.3750,3.5625,22.5625,4.9375,0.0000,228.8750,
2025-03-09 15:05:07.291,4.7800,-0.1100,8.7800,29.4375,-122.5000,-6.0625,23.7500,4.6875,0.0000,228.8125,
2025-03-09 15:05:07.294,4.7800,-0.1100,8.7800,27.5000,-114.6250,-11.5625,23.7500,4.6875,0.0000,228.8125,
2025-03-09 15:05:07.303,4.4200,-0.3500,8.2800,27.8125,-116.8125,-14.6250,24.8125,4.4375,0.0000,228.7500,
2025-03-09 15:05:07.315,4.4000,-1.4600,7.2900,28.9375,-126.1250,-15.4375,27.1875,3.8125,0.0000,228.8750,
2025-03-09 15:05:07.324,5.5500,-1.7300,7.4500,27.8125,-136.0000,-10.2500,28.5000,3.5000,0.0000,228.8750,
2025-03-09 15:05:07.338,5.9900,-1.4400,7.6200,29.3125,-145.3125,0.3750,29.9375,3.3125,0.0000,228.7500,
2025-03-09 15:05:07.349,5.9900,-1.4400,7.6200,26.3750,-152.6875,16.6875,29.9375,3.3125,0.0000,228.7500,
2025-03-09 15:05:07.355,6.5900,-1.1300,7.8800,18.6875,-153.0000,27.0625,31.3750,3.1875,0.0000,228.4375,
2025-03-09 15:05:07.371,6.3300,0.3800,8.3500,16.8125,-147.3125,28.3750,32.8750,3.1875,0.0000,228.1250,
2025-03-09 15:05:07.413,6.2200,0.5400,8.4800,22.0000,-140.8125,19.1875,34.2500,3.3125,0.0000,227.7500,
2025-03-09 15:05:07.413,6.2100,0.3100,8.3500,32.1875,-134.0625,1.0625,35.6250,3.2500,0.0000,227.4375,
2025-03-09 15:05:07.414,6.2100,0.3100,8.3500,37.9375,-127.0000,-14.8125,36.9375,3.0000,0.0000,227.3125,
2025-03-09 15:05:07.414,6.8900,-0.4800,7.9400,40.5625,-121.1875,-23.6875,38.1250,2.5625,0.0000,227.3125,
2025-03-09 15:05:07.415,7.3200,-0.6900,7.6500,42.6250,-117.8750,-22.6875,39.3125,2.0625,0.0000,227.3750,
2025-03-09 15:05:07.425,6.5100,-0.2700,7.0700,44.8750,-119.0000,-17.3125,40.5000,1.4375,0.0000,227.4375,
2025-03-09 15:05:07.438,6.2600,0.2100,7.1300,42.1875,-124.5000,-11.8750,41.6250,0.9375,0.0000,227.4375,
2025-03-09 15:05:07.443,6.2600,0.2100,7.1300,42.1875,-124.5000,-11.8750,42.8125,0.4375,0.0000,227.3750,
2025-03-09 15:05:07.453,6.4200,0.4200,7.2200,36.5625,-133.8750,-5.2500,44.1250,0.0000,0.0000,227.3125,
2025-03-09 15:05:07.466,7.3100,0.6900,7.1200,33.1250,-149.9375,-3.3750,45.5000,-0.2500,0.0000,227.1875,
2025-03-09 15:05:07.475,7.2500,0.5800,6.7400,26.3750,-152.8750,-6.8125,46.9375,-0.6250,0.0000,227.0625,
2025-03-09 15:05:07.487,7.4600,0.3500,6.3500,20.5625,-156.1875,-10.8750,48.4375,-1.0000,0.0000,227.0625,
2025-03-09 15:05:07.501,7.4600,0.3500,6.3500,19.1250,-152.5625,-5.6875,49.9375,-1.3750,0.0000,227.0625,
2025-03-09 15:05:07.505,8.0300,-0.2500,5.8200,10.8125,-138.8750,16.0000,51.4375,-1.6875,0.0000,227.0625,
2025-03-09 15:05:07.515,8.3600,-0.5400,5.9600,10.3125,-142.8125,13.4375,52.7500,-1.6250,0.0000,226.8750,
2025-03-09 15:05:07.531,8.6500,-0.3400,5.7200,17.3750,-151.4375,-2.6250,54.1875,-1.6250,0.0000,226.6875,
2025-03-09 15:05:07.535,7.4800,0.3900,5.3000,8.1875,-148.1875,8.0000,55.6250,-1.8750,0.0000,226.6250,
2025-03-09 15:05:07.543,7.4800,0.3900,5.3000,8.1875,-148.1875,8.0000,57.0625,-1.8750,0.0000,226.5625,
2025-03-09 15:05:07.571,8.3300,0.1700,5.4200,6.1875,-162.8125,32.4375,58.5625,-1.5625,0.0000,226.3125,
2025-03-09 15:05:07.573,9.7100,0.1200,5.5500,8.9375,-161.5000,33.6250,60.1250,-1.1250,0.0000,225.9375,
2025-03-09 15:05:07.587,10.4100,0.4000,5.5400,12.0625,-140.6250,24.8750,63.1875,-0.1875,0.0000,225.1875,
2025-03-09 15:05:07.614,9.8100,0.3400,5.0200,9.9375,-128.5000,22.8750,65.8125,0.5000,0.0000,224.6250,
2025-03-09 15:05:07.617,9.4400,0.3900,4.4000,-6.6875,-123.3125,9.6250,66.9375,0.9375,0.0000,224.3750,
2025-03-09 15:05:07.630,9.6600,0.4300,4.4900,-3.9375,-123.3125,1.3750,68.1250,1.3125,0.0000,224.3125,
2025-03-09 15:05:07.642,10.2700,0.3800,4.5300,-1.6250,-126.0000,-4.7500,69.3750,1.4375,0.0000,224.3125,
2025-03-09 15:05:07.656,10.8700,0.0800,4.2200,-0.5625,-121.6250,-4.5625,71.7500,1.3750,0.0000,224.3750,
2025-03-09 15:05:07.671,10.3600,-0.1300,3.6400,0.9375,-103.0625,-13.6250,72.8750,1.1875,0.0000,224.4375,
2025-03-09 15:05:07.711,9.4200,0.2500,3.1200,-2.2500,-96.6250,-21.8750,74.8125,0.1875,0.0000,224.7500,
2025-03-09 15:05:07.713,9.3900,0.5500,2.9700,5.1250,-96.6875,-32.8125,76.6875,-2.0000,0.0000,225.2500,
2025-03-09 15:05:07.715,10.0000,0.7400,2.8400,25.6250,-96.4375,-55.5625,77.6250,-4.1250,0.0000,225.5625,
2025-03-09 15:05:07.739,10.6200,0.6000,2.4900,19.5000,-83.6250,-34.6875,79.3125,-10.8750,0.0000,226.1875,
2025-03-09 15:05:07.755,9.5400,1.0600,2.2200,5.8125,-75.1250,-22.8125,80.6875,-16.2500,0.0000,226.7500,
2025-03-09 15:05:07.765,9.0300,0.9400,1.5500,-4.8750,-70.3750,-15.0000,81.2500,-18.5625,0.0000,226.9375,
2025-03-09 15:05:07.787,10.3200,0.3500,1.4700,-16.2500,-70.3125,-3.8750,82.4375,-23.4375,0.0000,227.4375,
2025-03-09 15:05:07.805,10.2800,0.3200,1.2700,-11.5625,-64.1875,-3.6250,83.5625,-3.0000,0.0000,227.8125,
2025-03-09 15:05:07.815,9.5400,0.5800,0.9300,-3.3125,-50.6250,-1.2500,84.0625,-3.0000,0.0000,227.9375,
2025-03-09 15:05:07.836,9.1400,0.3700,0.3700,11.0625,-47.1250,-6.6875,84.8125,-3.0625,0.0000,228.0000,
2025-03-09 15:05:07.861,9.4800,0.3800,0.4500,7.3750,-50.4375,-1.9375,85.5000,-3.1875,0.0000,228.0000,
2025-03-09 15:05:07.868,10.0400,0.4800,0.4900,8.4375,-49.2500,4.2500,85.8125,-3.1250,0.0000,227.9375,
2025-03-09 15:05:07.891,9.7100,0.5800,0.5200,4.8125,-38.6250,7.3750,86.4375,-3.0625,0.0000,227.7500,
2025-03-09 15:05:07.903,9.5400,0.5400,0.4100,8.8750,-35.3125,5.5000,86.8750,-2.9375,0.0000,227.5000,
2025-03-09 15:05:07.916,9.7500,0.5200,0.3600,4.7500,-36.7500,11.3125,87.0000,-2.8750,0.0000,227.3750,
2025-03-09 15:05:07.940,9.5300,0.6200,-0.0100,2.3750,-34.6250,7.1250,87.3125,-2.6250,0.0000,227.1250,
2025-03-09 15:05:07.952,9.4900,0.5800,-0.1300,-1.2500,-33.4375,2.3750,87.3125,-177.3750,0.0000,227.0625,
2025-03-09 15:05:07.969,10.2000,0.0000,-0.4100,-5.3125,-35.2500,3.6875,87.2500,-177.3750,0.0000,227.1250,
2025-03-09 15:05:08.011,10.0600,0.1700,-0.3300,-7.1875,-33.6875,11.5000,87.0000,-177.5000,0.0000,227.1875,
2025-03-09 15:05:08.015,9.9700,0.2000,-0.3700,-6.6875,-31.0000,12.3125,86.8125,-177.7500,0.0000,227.1250,
2025-03-09 15:05:08.016,9.9700,0.4200,-0.1700,-12.9375,-28.2500,16.3750,86.6875,-177.8750,0.0000,227.0625,
2025-03-09 15:05:08.054,9.6600,0.4900,-0.1200,-2.5625,-17.6250,5.5000,86.4375,-178.1250,0.0000,227.0625,
2025-03-09 15:05:08.054,9.7000,0.5500,-0.0800,-2.5625,-15.4375,3.5000,86.2500,-178.1875,0.0000,227.1250,
2025-03-09 15:05:08.079,9.9200,0.5200,-0.1100,-2.4375,-14.2500,2.8125,86.1875,-178.1875,0.0000,227.1875,
2025-03-09 15:05:08.081,10.2200,0.4800,-0.1500,-4.6250,-9.6250,2.8125,86.1250,-178.1875,0.0000,227.1875,
2025-03-09 15:05:08.098,10.0800,0.2800,-0.5200,-8.1875,-6.3750,5.1250,86.0000,-178.2500,0.0000,227.2500,
2025-03-09 15:05:08.103,9.9500,0.2000,-0.6300,-9.9375,-4.3750,7.0625,86.0000,-178.3125,0.0000,227.2500,
2025-03-09 15:05:08.120,9.4300,0.1200,-0.7800,-10.2500,-3.9375,5.0625,86.0000,-178.3750,0.0000,227.3125,
2025-03-09 15:05:08.138,9.2900,0.1500,-0.6700,-6.8125,-10.3750,0.5625,85.9375,-178.4375,0.0000,227.4375,
2025-03-09 15:05:08.158,9.9200,0.1200,-0.5800,-3.6875,-11.8125,-1.1875,85.7500,-178.4375,0.0000,227.5625,
2025-03-09 15:05:08.167,10.0800,0.2400,-0.5400,-3.9375,-11.0625,1.6250,85.6250,-178.3750,0.0000,227.6250,
2025-03-09 15:05:08.188,9.9200,0.5600,-0.2900,-2.6875,-4.2500,2.5000,85.4375,-178.4375,0.0000,227.6875,
2025-03-09 15:05:08.203,9.7200,0.5000,-0.3500,-3.0000,-0.9375,2.0625,85.4375,-178.5000,0.0000,227.6250,
2025-03-09 15:05:08.220,9.8700,0.2500,-0.5400,-6.0625,2.9375,1.5000,85.4375,-178.5000,0.0000,227.6875,
2025-03-09 15:05:08.242,9.8400,0.2600,-0.7500,-0.7500,3.8125,1.2500,85.5000,-178.5000,0.0000,227.7500,
2025-03-09 15:05:08.257,9.8200,0.1400,-0.8900,5.3750,4.9375,-2.2500,85.5625,-178.5000,0.0000,227.7500,
2025-03-09 15:05:08.272,9.9800,0.0700,-0.7200,1.9375,6.1250,-1.2500,85.6250,-178.5000,0.0000,227.6875,
2025-03-09 15:05:08.331,9.7600,0.1900,-0.6100,-2.0000,4.5625,-2.7500,85.7500,-178.4375,0.0000,227.6875,
2025-03-09 15:05:08.331,9.6200,0.2400,-0.6300,-4.0625,4.1250,-1.8125,85.8125,-178.3750,0.0000,227.8125,
2025-03-09 15:05:08.331,9.5000,0.2400,-0.7000,-4.1250,4.7500,-2.4375,85.8125,-178.3750,0.0000,227.8750,
2025-03-09 15:05:08.345,9.5800,0.1900,-0.6800,-2.0625,0.8125,-1.0625,85.8750,-178.3125,0.0000,227.9375,
2025-03-09 15:05:08.353,9.5400,0.2300,-0.5900,0.3750,0.7500,-3.1875,85.8750,-178.3125,0.0000,228.0625,
2025-03-09 15:05:08.369,9.7100,0.2300,-0.5200,0.6875,0.3750,-4.0000,85.8125,-178.2500,0.0000,228.0625,
2025-03-09 15:05:08.380,9.8900,0.1900,-0.4600,3.1250,2.3750,-5.2500,85.8125,-178.1875,0.0000,228.1250,
2025-03-09 15:05:08.397,9.7900,0.3300,-0.5000,4.7500,6.3125,-9.3125,85.8125,-178.0625,0.0000,228.1250,
2025-03-09 15:05:08.403,10.6900,0.0100,-0.5600,2.1250,7.1875,-8.9375,85.8750,-178.0000,0.0000,228.1875,
2025-03-09 15:05:08.421,11.0800,-0.0900,-0.6900,-1.5625,3.3750,-5.0000,85.8750,-177.9375,0.0000,228.2500,
2025-03-09 15:05:08.436,9.8000,0.4400,-0.8700,-1.9375,4.8750,0.5625,85.9375,-177.8750,0.0000,228.3750,
2025-03-09 15:05:08.455,9.8800,0.5300,-0.5300,-3.5000,5.8125,1.1875,86.0000,-177.8750,0.0000,228.4375,
2025-03-09 15:05:08.466,9.7700,0.4000,-0.5000,-0.0625,5.3125,-0.9375,86.0625,-177.8750,0.0000,228.4375,
2025-03-09 15:05:08.489,9.7500,0.3400,-0.4600,-0.5000,5.8125,-0.8125,86.1250,-177.8750,0.0000,228.4375,
2025-03-09 15:05:08.503,9.8100,0.3500,-0.2200,-0.6250,5.3125,-1.0000,86.2500,-177.8750,0.0000,228.5000,
2025-03-09 15:05:08.518,9.7800,0.3000,-0.2600,0.0625,3.9375,-1.0625,86.2500,-177.8125,0.0000,228.5000,
2025-03-09 15:05:08.550,9.6700,0.5100,-0.2500,1.8750,0.8125,-1.5625,86.2500,-177.8125,0.0000,228.4375,
2025-03-09 15:05:08.553,9.8000,0.3600,-0.4800,0.8125,-2.9375,1.3750,86.2500,-177.8125,0.0000,228.4375,
2025-03-09 15:05:08.565,9.8400,0.4600,-0.4200,-1.8125,-2.6875,3.1875,86.2500,-177.8750,0.0000,228.4375,
2025-03-09 15:05:08.590,9.8800,0.3100,-0.5600,-0.7500,-2.5625,3.3125,86.2500,-177.8750,0.0000,228.4375,
2025-03-09 15:05:08.617,9.8100,0.2300,-0.6200,3.8125,0.1875,1.6250,86.2500,-177.9375,0.0000,228.3125,
2025-03-09 15:05:08.617,9.7800,0.3500,-0.4500,2.8750,2.3125,0.3750,86.2500,-177.9375,0.0000,228.3125,
2025-03-09 15:05:08.617,9.7700,0.3600,-0.4100,1.5000,2.8750,0.2500,86.3125,-177.9375,0.0000,228.2500,
2025-03-09 15:05:08.638,9.7700,0.4300,-0.3700,0.0000,2.6250,0.6875,86.3125,-177.9375,0.0000,228.2500,
2025-03-09 15:05:08.642,9.8400,0.3000,-0.4600,-1.3125,0.9375,4.1875,86.3750,-178.0000,0.0000,228.2500,
2025-03-09 15:05:08.661,9.8400,0.2500,-0.5100,-0.1250,1.3125,6.0000,86.4375,-178.0625,0.0000,228.2500,
2025-03-09 15:05:08.668,9.8000,0.2900,-0.5500,1.0000,2.8125,5.5000,86.5000,-178.1250,0.0000,228.1875,
2025-03-09 15:05:08.676,9.8000,0.3600,-0.4700,0.8750,4.1250,4.9375,86.5625,-178.1250,0.0000,228.1250,
2025-03-09 15:05:08.688,9.7400,0.4300,-0.3400,1.2500,4.9375,5.8750,86.6250,-178.1875,0.0000,228.0625,
2025-03-09 15:05:08.700,9.7600,0.3700,-0.4000,2.1250,4.6875,8.0625,86.6875,-178.3125,0.0000,227.9375,
2025-03-09 15:05:08.703,9.8000,0.2800,-0.2900,-0.0625,3.6875,9.7500,86.7500,-178.3750,0.0000,227.8750,
2025-03-09 15:05:08.721,9.8400,0.1300,-0.4100,-1.6250,2.8125,10.2500,86.8125,-178.5000,0.0000,227.8125,
2025-03-09 15:05:08.729,9.8800,0.0700,-0.4800,-0.6875,2.5625,9.5000,86.8750,-178.5625,0.0000,227.6875,
2025-03-09 15:05:08.744,9.8400,0.1800,-0.3900,-0.7500,4.0000,5.3125,87.0000,-178.6875,0.0000,227.6250,
2025-03-09 15:05:08.757,9.7700,0.3400,-0.2500,-0.5625,4.2500,4.8125,87.0625,-178.7500,0.0000,227.5625,
2025-03-09 15:05:08.764,9.7600,0.3600,-0.2100,-1.3125,3.3125,5.9375,87.1250,-178.8125,0.0000,227.5000,
2025-03-09 15:05:08.779,9.7700,0.2600,-0.3400,-2.7500,1.8125,7.9375,87.1875,-178.8750,0.0000,227.4375,
2025-03-09 15:05:08.789,9.8200,0.2000,-0.3000,-4.0000,1.0625,9.4375,87.2500,-178.9375,0.0000,227.4375,
2025-03-09 15:05:08.812,9.8700,-0.0100,-0.4000,-3.0625,1.1875,10.5000,87.3125,-179.1875,0.0000,227.3125,
2025-03-09 15:05:08.818,9.8300,0.0300,-0.3400,-1.1875,2.0625,8.9375,87.3750,-179.2500,0.0000,227.1875,
2025-03-09 15:05:08.826,9.8300,0.0500,-0.3400,-0.1250,2.6250,8.0000,87.4375,-179.3125,0.0000,227.1250,
2025-03-09 15:05:08.841,9.7800,0.1600,-0.1600,0.1875,2.2500,7.7500,87.4375,-179.3750,0.0000,227.0625,
2025-03-09 15:05:08.847,9.7800,0.1200,-0.2100,0.7500,1.3125,8.1250,87.5000,-179.5000,0.0000,227.0000,
2025-03-09 15:05:08.855,9.7900,0.0200,-0.1800,0.3125,-0.9375,9.1875,87.5000,-179.5625,0.0000,226.9375,
2025-03-09 15:05:08.863,9.8300,-0.0500,-0.2600,-0.4375,-2.6875,9.6250,87.5000,-179.6875,0.0000,226.8125,
2025-03-09 15:05:08.908,9.8500,-0.1900,-0.3700,-1.1875,-4.2500,9.0000,87.5000,-179.7500,0.0000,226.7500,
2025-03-09 15:05:08.910,9.8700,-0.2100,-0.4600,-1.5000,-4.1875,6.3750,87.4375,-179.8125,0.0000,226.6875,
2025-03-09 15:05:08.910,9.8200,-0.0100,-0.3400,-2.4375,-3.3750,3.5625,87.4375,-179.8750,0.0000,226.6875,
2025-03-09 15:05:08.910,9.8100,0.0000,-0.3600,-1.0625,-2.6250,2.1875,87.3750,-179.8750,0.0000,226.6875,
2025-03-09 15:05:08.913,9.8000,0.0100,-0.4400,0.3125,-2.7500,2.0625,87.3750,-179.8750,0.0000,226.6875,
2025-03-09 15:05:08.947,9.8100,0.1100,-0.3900,0.9375,-2.1250,2.1250,87.3750,-179.9375,0.0000,226.6250,
2025-03-09 15:05:08.947,9.8000,0.0000,-0.4600,0.1250,-2.0000,3.8750,87.3125,179.9375,0.0000,226.5625,
2025-03-09 15:05:08.953,9.8000,0.0000,-0.3900,-0.6875,-0.8750,3.6875,87.3125,179.9375,0.0000,226.5000,
2025-03-09 15:05:08.965,9.8500,-0.1000,-0.4500,-1.2500,-0.2500,3.6875,87.3125,179.8750,0.0000,226.5000,
2025-03-09 15:05:08.975,9.8000,-0.0300,-0.3900,-1.8125,0.3125,3.0000,87.3125,179.8750,0.0000,226.5000,
2025-03-09 15:05:08.985,9.8400,-0.0400,-0.4500,-0.8750,1.1250,2.4375,87.3125,179.8125,0.0000,226.5000,
2025-03-09 15:05:09.007,9.8200,-0.0200,-0.4000,0.1875,1.6250,2.2500,87.3125,179.8125,0.0000,226.4375,
2025-03-09 15:05:09.007,9.8400,-0.0300,-0.3800,-0.1875,2.8750,2.0000,87.3750,179.8125,0.0000,226.3750,
2025-03-09 15:05:09.012,9.8300,-0.0300,-0.3600,-0.0625,3.5000,1.8750,87.3750,179.7500,0.0000,226.3750,
2025-03-09 15:05:09.028,9.8100,0.0000,-0.3300,-0.5625,3.6250,2.1250,87.4375,179.7500,0.0000,226.3750,
2025-03-09 15:05:09.039,9.8200,-0.0500,-0.3500,-0.9375,3.1875,2.5625,87.4375,179.7500,0.0000,226.3125,
2025-03-09 15:05:09.043,9.8300,0.0000,-0.4200,-1.1250,2.6250,3.3125,87.5000,179.6875,0.0000,226.3125,
2025-03-09 15:05:09.063,9.8100,0.0400,-0.3800,-1.0625,3.1250,3.6250,87.5000,179.6875,0.0000,226.3750,
2025-03-09 15:05:09.063,9.8100,0.0100,-0.3700,-1.0625,3.6875,4.9375,87.5000,179.6250,0.0000,226.3125,
2025-03-09 15:05:09.075,9.7700,0.0000,-0.3300,-1.7500,4.5625,6.0000,87.5625,179.5625,0.0000,226.2500,
2025-03-09 15:05:09.091,9.8300,-0.0800,-0.2500,-3.3125,5.2500,7.0625,87.6250,179.5000,0.0000,226.2500,
2025-03-09 15:05:09.095,9.8400,-0.1300,-0.2000,-4.4375,4.7500,7.6875,87.6250,179.4375,0.0000,226.1875,
2025-03-09 15:05:09.110,9.8300,-0.0900,-0.1000,-3.8750,3.9375,7.7500,87.6875,179.3750,0.0000,226.1875,
2025-03-09 15:05:09.115,9.8300,-0.1500,-0.2300,-2.6875,2.0000,8.1875,87.6875,179.2500,0.0000,226.1875,
2025-03-09 15:05:09.123,9.8100,-0.0200,-0.0700,-1.5000,0.5625,8.6250,87.6250,179.1875,0.0000,226.0625,
2025-03-09 15:05:09.134,9.8200,-0.1100,-0.0800,-1.0000,-1.8750,9.6250,87.6250,179.1250,0.0000,226.0000,
2025-03-09 15:05:09.148,9.7800,-0.2400,-0.1700,-2.3750,-4.3750,10.3750,87.5625,179.0000,0.0000,225.9375,
2025-03-09 15:05:09.152,9.8200,-0.2800,-0.1800,-4.3750,-5.8750,10.2500,87.4375,178.8750,0.0000,225.8750,
2025-03-09 15:05:09.167,9.8600,-0.3000,-0.2600,-5.8750,-6.5625,10.3125,87.3750,178.8125,0.0000,225.8750,
2025-03-09 15:05:09.194,9.9000,-0.3300,-0.4400,-3.6250,-5.0000,12.3125,87.2500,178.6875,0.0000,225.7500,
2025-03-09 15:05:09.194,9.9700,-0.5200,-0.4700,-2.7500,-2.9375,15.0625,87.1875,178.5625,0.0000,225.6250,
2025-03-09 15:05:09.215,10.0500,-0.5800,-0.4700,-4.9375,0.8750,22.5000,87.0625,178.3125,0.0000,225.5000,
2025-03-09 15:05:09.215,10.2200,-0.6100,-0.4200,-6.6875,3.0000,33.3125,86.8750,178.0000,0.0000,225.2500,
2025-03-09 15:05:09.215,11.2600,-1.3000,-0.3800,-3.5625,-2.8125,39.1875,86.6250,177.6250,0.0000,224.8750,
2025-03-09 15:05:09.225,11.3300,-1.1200,-0.1000,-5.1250,-6.7500,41.5000,86.2500,177.2500,0.0000,224.5000,
2025-03-09 15:05:09.238,11.0400,-0.7300,0.0300,-5.3750,-3.1875,35.7500,86.0000,176.8750,0.0000,224.2500,
2025-03-09 15:05:09.246,10.8800,-0.5800,-0.1100,-4.3750,2.6250,33.3750,85.7500,176.5625,0.0000,223.9375,
2025-03-09 15:05:09.261,10.7900,-0.7400,-0.1500,-5.3750,8.5000,33.1875,85.5000,176.2500,0.0000,223.6875,
2025-03-09 15:05:09.266,10.9900,-0.8900,-0.0500,-6.8750,13.4375,32.6875,85.3125,175.9375,0.0000,223.4375,
2025-03-09 15:05:09.274,10.9000,-1.1700,-0.2800,-2.3125,19.1875,28.0000,85.1875,175.6250,0.0000,223.2500,
2025-03-09 15:05:09.285,10.8000,-1.6900,-0.5100,0.4375,23.8125,26.7500,85.0000,175.3750,0.0000,223.0000,
2025-03-09 15:05:09.295,10.8700,-1.8800,-0.4300,-3.4375,25.9375,36.8750,84.7500,175.0625,0.0000,222.6875,
2025-03-09 15:05:09.304,10.7700,-2.0300,-0.4200,-4.8125,26.9375,47.6250,84.4375,174.5625,0.0000,222.2500,
2025-03-09 15:05:09.317,10.7200,-1.7000,0.1500,-8.7500,27.1250,61.3750,83.8750,174.0000,0.0000,221.7500,
2025-03-09 15:05:09.337,10.6100,-1.6700,0.2300,-13.4375,27.6875,79.6250,83.1875,173.1875,0.0000,221.1875,
2025-03-09 15:05:09.337,10.4000,-1.7100,0.3000,-10.3750,30.2500,93.5625,82.3125,94.2500,0.0000,220.3750,
2025-03-09 15:05:09.343,9.8100,-1.6500,0.2000,0.7500,31.6250,95.0625,81.3750,91.7500,0.0000,219.5000,
2025-03-09 15:05:09.368,9.2400,-1.7800,0.0600,7.6250,31.8750,90.1875,80.5000,89.6875,0.0000,218.6875,
2025-03-09 15:05:09.369,8.8700,-2.0100,-0.0800,14.0625,31.7500,77.1250,79.7500,87.8125,0.0000,217.8125,
2025-03-09 15:05:09.374,8.8500,-2.2900,-0.3000,21.2500,26.7500,62.4375,79.1250,86.3750,0.0000,217.0625,
2025-03-09 15:05:09.388,9.0200,-2.7700,-0.4000,24.4375,19.3750,58.4375,78.5625,85.4375,0.0000,216.3125,
2025-03-09 15:05:09.394,9.1700,-3.2000,-0.5500,24.8125,13.3125,60.3750,78.0000,84.8125,0.0000,215.5000,
2025-03-09 15:05:09.403,9.0900,-3.2500,-0.5700,25.3750,6.8125,65.2500,77.3125,84.5000,0.0000,214.6875,
2025-03-09 15:05:09.416,9.2000,-3.2100,-0.4200,23.0625,-0.4375,75.0625,76.6250,84.5625,0.0000,213.7500,
2025-03-09 15:05:09.424,9.3500,-2.8800,-0.2600,22.5000,-8.2500,88.3750,75.7500,85.0000,0.0000,212.6875,
2025-03-09 15:05:09.434,9.4500,-2.5400,0.1100,20.5000,-13.5000,102.6250,74.8125,85.6250,0.0000,211.4375,
2025-03-09 15:05:09.444,9.6500,-2.1300,0.6600,15.9375,-16.1250,114.1875,73.6875,86.3125,0.0000,210.1250,
2025-03-09 15:05:09.453,9.5900,-1.9700,0.9300,15.1250,-13.1875,110.8125,72.6250,86.7500,0.0000,209.0000,
2025-03-09 15:05:09.464,9.9400,-2.5800,0.9200,18.2500,-6.2500,97.6875,71.6875,86.9375,0.0000,207.8750,
2025-03-09 15:05:09.515,10.1300,-3.0400,0.8800,17.8750,0.8750,87.1875,70.8750,86.8750,0.0000,206.8750,
2025-03-09 15:05:09.515,10.1500,-3.5200,0.7300,14.3750,7.0625,82.2500,70.0625,86.6875,0.0000,205.9375,
2025-03-09 15:05:09.516,10.1600,-4.3300,0.2600,11.5000,11.5000,84.0625,69.2500,86.3750,0.0000,205.0625,
2025-03-09 15:05:09.516,9.9600,-4.5200,0.1000,7.1250,13.7500,89.5625,68.3750,86.1250,0.0000,204.5625,
2025-03-09 15:05:09.516,9.5700,-4.5300,-0.1100,2.4375,12.3125,98.3125,67.3750,86.0000,0.0000,203.6250,
2025-03-09 15:05:09.523,9.1300,-4.3900,-0.1800,1.4375,11.0000,114.0000,66.3125,85.8750,0.0000,202.5625,
2025-03-09 15:05:09.538,8.9200,-3.9500,0.2600,-2.6250,6.8125,131.6250,65.0000,85.9375,0.0000,201.3750,
2025-03-09 15:05:09.547,8.5200,-3.6600,0.6100,-8.6875,-1.0625,142.8750,63.6250,86.2500,0.0000,200.0625,
2025-03-09 15:05:09.560,8.4000,-3.6100,0.9000,-8.0000,-5.8750,142.8125,62.2500,86.6250,0.0000,198.8125,
2025-03-09 15:05:09.576,8.9100,-4.0800,1.4300,-4.3125,-8.0000,134.3750,60.9375,86.9375,0.0000,197.5000,
2025-03-09 15:05:09.576,9.0300,-4.5900,1.3200,-0.1250,-2.5625,115.6250,59.8750,87.0625,0.0000,196.3750,
2025-03-09 15:05:09.583,9.1800,-5.3200,0.8300,7.5000,3.7500,98.8750,58.8750,87.0625,0.0000,195.3750,
2025-03-09 15:05:09.609,9.1000,-5.7600,0.3900,12.7500,9.1250,97.5625,57.9375,86.8750,0.0000,194.3750,
2025-03-09 15:05:09.609,8.3800,-6.0500,-0.2300,13.1250,9.1250,106.8750,56.9375,86.6875,0.0000,193.8125,
2025-03-09 15:05:09.621,8.1900,-5.9500,-0.2400,3.5625,2.8125,125.1875,55.6875,86.6875,0.0000,192.6250,
2025-03-09 15:05:09.641,7.9400,-5.5800,0.1000,-7.5625,-5.2500,143.3125,54.3125,86.9375,0.0000,191.2500,
2025-03-09 15:05:09.641,7.7000,-5.0500,0.9400,-16.7500,-13.0000,153.5625,52.8125,87.3750,0.0000,189.8125,
2025-03-09 15:05:09.642,7.7000,-5.3100,1.1000,-21.7500,-17.6250,151.6875,51.3750,87.8750,0.0000,188.4375,
2025-03-09 15:05:09.655,7.6700,-5.7900,0.8500,-26.5000,-15.9375,141.9375,50.0000,88.3750,0.0000,187.4375,
2025-03-09 15:05:09.664,7.3800,-6.3300,0.2500,-32.4375,-12.4375,136.6250,48.6875,88.8750,0.0000,186.2500,
2025-03-09 15:05:09.678,6.5700,-7.1200,-0.7700,-31.3125,-9.2500,132.7500,47.3750,89.3125,0.0000,185.1250,
2025-03-09 15:05:09.686,6.4900,-7.1700,-0.7700,-33.6875,-14.4375,139.5000,46.0625,89.8125,0.0000,183.9375,
2025-03-09 15:05:09.694,6.6500,-7.0700,-0.6400,-36.1875,-18.8125,151.3125,44.5625,90.3125,0.0000,182.6250,
2025-03-09 15:05:09.704,6.1600,-7.2100,-0.5800,-41.8750,-29.3125,159.6250,43.0625,91.0000,0.0000,181.1250,
2025-03-09 15:05:09.715,6.1100,-7.5700,-0.8500,-45.1875,-50.2500,163.5000,41.4375,91.8125,0.0000,179.5000,
2025-03-09 15:05:09.727,6.9800,-7.8800,-0.5600,-56.3750,-69.0000,175.5000,39.7500,92.8750,0.0000,177.6250,
2025-03-09 15:05:09.733,7.1600,-6.9600,0.5700,-78.8750,-80.3125,184.0625,37.8750,94.1875,0.0000,175.6875,
2025-03-09 15:05:09.748,6.8600,-6.5800,1.1800,-91.5625,-71.6875,191.2500,36.0000,95.5000,0.0000,173.8125,
2025-03-09 15:05:09.757,6.5400,-7.1600,0.4700,-75.8125,-45.6875,183.6875,34.1875,96.3750,0.0000,172.1250,
2025-03-09 15:05:09.763,5.7900,-7.5800,-0.2200,-46.8125,-22.8125,159.1250,32.6250,96.8750,0.0000,170.6875,
2025-03-09 15:05:09.793,5.3400,-8.0300,-0.9300,-18.7500,-9.8750,135.6875,31.3125,97.0000,0.0000,169.3750,
2025-03-09 15:05:09.793,4.8800,-8.6300,-1.5100,-4.6250,-10.1250,125.6875,30.0625,97.0000,0.0000,168.0625,
2025-03-09 15:05:09.829,5.0300,-8.5400,-1.0700,-6.2500,-14.5000,127.8125,28.8125,97.0625,0.0000,166.7500,
2025-03-09 15:05:09.829,5.3000,-8.3900,-0.5100,-8.0000,-15.0000,135.1250,27.5000,97.1250,0.0000,165.3125,
2025-03-09 15:05:09.829,4.7900,-8.1000,-0.4000,1.5000,-13.5625,132.6250,26.2500,97.1250,0.0000,163.9375,
2025-03-09 15:05:09.840,4.5800,-8.2400,-0.4200,11.5625,-9.3125,125.3750,25.0000,97.0000,0.0000,162.5625,
2025-03-09 15:05:09.840,4.2400,-8.3500,-0.6400,13.8125,-4.0000,119.9375,23.8750,96.8125,0.0000,161.3125,
2025-03-09 15:05:09.852,3.6100,-8.5200,-1.0800,12.6250,3.1250,114.3750,22.7500,96.6250,0.0000,160.1875,
2025-03-09 15:05:09.859,3.0900,-8.8000,-1.5500,11.7500,6.1250,109.5000,21.7500,96.4375,0.0000,159.1250,
2025-03-09 15:05:09.865,3.2500,-8.7500,-1.0400,14.6875,0.4375,102.5625,20.7500,96.2500,0.0000,158.0625,
2025-03-09 15:05:09.874,3.6700,-8.7500,-0.5500,18.0000,-3.6250,96.7500,19.8125,96.0625,0.0000,157.0000,
2025-03-09 15:05:09.890,3.5000,-9.0000,-0.4800,22.6875,-1.0000,92.3750,18.9375,95.8125,0.0000,156.0625,
2025-03-09 15:05:09.896,3.1100,-9.4200,-1.2100,29.3750,6.0000,89.5625,18.0625,95.4375,0.0000,155.1250,
2025-03-09 15:05:09.904,2.5200,-9.5700,-1.6000,30.1250,9.3750,93.6875,17.1250,95.1250,0.0000,154.1875,
2025-03-09 15:05:09.916,2.3600,-9.2100,-1.2700,17.5625,6.8750,105.9375,16.1250,94.8750,0.0000,153.1875,
2025-03-09 15:05:09.931,2.0500,-8.9600,-1.0200,7.6875,2.5000,117.6250,15.0000,94.7500,0.0000,152.0625,
2025-03-09 15:05:09.933,1.9300,-8.9100,-0.8000,3.1875,-3.6875,119.3750,13.8750,94.7500,0.0000,150.8750,
2025-03-09 15:05:09.943,2.0700,-9.0000,-0.6500,1.0625,-6.2500,117.1875,12.6875,94.6875,0.0000,149.6875,
2025-03-09 15:05:09.961,2.0300,-9.2000,-0.3500,3.3750,-4.3750,110.1875,11.6250,94.6875,0.0000,148.9375,
2025-03-09 15:05:09.963,2.0200,-9.0700,-0.2600,3.9375,0.8125,102.0625,10.6875,94.6250,0.0000,147.9375,
2025-03-09 15:05:09.973,1.4900,-8.9200,-0.5200,6.6250,7.3125,92.8750,9.7500,94.5000,0.0000,147.1250,
2025-03-09 15:05:09.987,1.1000,-8.9400,-0.6200,10.3750,5.3125,81.6250,9.0000,94.4375,0.0000,146.3750,
2025-03-09 15:05:09.993,1.5200,-8.8900,-0.0100,8.3125,-0.7500,75.1875,8.2500,94.3125,0.0000,145.6250,
2025-03-09 15:05:10.003,1.4500,-8.9300,0.0200,9.6875,-3.3125,71.1875,7.5625,94.2500,0.0000,145.2500,
2025-03-09 15:05:10.017,1.0400,-8.9500,-0.1400,13.8125,-0.1250,66.4375,6.9375,94.0625,0.0000,144.6250,
2025-03-09 15:05:10.031,0.6000,-8.7900,-0.3900,16.2500,3.5000,63.4375,6.3125,93.9375,0.0000,144.0000,
2025-03-09 15:05:10.035,0.6800,-9.0600,-0.3400,19.8125,1.6250,64.3125,5.6875,93.6875,0.0000,143.3750,
2025-03-09 15:05:10.047,0.7200,-9.3700,-0.4500,23.1875,-2.3750,66.8750,5.0625,93.5000,0.0000,142.6875,
2025-03-09 15:05:10.053,0.6300,-9.4400,-0.4500,22.5000,-3.6250,72.1875,4.3750,93.2500,0.0000,142.0625,
2025-03-09 15:05:10.069,0.3100,-9.3000,-0.2100,17.8750,-2.0625,74.1250,4.3750,93.2500,0.0000,142.0625,
2025-03-09 15:05:10.111,0.0500,-9.0000,-0.2800,15.1875,-1.5000,69.1250,2.9375,92.9375,0.0000,140.6250,
2025-03-09 15:05:10.111,-0.1700,-8.9000,-0.2500,14.2500,-3.3125,57.5000,2.4375,92.8125,0.0000,140.0625,
2025-03-09 15:05:10.112,0.1900,-9.1100,0.0200,13.8125,-5.9375,45.5000,1.9375,92.6875,0.0000,139.5625,
2025-03-09 15:05:10.112,0.4900,-9.5200,0.1900,13.1875,-6.7500,37.3750,1.9375,92.6875,0.0000,139.5625,
2025-03-09 15:05:10.112,0.2100,-9.5800,-0.1300,18.0000,-1.8750,31.4375,1.6250,92.5625,0.0000,139.1875,
2025-03-09 15:05:10.135,-0.0600,-9.4500,-0.4300,20.5000,1.2500,27.5000,1.0625,92.1875,0.0000,138.5625,
2025-03-09 15:05:10.135,-0.0300,-9.3600,-0.1200,17.5625,0.3125,27.7500,0.7500,92.0000,0.0000,138.3125,
2025-03-09 15:05:10.144,0.2300,-9.4900,0.0200,9.3125,-2.6875,33.1250,0.4375,91.9375,0.0000,137.9375,
2025-03-09 15:05:10.153,-0.0500,-9.5500,-0.2000,5.9375,-4.9375,35.5000,0.1250,91.8750,0.0000,137.6250,
2025-03-09 15:05:10.170,-0.1900,-9.6000,-0.2200,1.5625,-5.5000,38.5000,-0.1875,91.8125,0.0000,137.1875,
2025-03-09 15:05:10.174,-0.0200,-9.7300,0.1200,-1.3125,-7.2500,46.8750,-0.6875,91.8125,0.0000,136.6250,
2025-03-09 15:05:10.188,-0.4600,-9.5800,-0.1900,1.2500,-6.0000,45.7500,-1.1250,91.8125,0.0000,136.1250,
2025-03-09 15:05:10.198,-0.5900,-9.3900,-0.0800,2.5000,-2.6875,43.1875,-1.5625,91.8125,0.0000,135.6875,
2025-03-09 15:05:10.203,-0.5200,-9.3100,0.1600,5.6875,-3.3125,39.0625,-1.5625,91.8125,0.0000,135.6875,
2025-03-09 15:05:10.213,-0.3700,-9.4500,0.2400,10.6250,-3.2500,27.8750,-1.9375,91.7500,0.0000,135.3750,
2025-03-09 15:05:10.231,-0.3300,-9.7200,0.1800,10.3750,-2.0625,22.5625,-2.3750,91.5625,0.0000,134.8125,
2025-03-09 15:05:10.236,-0.5600,-9.7100,0.0800,10.7500,0.7500,23.4375,-2.6250,91.4375,0.0000,134.6250,
2025-03-09 15:05:10.258,-0.9900,-9.5100,-0.0700,11.4375,3.1250,24.6250,-2.8750,91.3125,0.0000,134.4375,
2025-03-09 15:05:10.258,-0.9900,-9.3600,0.0000,11.5000,3.1875,20.0000,-2.8750,91.3125,0.0000,134.4375,
2025-03-09 15:05:10.263,-1.0000,-9.4300,-0.1200,7.8125,3.0625,13.6875,-3.0625,91.1875,0.0000,134.3750,
2025-03-09 15:05:10.280,-0.7600,-9.6300,0.0500,4.3125,0.3125,11.5000,-3.3125,91.1250,0.0000,134.1875,
2025-03-09 15:05:10.290,-0.8800,-9.7000,0.0800,-0.1875,-3.4375,13.0000,-3.4375,91.1250,0.0000,134.0000,
2025-03-09 15:05:10.294,-0.7500,-9.6100,0.2300,-3.8125,-4.8750,12.8125,-3.5625,91.1250,0.0000,133.8750,
2025-03-09 15:05:10.310,-0.6200,-9.5500,0.3900,-1.7500,-5.4375,10.2500,-3.5625,91.1250,0.0000,133.8750,
2025-03-09 15:05:10.314,-0.6200,-9.5500,0.3900,5.7500,-5.1875,6.6250,-3.6875,91.1250,0.0000,133.7500,
2025-03-09 15:05:10.325,-0.5000,-9.8100,0.1100,6.5625,-4.3750,6.0000,-3.8125,91.0000,0.0000,133.5625,
2025-03-09 15:05:10.340,-0.4800,-9.8100,0.1700,2.4375,-1.8750,6.5625,-3.8750,91.0000,0.0000,133.4375,
2025-03-09 15:05:10.348,-0.3900,-9.9900,0.1000,0.4375,-1.9375,8.3125,-3.9375,91.0000,0.0000,133.3750,
2025-03-09 15:05:10.353,-0.3900,-9.9900,0.1000,-3.4375,-0.9375,13.2500,-3.9375,91.0000,0.0000,133.3750,
2025-03-09 15:05:10.363,-0.6200,-9.9200,0.0700,-3.4375,-0.9375,13.2500,-4.0625,91.0000,0.0000,133.2500,
2025-03-09 15:05:10.410,-0.7700,-9.8200,0.0300,-5.2500,-1.1875,14.1875,-4.3125,91.1250,0.0000,132.9375,
2025-03-09 15:05:10.412,-1.0000,-9.4900,-0.0800,-4.8125,-0.1875,11.1250,-4.4375,91.1250,0.0000,132.8750,
2025-03-09 15:05:10.412,-0.9200,-9.3400,0.0300,-1.0000,-0.7500,6.5000,-4.5000,91.1250,0.0000,132.8125,
2025-03-09 15:05:10.412,-0.9200,-9.3400,0.0300,-2.0625,-4.1250,3.6875,-4.5000,91.1250,0.0000,132.8125,
2025-03-09 15:05:10.412,-0.5700,-9.3600,0.3800,-2.0625,-4.1250,3.6875,-4.5000,91.1875,0.0000,132.6875,
2025-03-09 15:05:10.427,-0.3000,-9.7000,0.4500,-5.3750,-3.3750,5.3125,-4.6250,91.2500,0.0000,132.5625,
2025-03-09 15:05:10.441,-0.3100,-9.6900,0.5100,-4.6250,-0.9375,10.0625,-4.6875,91.3125,0.0000,132.4375,
2025-03-09 15:05:10.445,-0.4600,-9.5700,0.5100,-0.3750,2.1875,9.1875,-4.8125,91.3125,0.0000,132.3750,
2025-03-09 15:05:10.453,-0.4600,-9.5700,0.5100,4.1250,3.6875,6.8125,-4.8125,91.3125,0.0000,132.3750,
2025-03-09 15:05:10.467,-1.0500,-9.3500,-0.0400,0.1250,1.6250,8.0625,-4.8750,91.2500,0.0000,132.3125,
2025-03-09 15:05:10.474,-0.9700,-9.3800,0.2100,-2.0000,-1.1250,8.8750,-5.0625,91.2500,0.0000,132.1875,
2025-03-09 15:05:10.484,-1.1200,-9.4400,0.0700,0.9375,-0.2500,5.6250,-5.0625,91.2500,0.0000,132.1250,
2025-03-09 15:05:10.495,-1.1300,-9.3500,0.2500,3.2500,-0.2500,2.1875,-5.1250,91.2500,0.0000,132.1250,
2025-03-09 15:05:10.505,-1.1300,-9.3500,0.2500,6.6250,-0.7500,-2.4375,-5.1250,91.2500,0.0000,132.1250,
2025-03-09 15:05:10.513,-1.1000,-9.3000,0.2200,2.2500,-1.1875,-3.4375,-5.0625,91.1875,0.0000,132.1250,
2025-03-09 15:05:10.530,-0.6000,-9.7000,0.1900,-1.6875,-1.8750,-1.3125,-5.0625,91.1250,0.0000,132.1250,
2025-03-09 15:05:10.534,-0.6000,-9.6800,0.1800,-5.3125,-0.3750,0.6875,-5.0625,91.1875,0.0000,132.1250,
2025-03-09 15:05:10.551,-0.8100,-9.6100,0.0000,-5.1250,1.0000,-0.0625,-5.0625,91.2500,0.0000,132.1250,
2025-03-09 15:05:10.558,-0.8100,-9.6100,0.0000,-3.6250,0.7500,-2.2500,-5.0625,91.2500,0.0000,132.1250,
2025-03-09 15:05:10.563,-1.0400,-9.6500,-0.2400,0.0625,-0.1250,-5.1875,-5.0000,91.2500,0.0000,132.3750,
2025-03-09 15:05:10.578,-0.7900,-9.4100,0.2500,5.6875,1.6250,-8.4375,-4.8750,91.1875,0.0000,132.5000,
2025-03-09 15:05:10.588,-1.0100,-9.2800,0.0700,8.4375,3.1250,-10.0625,-4.8125,91.1250,0.0000,132.6250,
2025-03-09 15:05:10.597,-1.1000,-9.2700,-0.0400,7.0000,0.3125,-10.6875,-4.6875,91.0625,0.0000,132.7500,
2025-03-09 15:05:10.603,-1.1000,-9.2700,-0.0400,5.4375,-1.7500,-12.1875,-4.6875,91.0625,0.0000,132.7500,
2025-03-09 15:05:10.625,-0.8800,-9.3000,0.0500,4.0625,-0.8750,-15.1250,-4.5625,91.0000,0.0000,132.9375,
2025-03-09 15:05:10.625,-0.7400,-9.3500,0.0600,1.7500,-0.6250,-18.0625,-4.4375,90.9375,0.0000,133.0625,
2025-03-09 15:05:10.638,-0.5200,-9.3000,0.3200,-1.5000,-1.2500,-20.0000,-4.2500,90.9375,0.0000,133.2500,
2025-03-09 15:05:10.657,-0.5100,-9.3300,0.2900,-2.0000,-0.4375,-20.5000,-4.0625,90.9375,0.0000,133.4375,
2025-03-09 15:05:10.661,-0.5100,-9.3300,0.2900,-1.8750,1.0000,-19.6250,-3.8750,90.9375,0.0000,133.6250,
2025-03-09 15:05:10.664,-0.4700,-9.3300,0.2100,-1.8125,1.4375,-18.7500,-3.6875,90.9375,0.0000,133.8750,
2025-03-09 15:05:10.711,-0.5200,-9.1800,0.1800,-0.6250,2.1875,-20.6250,-3.5000,91.0000,0.0000,134.0625,
2025-03-09 15:05:10.711,-0.7600,-9.2300,-0.0300,-0.8750,3.1875,-25.9375,-3.3125,91.0000,0.0000,134.3125,
2025-03-09 15:05:10.711,-0.7200,-9.1000,0.0400,-1.6875,3.0000,-33.6250,-3.0625,91.0000,0.0000,134.5625,
2025-03-09 15:05:10.711,-0.7200,-9.1000,0.0400,1.2500,1.9375,-40.1875,-2.7500,91.0000,0.0000,134.9375,
2025-03-09 15:05:10.713,-0.8200,-8.9400,-0.0500,1.2500,1.9375,-40.1875,-2.3750,91.0000,0.0000,135.3125,
2025-03-09 15:05:10.731,-0.2200,-9.1600,0.2300,1.6875,-1.2500,-40.5000,-2.0000,90.9375,0.0000,135.6875,
2025-03-09 15:05:10.735,0.0000,-9.0900,0.3800,2.8125,-0.9375,-37.6875,-1.6250,90.9375,0.0000,136.0625,
2025-03-09 15:05:10.748,0.0600,-9.1000,0.3800,5.3125,0.1875,-37.1875,-1.2500,90.8750,0.0000,136.3750,
2025-03-09 15:05:10.753,0.0600,-9.1000,0.3800,9.6875,3.3750,-41.5000,-0.8750,90.8750,0.0000,136.7500,
2025-03-09 15:05:10.766,-0.0100,-9.0400,0.2900,12.7500,6.1250,-48.3750,-0.5000,90.7500,0.0000,137.1875,
2025-03-09 15:05:10.775,-0.3600,-8.8500,0.0200,13.7500,7.0625,-55.1250,0.0000,90.6250,0.0000,137.7500,
2025-03-09 15:05:10.785,-0.3700,-8.6500,0.1100,12.5625,5.4375,-59.2500,0.5000,90.5000,0.0000,138.3125,
2025-03-09 15:05:10.801,-0.4200,-8.5200,0.1500,14.0625,3.1250,-65.6875,1.0625,90.3750,0.0000,138.9375,
2025-03-09 15:05:10.803,-0.4200,-8.5200,0.1500,14.0625,3.1250,-65.6875,1.6875,90.2500,0.0000,139.6250,
2025-03-09 15:05:10.814,0.0000,-8.2900,0.2200,14.1250,-4.1250,-84.5625,2.4375,90.0625,0.0000,140.3750,
2025-03-09 15:05:10.841,0.8700,-8.7600,0.4000,11.6875,-4.8750,-92.1875,3.2500,89.9375,0.0000,141.1875,
2025-03-09 15:05:10.841,1.1800,-9.1300,0.2700,6.1250,-7.3125,-95.1875,4.1250,89.8125,0.0000,142.0000,
2025-03-09 15:05:10.850,1.4600,-9.4900,0.3300,-0.2500,-8.3125,-90.6250,5.0625,89.8125,0.0000,142.8125,
2025-03-09 15:05:10.869,1.5800,-9.1400,0.8800,-2.3125,-8.7500,-86.0000,6.7500,89.8125,0.0000,144.4375,
2025-03-09 15:05:10.875,1.0400,-8.8500,0.4300,-0.1875,-1.8125,-106.0000,7.6250,89.8125,0.0000,145.2500,
2025-03-09 15:05:10.890,1.3800,-8.4900,0.4500,-4.0000,-3.9375,-116.1875,8.6875,89.8125,0.0000,146.3125,
2025-03-09 15:05:10.896,1.9500,-8.4800,0.6700,-2.3125,-6.3125,-124.4375,9.8125,89.8750,0.0000,147.3750,
2025-03-09 15:05:10.920,2.1400,-8.6000,0.5200,4.8125,-5.6875,-129.8750,12.2500,89.8750,0.0000,149.7500,
2025-03-09 15:05:10.925,2.7100,-8.9800,0.5300,9.1250,0.6875,-140.6875,13.5625,89.8125,0.0000,150.9375,
2025-03-09 15:05:10.935,2.5200,-8.6600,0.3500,4.3750,2.5000,-143.3750,14.9375,89.6875,0.0000,152.3125,
2025-03-09 15:05:10.955,2.8200,-8.8200,0.2900,-2.9375,0.6875,-142.6250,17.6875,89.6875,0.0000,155.1250,
2025-03-09 15:05:10.963,3.2600,-8.6800,0.2500,-9.4375,-0.8125,-143.9375,19.0625,89.7500,0.0000,156.5625,
2025-03-09 15:05:10.995,3.8300,-8.6200,0.3100,-16.3125,0.8125,-150.4375,20.5000,89.9375,0.0000,158.0000,
2025-03-09 15:05:11.010,4.3500,-8.7000,-0.3300,-12.7500,-1.1250,-158.9375,23.4375,90.1875,0.0000,161.0625,
2025-03-09 15:05:11.013,4.4500,-8.2200,0.0600,-13.1250,-0.3125,-163.8125,26.5625,90.5000,0.0000,164.3125,
2025-03-09 15:05:11.025,5.2300,-8.9800,-0.6300,-12.8750,-9.3125,-150.5000,28.1250,90.6250,0.0000,165.8750,
2025-03-09 15:05:11.046,6.1700,-8.4800,0.0400,-18.9375,-13.0625,-126.2500,30.9375,91.0625,0.0000,168.6250,
2025-03-09 15:05:11.068,6.1200,-7.1800,0.4100,-21.2500,-6.5625,-122.8750,33.3125,91.6250,0.0000,171.1250,
2025-03-09 15:05:11.076,6.0000,-6.4800,0.5300,-37.5000,-3.6250,-125.6250,34.5000,91.9375,0.0000,172.4375,
2025-03-09 15:05:11.097,6.6900,-7.7700,-0.8200,-28.4375,-11.2500,-142.6250,37.0625,92.7500,0.0000,175.3125,
2025-03-09 15:05:11.113,7.1400,-8.1700,-1.0500,-26.1875,-13.1250,-141.2500,39.8125,93.5625,0.0000,178.1875,
2025-03-09 15:05:11.128,7.0700,-6.7400,-0.6900,-24.0625,-7.5625,-143.3125,41.1250,94.0000,0.0000,179.6875,
2025-03-09 15:05:11.153,7.0000,-5.7800,-0.5200,-23.8750,-4.6875,-150.0625,43.9375,94.7500,0.0000,182.7500,
2025-03-09 15:05:11.163,7.6000,-5.6200,-0.0400,-22.8125,-1.1875,-152.3125,46.8750,95.5625,0.0000,185.9375,
2025-03-09 15:05:11.191,8.4500,-6.6600,-0.5200,-10.3125,11.0000,-154.0625,48.3750,95.8125,0.0000,187.6250,
2025-03-09 15:05:11.195,8.1300,-6.5000,-1.2600,8.5625,17.5000,-152.8125,51.3750,95.9375,0.0000,190.8125,
2025-03-09 15:05:11.216,8.2200,-6.1000,-1.1200,11.1875,15.9375,-154.3125,54.3750,95.7500,0.0000,193.8750,
2025-03-09 15:05:11.228,8.3500,-4.9300,-0.3700,7.6875,16.0000,-154.8750,55.8750,95.6250,0.0000,195.3750,
2025-03-09 15:05:11.249,9.4600,-4.9800,0.0900,1.8125,18.8125,-151.0625,58.8750,95.4375,0.0000,198.4375,
2025-03-09 15:05:11.263,10.0700,-5.4800,-0.2200,7.0625,26.0000,-149.8750,61.8125,95.0625,0.0000,201.5000,
2025-03-09 15:05:11.295,9.9600,-4.6900,-0.4400,30.6250,41.2500,-159.1250,63.3750,94.4375,0.0000,203.0000,
2025-03-09 15:05:11.314,9.8000,-4.1000,-0.4600,27.8750,38.0625,-147.6875,66.5000,92.4375,0.0000,205.8750,
2025-03-09 15:05:11.315,10.5400,-3.9500,0.1200,14.6875,35.6875,-135.9375,69.2500,90.4375,0.0000,208.5000,
2025-03-09 15:05:11.330,9.7800,-3.5600,0.0200,6.4375,30.0000,-125.0625,70.5625,89.3750,0.0000,209.8125,
2025-03-09 15:05:11.349,10.1500,-3.7600,-0.1100,-0.5625,23.8125,-115.3750,72.8750,87.4375,0.0000,212.2500,
2025-03-09 15:05:11.366,9.8900,-2.4700,0.4400,-6.1875,23.4375,-110.9375,75.0625,85.3750,0.0000,214.6250,
2025-03-09 15:05:11.376,9.5400,-1.9500,0.5100,-7.8750,28.2500,-124.7500,76.1250,84.0625,0.0000,215.8750,
2025-03-09 15:05:11.396,9.6000,-1.1300,1.1200,-11.5625,33.4375,-141.6875,78.5625,80.1875,0.0000,218.6875,
2025-03-09 15:05:11.415,10.2400,-1.9900,0.6600,-15.3125,37.0000,-140.1250,81.0625,73.2500,0.0000,221.7500,
2025-03-09 15:05:11.428,10.1500,-2.1100,0.2700,-1.8125,31.3750,-129.6875,82.1875,68.0000,0.0000,223.2500,
2025-03-09 15:05:11.451,9.6200,-2.0100,-0.1200,7.1250,13.0000,-110.8125,84.1250,4.7500,0.0000,225.6875,
2025-03-09 15:05:11.464,9.6600,-1.2000,0.1000,3.5625,5.1875,-99.5000,85.4375,2.6875,0.0000,227.6250,
2025-03-09 15:05:11.481,9.9200,-0.7700,0.6200,-9.7500,-3.4375,-77.2500,85.9375,1.8750,0.0000,228.5000,
2025-03-09 15:05:11.498,10.0300,0.2400,1.4900,1.0000,-0.9375,-71.8750,86.4375,0.4375,0.0000,230.1250,
2025-03-09 15:05:11.518,10.0500,-0.2700,0.6900,7.6250,5.0625,-77.2500,86.3125,-0.9375,0.0000,231.3125,
2025-03-09 15:05:11.526,9.4100,0.0000,0.4000,4.8125,0.9375,-74.5000,86.0000,-1.6875,0.0000,232.0000,
2025-03-09 15:05:11.547,9.1400,0.2600,0.2000,4.6875,-17.9375,-64.6250,85.2500,-3.0625,0.0000,233.3750,
2025-03-09 15:05:11.563,10.2200,0.0100,0.1700,11.0000,-24.3750,-57.8750,84.6875,-4.2500,0.0000,234.4375,
2025-03-09 15:05:11.606,10.3000,0.3300,0.4700,21.8750,-25.0000,-46.8125,84.4375,-4.7500,0.0000,234.7500,
2025-03-09 15:05:11.614,9.9700,0.8000,0.5100,16.9375,-22.4375,-36.5625,83.8750,-5.6250,0.0000,235.3125,
2025-03-09 15:05:11.614,10.0400,1.4300,0.9300,16.7500,-20.3750,-35.6250,83.3125,-6.3125,0.0000,235.6250,
2025-03-09 15:05:11.630,10.1400,1.3800,0.9300,2.0000,-19.0625,-18.3750,83.1250,-75.8750,0.0000,235.8125,
2025-03-09 15:05:11.646,10.7300,1.1800,1.0200,6.1250,-4.1875,-18.6875,82.8125,-79.0000,0.0000,236.1250,
2025-03-09 15:05:11.669,10.3500,0.7900,0.3500,1.6875,0.9375,-15.6250,82.5000,-79.8125,0.0000,236.3125,
2025-03-09 15:05:11.676,9.8200,0.8900,0.1400,-0.5625,1.5000,-10.7500,82.4375,-79.8125,0.0000,236.3750,
2025-03-09 15:05:11.702,9.3900,1.3300,0.1200,1.0000,-4.6250,-0.9375,82.3750,-80.1250,0.0000,236.4375,
2025-03-09 15:05:11.713,9.5700,1.4000,0.3600,-2.0000,-6.2500,-0.7500,82.3750,-80.9375,0.0000,236.4375,
2025-03-09 15:05:11.729,9.8900,1.2700,0.5500,-4.3125,-7.6250,2.4375,82.3750,-81.4375,0.0000,236.5000,
2025-03-09 15:05:11.748,10.2100,0.9400,0.3700,-10.7500,-2.6875,11.5625,82.4375,-82.1250,0.0000,236.5000,
2025-03-09 15:05:11.772,10.1000,0.8300,0.1600,-15.4375,-4.1875,20.1250,82.8125,-82.0625,0.0000,236.4375,
2025-03-09 15:05:11.782,9.6300,0.9900,-0.0600,-18.5000,-4.6250,28.0000,83.0625,-82.0000,0.0000,236.3125,
2025-03-09 15:05:11.797,9.4600,1.1800,-0.0800,-35.2500,-2.2500,34.6250,83.7500,-6.1250,0.0000,236.1250,
2025-03-09 15:05:11.817,9.5400,0.9700,0.1400,-30.7500,-1.8750,26.3750,84.3750,-5.5000,0.0000,236.1250,
2025-03-09 15:05:11.827,9.7900,0.9200,0.3600,-22.1875,-3.2500,17.5625,84.5000,-5.3125,0.0000,236.1250,
2025-03-09 15:05:11.848,9.7600,0.7600,0.1700,-12.0625,-4.1875,6.5000,84.6875,-5.1875,0.0000,236.2500,
2025-03-09 15:05:11.870,9.8000,0.9800,0.5100,-18.4375,-7.5625,13.8750,84.9375,-4.9375,0.0000,236.3125,
2025-03-09 15:05:11.922,9.8100,0.9900,0.4700,-14.7500,-7.7500,12.8750,85.1250,-4.8125,0.0000,236.3750,
2025-03-09 15:05:11.922,9.9500,0.7100,0.2500,-1.1875,-4.0000,2.9375,85.2500,-4.6875,0.0000,236.3125,
2025-03-09 15:05:11.928,9.9100,0.4900,0.0900,-7.8125,-3.6250,8.3125,85.3750,-4.5625,0.0000,236.3125,
2025-03-09 15:05:11.928,9.9300,0.4900,0.1200,-7.3125,-5.5625,9.1875,85.4375,-4.4375,0.0000,236.3125,
2025-03-09 15:05:11.946,9.7400,0.8000,0.2200,6.6875,-5.6875,1.7500,85.5625,-4.3750,0.0000,236.1875,
2025-03-09 15:05:11.966,9.9800,0.7500,0.0500,4.1875,-6.3125,0.3750,85.5625,-4.3750,0.0000,236.0000,
2025-03-09 15:05:11.977,10.1800,0.6700,0.2200,-2.2500,-6.2500,3.6875,85.5625,-4.3750,0.0000,236.0000,
2025-03-09 15:05:11.998,10.1400,0.7200,0.1800,-0.6250,-3.6250,3.5000,85.6250,-4.3125,0.0000,236.0000,
2025-03-09 15:05:12.003,9.8100,0.4800,-0.2900,-1.8125,-2.6875,4.6875,85.6875,-4.2500,0.0000,235.8750,
2025-03-09 15:05:12.012,9.7600,0.5600,-0.2000,-1.8125,-3.2500,4.1250,85.7500,-4.1875,0.0000,235.8750,
2025-03-09 15:05:12.030,9.8900,0.4800,-0.1200,-1.2500,-3.8750,4.0625,85.7500,-4.1875,0.0000,235.8750,
2025-03-09 15:05:12.049,10.0600,0.6500,0.1500,0.2500,-4.7500,7.5000,85.9375,-175.9375,0.0000,235.7500,
2025-03-09 15:05:12.065,10.0100,0.7500,0.1400,4.0625,-0.1875,5.9375,86.0625,-176.0625,0.0000,235.4375,
2025-03-09 15:05:12.079,9.8300,0.8800,0.2000,4.5000,2.8750,3.8750,86.0625,-176.0625,0.0000,235.3750,
2025-03-09 15:05:12.097,9.3800,0.7200,-0.0800,7.2500,5.5000,-4.0625,86.0000,-3.9375,0.0000,235.3125,
2025-03-09 15:05:12.125,9.7500,0.4400,-0.1000,3.5625,-0.5000,-0.9375,86.0000,-3.9375,0.0000,235.3750,
2025-03-09 15:05:12.125,9.8500,0.3800,-0.1200,1.6875,-2.3750,0.3750,86.0000,-3.9375,0.0000,235.3750,
2025-03-09 15:05:12.155,9.7600,0.5400,-0.1400,1.0000,-4.0000,2.1875,86.0625,-176.0625,0.0000,235.3125,
2025-03-09 15:05:12.163,9.9300,0.6400,0.1100,2.5625,-4.8750,0.8750,86.0625,-176.0625,0.0000,235.2500,
2025-03-09 15:05:12.219,9.8200,0.6200,0.0900,3.0000,-3.5000,-2.0000,86.0625,-176.0625,0.0000,235.2500,
2025-03-09 15:05:12.219,9.9800,0.6700,0.2400,-3.8750,-3.6250,0.1875,86.0625,-176.0625,0.0000,235.2500,
2025-03-09 15:05:12.219,10.0400,0.7600,0.3500,-7.7500,-0.3750,2.8750,86.1250,-176.1250,0.0000,235.3750,
2025-03-09 15:05:12.219,9.9100,0.7700,0.2700,-5.3750,2.5625,1.8125,86.1250,-176.1250,0.0000,235.3750,
2025-03-09 15:05:12.227,9.7000,0.7600,0.0000,-0.3125,4.6875,-1.3750,86.1250,-176.1250,0.0000,235.3750,
2025-03-09 15:05:12.235,9.4200,0.5400,-0.3000,0.2500,3.6250,-1.5625,86.1250,-176.1250,0.0000,235.4375,
2025-03-09 15:05:12.255,9.7500,0.4900,0.0000,-3.0625,-2.4375,3.5000,86.1875,-176.1875,0.0000,235.4375,
2025-03-09 15:05:12.263,9.8200,0.4400,0.0000,-0.7500,-2.9375,2.3125,86.1875,-176.1875,0.0000,235.1875,
2025-03-09 15:05:12.276,10.0500,0.5300,0.1500,-0.5000,-3.2500,3.5000,86.1875,-176.1875,0.0000,235.1250,
2025-03-09 15:05:12.291,10.0800,0.5500,0.1400,0.3125,-1.5000,2.6250,86.2500,-176.2500,0.0000,235.1250,
2025-03-09 15:05:12.305,9.9800,0.6200,0.1300,4.9375,2.8125,-2.0000,86.2500,-176.2500,0.0000,235.0625,
2025-03-09 15:05:12.313,9.6800,0.6100,0.0000,6.3125,4.4375,-3.5625,86.1875,-176.1875,0.0000,234.8750,
2025-03-09 15:05:12.328,9.6700,0.6500,0.1300,3.1875,3.5625,-1.7500,86.1875,-176.1875,0.0000,234.8750,
2025-03-09 15:05:12.337,9.6500,0.6000,0.0300,4.0000,2.3750,-1.2500,86.1875,-176.1875,0.0000,234.8750,
2025-03-09 15:05:12.345,9.7900,0.6400,0.1800,2.9375,0.5000,0.8125,86.1875,-176.1875,0.0000,234.8125,
2025-03-09 15:05:12.364,10.0200,0.6400,0.2500,0.8125,-1.1875,3.0625,86.1875,-176.1875,0.0000,234.7500,
2025-03-09 15:05:12.364,10.0200,0.6200,0.1300,4.4375,-0.2500,0.5000,86.1875,-176.1875,0.0000,234.7500,
2025-03-09 15:05:12.396,10.0200,0.6700,0.1500,5.5625,1.8750,-2.1250,86.1875,-176.1875,0.0000,234.6875,
2025-03-09 15:05:12.396,9.8800,0.5900,-0.0100,5.0625,2.8125,-3.3125,86.1250,-176.1250,0.0000,234.6875,
2025-03-09 15:05:12.396,9.9300,0.6100,0.0800,3.8750,1.7500,-1.4375,86.1250,-176.1250,0.0000,234.6250,
2025-03-09 15:05:12.403,9.8700,0.6000,0.0100,7.2500,1.4375,-1.8750,86.1250,-3.8125,0.0000,234.5625,
2025-03-09 15:05:12.421,10.0100,0.6800,0.1300,5.9375,0.3125,-0.1875,86.1250,-3.8125,0.0000,234.5625,
2025-03-09 15:05:12.423,9.9800,0.6700,0.1300,3.5000,0.4375,0.8750,86.1250,-3.8125,0.0000,234.5000,
2025-03-09 15:05:12.434,9.8500,0.7100,0.0500,2.0625,2.0000,0.6875,86.1250,-3.8125,0.0000,234.4375,
2025-03-09 15:05:12.448,9.7800,0.7700,0.0300,0.4375,3.0000,0.6250,86.1250,-3.8125,0.0000,234.4375,
2025-03-09 15:05:12.453,9.6300,0.6100,-0.1900,-0.3125,3.1250,0.6250,86.1250,-3.8125,0.0000,234.4375,
2025-03-09 15:05:12.463,9.6500,0.4500,-0.2600,-2.0625,2.0625,1.5000,86.1875,-3.7500,0.0000,234.4375,
2025-03-09 15:05:12.492,9.6800,0.4500,-0.2200,-5.1875,-0.1875,3.9375,86.1875,-3.7500,0.0000,234.4375,
2025-03-09 15:05:12.492,9.9000,0.5800,0.1400,-6.4375,-2.3750,4.8125,86.2500,-3.6875,0.0000,234.4375,
2025-03-09 15:05:12.495,9.9200,0.6600,0.1500,-3.0625,-2.8750,3.6875,86.3125,-3.6250,0.0000,234.4375,
2025-03-09 15:05:12.516,9.8900,0.6400,0.1000,-1.1250,-2.5625,3.1250,86.3125,-3.6250,0.0000,234.4375,
2025-03-09 15:05:12.521,9.9800,0.7300,0.2100,-3.1250,-2.8125,4.8750,86.3750,-3.5625,0.0000,234.3125,
2025-03-09 15:05:12.523,9.9900,0.6900,0.2600,-2.8125,-1.7500,5.1875,86.4375,-176.4375,0.0000,234.3125,
2025-03-09 15:05:12.550,10.0100,0.6800,0.2700,-1.7500,0.1250,4.0000,86.4375,-3.5000,0.0000,234.3125,
2025-03-09 15:05:12.550,9.9200,0.6200,0.1400,-0.6250,2.0000,2.2500,86.5000,-3.4375,0.0000,234.2500,
2025-03-09 15:05:12.604,9.7700,0.6000,0.1100,0.2500,3.2500,0.9375,86.5000,-3.4375,0.0000,234.2500,
2025-03-09 15:05:12.604,9.7400,0.4800,-0.1100,1.9375,3.0625,0.2500,86.5000,-3.4375,0.0000,234.2500,
2025-03-09 15:05:12.604,9.8100,0.3700,-0.1600,0.5000,2.1250,1.1250,86.5000,-3.4375,0.0000,234.2500,
2025-03-09 15:05:12.604,9.8200,0.4800,-0.0200,-1.2500,1.7500,2.5625,86.5000,-3.4375,0.0000,234.1875,
2025-03-09 15:05:12.604,9.7600,0.5000,0.0100,0.5625,1.3125,1.7500,86.5625,-3.3750,0.0000,234.1875,
2025-03-09 15:05:12.605,9.8400,0.5300,0.1200,-0.1875,-0.0625,2.7500,86.5625,-3.3750,0.0000,234.1875,
2025-03-09 15:05:12.645,9.8200,0.5600,0.1500,0.6875,-0.7500,2.5000,86.5625,-3.3750,0.0000,234.1250,
2025-03-09 15:05:12.645,9.9300,0.5300,0.2000,1.1875,-0.6875,2.3125,86.6250,-3.3125,0.0000,234.1250,
2025-03-09 15:05:12.674,9.8700,0.5200,0.1000,0.5625,0.2500,1.1875,86.6250,-3.3125,0.0000,234.0625,
2025-03-09 15:05:12.674,9.8200,0.5000,0.0400,0.8125,1.6875,-0.1875,86.6250,-3.3125,0.0000,234.0625,
2025-03-09 15:05:12.674,9.6900,0.5100,-0.0600,0.3750,2.1875,-0.6875,86.6250,-3.3125,0.0000,234.0625,
2025-03-09 15:05:12.674,9.8800,0.5100,0.1000,-1.6875,0.2500,1.5625,86.6250,-3.3125,0.0000,234.0625,
2025-03-09 15:05:12.674,9.8700,0.6100,0.1700,-0.3750,-1.2500,2.9375,86.6875,-3.2500,0.0000,234.0000,
2025-03-09 15:05:12.694,9.8100,0.7000,0.1500,2.0625,-0.9375,2.6250,86.6875,-3.2500,0.0000,234.0000,
2025-03-09 15:05:12.694,9.8300,0.6400,0.1300,0.5000,-0.6250,3.5625,86.6875,-3.1875,0.0000,233.9375,
2025-03-09 15:05:12.703,9.7100,0.5600,0.0600,-1.3750,-0.0625,3.3750,86.7500,-3.1875,0.0000,233.9375,
2025-03-09 15:05:12.729,9.7300,0.4800,0.0900,-2.3750,0.0000,2.9375,86.7500,-3.1250,0.0000,233.9375,
2025-03-09 15:05:12.733,9.8100,0.4400,0.1000,-2.8125,-0.7500,2.8750,86.8125,-3.1250,0.0000,233.9375,
2025-03-09 15:05:12.733,9.8800,0.4200,0.0800,-0.3750,-0.8125,2.5000,86.8125,-3.1250,0.0000,233.8750,
2025-03-09 15:05:12.757,9.9000,0.4900,0.1400,1.3125,-0.3125,1.5625,86.8750,-3.0625,0.0000,233.8750,
2025-03-09 15:05:12.760,9.9000,0.4400,0.1000,3.8750,1.0000,0.0000,86.8750,-3.0625,0.0000,233.8125,
2025-03-09 15:05:12.764,9.8200,0.5100,0.1500,5.4375,2.3125,-1.2500,86.8125,-3.1250,0.0000,233.6875,
2025-03-09 15:05:12.785,9.6000,0.5100,0.0100,7.7500,2.9375,-1.9375,86.8125,-3.1250,0.0000,233.6250,
2025-03-09 15:05:12.791,9.5500,0.4600,-0.0900,7.0625,2.4375,-1.3125,86.8125,-3.1250,0.0000,233.5625,
2025-03-09 15:05:12.812,9.6800,0.3900,-0.0800,3.5000,0.2500,0.6875,86.8125,-3.1250,0.0000,233.5000,
2025-03-09 15:05:12.812,9.9000,0.4200,0.1300,-0.8750,-1.2500,1.9375,86.8125,-3.1250,0.0000,233.5000,
2025-03-09 15:05:12.816,9.9800,0.4200,0.1900,-3.0625,-2.1250,2.8750,86.8750,-3.0625,0.0000,233.5000,
2025-03-09 15:05:12.823,9.9600,0.4300,0.0900,-3.0625,-1.6875,2.8750,86.8750,-3.0625,0.0000,233.5000,
2025-03-09 15:05:12.842,9.8300,0.4400,0.0500,-3.2500,-1.5625,3.5625,86.9375,-3.0000,0.0000,233.5000,
2025-03-09 15:05:12.845,9.8300,0.5200,0.1900,-3.8750,-1.6250,5.2500,87.0000,-2.9375,0.0000,233.5000,
2025-03-09 15:05:12.853,9.8400,0.5300,0.1800,-1.7500,-1.3125,4.5000,87.0000,-2.8750,0.0000,233.5000,
2025-03-09 15:05:12.870,9.8300,0.5600,0.2600,-1.2500,-0.3750,3.5000,87.0625,-2.8750,0.0000,233.4375,
2025-03-09 15:05:12.876,9.8700,0.4900,0.1300,-1.1875,0.9375,2.1875,87.0625,-2.8750,0.0000,233.4375,
2025-03-09 15:05:12.910,9.7700,0.4200,0.0500,0.6875,2.2500,0.4375,87.0625,-2.8750,0.0000,233.4375,
2025-03-09 15:05:12.910,9.7000,0.3300,-0.1100,1.3125,2.8125,-0.8125,87.0625,-2.8750,0.0000,233.4375,
2025-03-09 15:05:12.940,9.6900,0.3100,-0.0600,-1.1875,1.5625,0.6250,87.0625,-2.8750,0.0000,233.4375,
2025-03-09 15:05:12.940,9.7100,0.4000,0.0500,-1.2500,-0.1250,1.7500,87.1250,-2.8125,0.0000,233.4375,
2025-03-09 15:05:12.941,9.6600,0.4700,0.1000,0.3125,-1.2500,1.3125,87.1250,-2.8125,0.0000,233.3750,
2025-03-09 15:05:12.941,9.7100,0.5200,0.1500,-0.0625,-1.8125,1.4375,87.1250,-2.8125,0.0000,233.3750,
2025-03-09 15:05:12.943,9.8100,0.4700,0.1100,-0.2500,-2.0000,1.3125,87.1250,-2.8125,0.0000,233.3750,
2025-03-09 15:05:12.971,9.7800,0.4800,0.1000,0.0625,-0.8125,0.5000,87.1250,-2.8125,0.0000,233.3750,
2025-03-09 15:05:12.971,9.8200,0.4700,0.1000,-1.1875,-0.5625,1.9375,87.1875,-2.7500,0.0000,233.3750,
2025-03-09 15:05:12.974,9.8800,0.4200,0.1500,-1.6875,0.0625,2.3750,87.1875,-2.7500,0.0000,233.3750,
2025-03-09 15:05:13.003,9.7000,0.4600,0.0400,0.6250,1.0000,0.5625,87.1875,-2.7500,0.0000,233.3750,
2025-03-09 15:05:13.004,9.6400,0.4900,0.0600,2.0000,2.0000,-1.0625,87.1875,-2.7500,0.0000,233.3750,
2025-03-09 15:05:13.004,9.6900,0.4300,0.0800,1.4375,0.9375,-0.4375,87.1875,-2.7500,0.0000,233.3125,
2025-03-09 15:05:13.022,9.7600,0.4600,0.1700,1.1250,-0.4375,0.0625,87.1875,-2.7500,0.0000,233.3125,
2025-03-09 15:05:13.025,9.7800,0.4400,0.1600,1.2500,-0.5000,-0.1875,87.1875,-2.7500,0.0000,233.3125,
2025-03-09 15:05:13.034,9.8100,0.4500,0.1800,1.3750,-0.4375,-0.1250,87.1875,-2.7500,0.0000,233.3125,
2025-03-09 15:05:13.061,9.8600,0.4400,0.2200,1.9375,-0.1250,0.1875,87.1875,-2.7500,0.0000,233.2500,
2025-03-09 15:05:13.061,9.8300,0.4400,0.2100,3.7500,0.7500,0.1250,87.1875,-2.7500,0.0000,233.2500,
2025-03-09 15:05:13.063,9.7000,0.4800,0.1100,5.2500,1.3750,-0.7500,87.1875,-2.7500,0.0000,233.1875,
2025-03-09 15:05:13.083,9.6300,0.5200,0.0700,4.3125,1.3750,-0.7500,87.1875,-2.7500,0.0000,233.1875,
2025-03-09 15:05:13.084,9.6500,0.4600,0.0700,0.0000,0.0625,1.1875,87.1875,-2.7500,0.0000,233.1250,
