A1,,,,,,,,,,,
time,accx,accy,accz,gyrox,gyroy,gyroz,w1,w2,w3,w4,
2025-03-09 20:21:40.025,9.5700,0.2900,-0.5700,-0.1875,-1.0000,0.5625,86.6250,-178.3750,0.0000,221.3125,
2025-03-09 20:21:40.031,9.5700,0.2900,-0.5100,0.3125,0.2500,-0.0625,86.6250,-178.3750,0.0000,221.3125,
2025-03-09 20:21:40.057,9.5500,0.3600,-0.4900,0.4375,0.4375,-0.3125,86.6250,-178.3750,0.0000,221.3125,
2025-03-09 20:21:40.070,9.5600,0.3000,-0.4800,0.0625,0.0000,-0.1250,86.6250,-178.3750,0.0000,221.3125,
2025-03-09 20:21:40.083,9.5500,0.3300,-0.4900,-0.0625,-0.5000,-0.1250,86.6250,-178.3750,0.0000,221.3125,
2025-03-09 20:21:40.101,9.5400,0.3400,-0.5100,-0.1250,-0.5000,0.8125,86.6250,-178.3750,0.0000,221.3125,
2025-03-09 20:21:40.118,9.5600,0.2900,-0.5200,-0.1250,-0.5000,1.0625,86.6250,-178.3750,0.0000,221.3125,
2025-03-09 20:21:40.133,9.5800,0.2700,-0.4700,0.1250,-0.7500,0.1875,86.6250,-178.4375,0.0000,221.3125,
2025-03-09 20:21:40.151,9.5600,0.3200,-0.4900,0.3125,-1.6875,-0.5625,86.6250,-178.4375,0.0000,221.3125,
2025-03-09 20:21:40.171,9.5500,0.3500,-0.5400,0.0000,-1.7500,-0.7500,86.5625,-178.3750,0.0000,221.3125,
2025-03-09 20:21:40.177,9.5300,0.3800,-0.5100,-0.0625,-1.5625,-0.9375,86.5625,-178.3750,0.0000,221.3125,
2025-03-09 20:21:40.190,9.5600,0.3400,-0.5400,-0.1875,-1.5000,-0.3125,86.5000,-178.3750,0.0000,221.3125,
2025-03-09 20:21:40.212,9.5500,0.3200,-0.5500,0.0625,-0.0625,0.1250,86.5000,-178.3750,0.0000,221.3125,
2025-03-09 20:21:40.236,9.5400,0.3400,-0.5300,0.0625,0.5000,-0.1250,86.5000,-178.3750,0.0000,221.3125,
2025-03-09 20:21:40.296,9.5500,0.3700,-0.5100,-0.0625,0.5000,-0.5625,86.5000,-178.3750,0.0000,221.3125,
2025-03-09 20:21:40.296,9.5500,0.3400,-0.5500,0.0000,0.2500,0.0000,86.5000,-178.3750,0.0000,221.3125,
2025-03-09 20:21:40.296,9.5300,0.3400,-0.5100,-0.1875,0.5000,0.1875,86.5000,-178.3750,0.0000,221.3125,
2025-03-09 20:21:40.296,9.5500,0.3300,-0.4900,-0.0625,1.1875,0.2500,86.5625,-178.3750,0.0000,221.3125,
2025-03-09 20:21:40.323,9.5400,0.3200,-0.5300,-0.1250,1.4375,0.0625,86.5625,-178.3750,0.0000,221.3125,
2025-03-09 20:21:40.328,9.5400,0.3500,-0.4900,-0.0625,1.3750,0.1875,86.5625,-178.3750,0.0000,221.3125,
2025-03-09 20:21:40.339,9.5300,0.3500,-0.5400,-0.0625,1.5000,0.1875,86.5625,-178.3750,0.0000,221.3125,
2025-03-09 20:21:40.359,9.5500,0.2900,-0.5900,-0.2500,1.6250,1.0625,86.6250,-178.3750,0.0000,221.3125,
2025-03-09 20:21:40.379,9.5500,0.3200,-0.5100,-0.3125,2.8125,0.6250,86.6875,-178.4375,0.0000,221.3125,
2025-03-09 20:21:40.389,9.5400,0.3200,-0.4900,-0.3125,3.2500,0.6875,86.6875,-178.4375,0.0000,221.2500,
2025-03-09 20:21:40.412,9.5500,0.2500,-0.4400,-0.4375,2.7500,0.8125,86.7500,-178.4375,0.0000,221.2500,
2025-03-09 20:21:40.425,9.5500,0.3300,-0.4300,-0.2500,1.6875,0.1875,86.8125,-178.4375,0.0000,221.2500,
2025-03-09 20:21:40.450,9.5600,0.3000,-0.4700,-0.0625,0.9375,0.0000,86.8125,-178.4375,0.0000,221.2500,
2025-03-09 20:21:40.471,9.5500,0.3400,-0.4500,-1.1250,0.3125,0.4375,86.8125,-178.4375,0.0000,221.2500,
2025-03-09 20:21:40.471,9.5700,0.3000,-0.4500,-0.8125,-0.2500,0.5000,86.8125,-178.4375,0.0000,221.3125,
2025-03-09 20:21:40.503,9.5600,0.2800,-0.4900,-0.6250,-0.4375,0.3125,86.8125,-178.4375,0.0000,221.3125,
2025-03-09 20:21:40.513,9.5400,0.2800,-0.4700,-1.8750,-0.5625,-0.3750,86.8125,-178.4375,0.0000,221.3750,
2025-03-09 20:21:40.525,9.5500,0.3000,-0.5100,-2.6250,-0.5625,-0.8750,86.8125,-178.4375,0.0000,221.3750,
2025-03-09 20:21:40.533,9.5700,0.2900,-0.4500,-3.5625,-0.5000,-1.0625,86.8125,-178.4375,0.0000,221.4375,
2025-03-09 20:21:40.573,9.5800,0.2800,-0.5200,-2.8750,-0.4375,-1.3750,86.8125,-178.3750,0.0000,221.5000,
2025-03-09 20:21:40.584,9.5400,0.3300,-0.4300,-1.7500,0.0625,-2.3750,86.7500,-178.3750,0.0000,221.5625,
2025-03-09 20:21:40.584,9.5500,0.3400,-0.4600,-1.3125,-0.1875,-2.0000,86.7500,-178.3125,0.0000,221.5625,
2025-03-09 20:21:40.584,9.5500,0.3100,-0.4500,-1.1250,-1.0000,-1.8125,86.7500,-178.3125,0.0000,221.6250,
2025-03-09 20:21:40.594,9.5500,0.3100,-0.4900,-1.5625,-1.5000,-1.6875,86.7500,-178.3125,0.0000,221.6250,
2025-03-09 20:21:40.604,9.5700,0.2900,-0.4700,-2.0625,-1.7500,-2.0000,86.6875,-178.2500,0.0000,221.6875,
2025-03-09 20:21:40.625,9.5700,0.2700,-0.5200,-4.0625,-1.4375,-2.6875,86.6875,-178.2500,0.0000,221.7500,
2025-03-09 20:21:40.625,9.5700,0.3000,-0.4800,-6.4375,-1.2500,-3.6250,86.6250,-178.1875,0.0000,221.8750,
2025-03-09 20:21:40.634,9.5300,0.3700,-0.4600,-7.1250,-1.5625,-4.4375,86.6250,-178.1875,0.0000,222.0000,
2025-03-09 20:21:40.655,9.5300,0.3900,-0.4900,-7.7500,-1.8125,-4.3125,86.5625,-178.1250,0.0000,222.1250,
2025-03-09 20:21:40.655,9.5400,0.4000,-0.5300,-5.9375,-1.6875,-4.3125,86.5625,-178.0625,0.0000,222.1875,
2025-03-09 20:21:40.666,9.5500,0.3800,-0.5300,-4.2500,-1.2500,-3.9375,86.5000,-178.0625,0.0000,222.3125,
2025-03-09 20:21:40.695,9.5600,0.4200,-0.5500,-5.1250,-0.8750,-3.5625,86.5000,-178.0000,0.0000,222.3750,
2025-03-09 20:21:40.695,9.5300,0.4000,-0.5500,-7.8125,0.1250,-3.0625,86.4375,-177.9375,0.0000,222.5000,
2025-03-09 20:21:40.695,9.5500,0.4200,-0.5100,-9.3750,0.5000,-2.8750,86.4375,-177.9375,0.0000,222.6250,
2025-03-09 20:21:40.712,9.5400,0.4000,-0.4600,-7.7500,0.7500,-2.5625,86.4375,-177.8750,0.0000,222.6875,
2025-03-09 20:21:40.713,9.5700,0.3300,-0.5200,-6.5000,0.4375,-2.8125,86.4375,-177.8750,0.0000,222.8125,
2025-03-09 20:21:40.725,9.5300,0.4600,-0.4300,-5.9375,-0.1875,-2.6250,86.4375,-177.8750,0.0000,222.8750,
2025-03-09 20:21:40.744,9.5300,0.4600,-0.4200,-4.3750,-1.4375,-1.5000,86.3750,-177.8125,0.0000,222.9375,
2025-03-09 20:21:40.744,9.5500,0.4100,-0.5200,-3.9375,-1.9375,-0.9375,86.3750,-177.8125,0.0000,223.0000,
2025-03-09 20:21:40.790,9.5400,0.4300,-0.5500,-5.6875,-2.0625,-0.8125,86.3750,-177.8125,0.0000,223.0625,
2025-03-09 20:21:40.791,9.5700,0.3600,-0.5400,-5.6875,-1.6875,-0.8750,86.3125,-177.8125,0.0000,223.1250,
2025-03-09 20:21:40.791,9.5700,0.3400,-0.5700,-2.6875,-0.5625,-0.8750,86.3125,-177.8125,0.0000,223.1875,
2025-03-09 20:21:40.792,9.5600,0.4000,-0.5400,-1.0625,0.6875,-1.6250,86.3125,-177.7500,0.0000,223.1875,
2025-03-09 20:21:40.809,9.5200,0.4800,-0.4900,-1.3750,0.9375,-1.2500,86.3125,-177.7500,0.0000,223.2500,
2025-03-09 20:21:40.809,9.5400,0.4500,-0.4700,-2.1250,0.4375,-0.4375,86.3125,-177.7500,0.0000,223.2500,
2025-03-09 20:21:40.816,9.5400,0.4500,-0.4700,-2.7500,-0.4375,0.3125,86.3125,-177.7500,0.0000,223.2500,
2025-03-09 20:21:40.835,9.5300,0.4600,-0.4800,-3.7500,-0.9375,0.5625,86.3125,-177.7500,0.0000,223.3125,
2025-03-09 20:21:40.838,9.5700,0.3700,-0.5400,-3.0000,-1.0625,0.8125,86.3125,-177.7500,0.0000,223.3125,
2025-03-09 20:21:40.877,9.5700,0.3700,-0.5600,-0.8125,-0.6250,0.6250,86.3125,-177.7500,0.0000,223.3125,
2025-03-09 20:21:40.877,9.5500,0.4100,-0.5700,0.1875,-0.0625,0.0625,86.3125,-177.7500,0.0000,223.3125,
2025-03-09 20:21:40.877,9.5700,0.4500,-0.4500,0.2500,0.1875,0.2500,86.3125,-177.7500,0.0000,223.3125,
2025-03-09 20:21:40.877,9.5100,0.4600,-0.4200,-0.1250,0.0000,0.5625,86.3125,-177.7500,0.0000,223.3125,
2025-03-09 20:21:40.887,9.5100,0.4600,-0.5000,-0.6875,-1.0000,1.5625,86.3125,-177.7500,0.0000,223.3125,
2025-03-09 20:21:40.898,9.5300,0.4300,-0.5100,-1.7500,-1.5000,1.8750,86.3125,-177.8125,0.0000,223.3125,
2025-03-09 20:21:40.908,9.5500,0.4500,-0.5400,-3.2500,-1.5000,1.9375,86.3125,-177.8125,0.0000,223.3750,
2025-03-09 20:21:40.925,9.5900,0.3800,-0.5600,-3.5000,-1.3750,2.3750,86.3125,-177.8125,0.0000,223.3750,
2025-03-09 20:21:40.927,9.5600,0.3400,-0.5600,-2.5625,-0.7500,2.3125,86.3125,-177.8750,0.0000,223.3750,
2025-03-09 20:21:40.938,9.5700,0.3800,-0.5600,-1.9375,0.3750,1.6875,86.3125,-177.8750,0.0000,223.3750,
2025-03-09 20:21:40.948,9.5400,0.3900,-0.5400,-1.3750,1.1250,1.2500,86.3750,-177.8750,0.0000,223.3750,
2025-03-09 20:21:40.958,9.5400,0.4100,-0.4900,-1.3125,1.2500,1.6250,86.3750,-177.8750,0.0000,223.3750,
2025-03-09 20:21:40.968,9.5500,0.3700,-0.5200,-1.1875,1.1250,1.8125,86.3750,-177.9375,0.0000,223.3750,
2025-03-09 20:21:40.979,9.5300,0.4400,-0.4700,-0.7500,1.1875,1.4375,86.3750,-177.9375,0.0000,223.3750,
2025-03-09 20:21:40.989,9.5400,0.4100,-0.4900,-0.0625,0.6875,1.9375,86.4375,-177.9375,0.0000,223.3125,
2025-03-09 20:21:40.999,9.5400,0.4100,-0.5200,-0.0625,0.3125,2.0625,86.4375,-177.9375,0.0000,223.3125,
2025-03-09 20:21:41.019,9.5600,0.3400,-0.5400,-0.7500,0.6250,1.8750,86.4375,-178.0000,0.0000,223.3125,
2025-03-09 20:21:41.019,9.5500,0.3800,-0.4700,-1.0000,1.0000,1.3750,86.4375,-178.0000,0.0000,223.3125,
2025-03-09 20:21:41.029,9.5700,0.3800,-0.4800,-0.9375,1.2500,1.2500,86.5000,-178.0000,0.0000,223.3125,
2025-03-09 20:21:41.064,9.5600,0.3500,-0.5200,-0.5000,1.3125,1.0000,86.5000,-178.0000,0.0000,223.3125,
2025-03-09 20:21:41.064,9.5400,0.4000,-0.4800,0.0625,1.2500,0.9375,86.5000,-178.0000,0.0000,223.2500,
2025-03-09 20:21:41.064,9.5400,0.4300,-0.4500,0.3125,0.8125,1.3125,86.5000,-178.0625,0.0000,223.2500,
2025-03-09 20:21:41.064,9.5500,0.3600,-0.4700,0.3750,0.1875,1.5625,86.5000,-178.0625,0.0000,223.2500,
2025-03-09 20:21:41.080,9.5400,0.3700,-0.4900,0.0000,-0.2500,1.5000,86.5625,-178.0625,0.0000,223.2500,
2025-03-09 20:21:41.080,9.5500,0.3300,-0.4800,-0.3750,-0.5625,1.6250,86.5625,-178.0625,0.0000,223.2500,
2025-03-09 20:21:41.090,9.5600,0.3500,-0.5400,-0.8750,-0.6875,1.3125,86.5625,-178.1250,0.0000,223.1875,
2025-03-09 20:21:41.100,9.5700,0.3500,-0.4800,-1.0625,-0.8125,0.9375,86.5625,-178.1250,0.0000,223.1875,
2025-03-09 20:21:41.110,9.5500,0.3900,-0.4500,-1.3750,-1.3125,1.1250,86.5625,-178.1250,0.0000,223.2500,
2025-03-09 20:21:41.131,9.5500,0.3900,-0.4600,-1.6250,-1.9375,1.4375,86.5625,-178.1250,0.0000,223.2500,
2025-03-09 20:21:41.131,9.5500,0.3600,-0.4700,-1.5000,-2.8750,1.8125,86.5000,-178.1250,0.0000,223.2500,
2025-03-09 20:21:41.175,9.5300,0.3800,-0.4900,-1.5000,-3.6250,2.0000,86.5000,-178.1875,0.0000,223.2500,
2025-03-09 20:21:41.175,9.5600,0.3600,-0.5200,-1.3125,-4.3750,2.0625,86.5000,-178.1875,0.0000,223.1875,
2025-03-09 20:21:41.175,9.5700,0.3300,-0.5500,-1.4375,-4.8125,2.4375,86.4375,-178.1875,0.0000,223.1875,
2025-03-09 20:21:41.181,9.5500,0.3300,-0.5400,-1.7500,-4.5625,2.6250,86.4375,-178.2500,0.0000,223.1875,
2025-03-09 20:21:41.181,9.5500,0.2800,-0.6600,-1.6250,-3.8750,2.2500,86.3750,-178.2500,0.0000,223.1875,
2025-03-09 20:21:41.191,9.5600,0.2400,-0.6700,-1.5625,-2.3750,1.2500,86.3750,-178.2500,0.0000,223.1875,
2025-03-09 20:21:41.201,9.5500,0.2800,-0.6700,-0.7500,-0.8750,0.4375,86.3750,-178.2500,0.0000,223.1875,
2025-03-09 20:21:41.226,9.5700,0.3000,-0.6400,0.2500,0.3125,-0.3125,86.3750,-178.2500,0.0000,223.1875,
2025-03-09 20:21:41.226,9.5600,0.3500,-0.5200,0.3125,1.4375,-0.9375,86.3750,-178.2500,0.0000,223.2500,
2025-03-09 20:21:41.231,9.5400,0.3500,-0.4700,0.5625,1.1250,-0.9375,86.3750,-178.2500,0.0000,223.2500,
2025-03-09 20:21:41.253,9.5300,0.3400,-0.5200,0.4375,0.4375,-0.8125,86.3750,-178.2500,0.0000,223.2500,
2025-03-09 20:21:41.253,9.5400,0.3300,-0.5500,0.3125,-0.0625,-0.6250,86.3750,-178.2500,0.0000,223.2500,
2025-03-09 20:21:41.262,9.5500,0.3700,-0.5400,0.0625,-0.5000,-0.6250,86.3750,-178.2500,0.0000,223.2500,
2025-03-09 20:21:41.282,9.5500,0.3900,-0.5200,-0.0625,-0.8750,-0.0625,86.3750,-178.2500,0.0000,223.2500,
2025-03-09 20:21:41.282,9.5400,0.3800,-0.5300,-0.1875,-1.3125,0.4375,86.3750,-178.2500,0.0000,223.2500,
2025-03-09 20:21:41.293,9.5600,0.3200,-0.5500,-0.1875,-1.7500,0.8750,86.3750,-178.2500,0.0000,223.2500,
2025-03-09 20:21:41.315,9.5400,0.3600,-0.4900,-0.1250,-2.0000,0.9375,86.3125,-178.2500,0.0000,223.2500,
2025-03-09 20:21:41.315,9.5500,0.3500,-0.5200,0.0625,-2.7500,1.2500,86.3125,-178.2500,0.0000,223.2500,
2025-03-09 20:21:41.326,9.5600,0.2800,-0.5600,-0.1875,-3.4375,1.3750,86.3125,-178.2500,0.0000,223.2500,
2025-03-09 20:21:41.345,9.5300,0.2800,-0.6000,0.1250,-3.7500,1.0625,86.3125,-178.2500,0.0000,223.1875,
2025-03-09 20:21:41.345,9.5600,0.3200,-0.6500,0.2500,-3.6875,0.6250,86.2500,-178.3125,0.0000,223.1875,
2025-03-09 20:21:41.355,9.5500,0.3300,-0.6300,0.3750,-3.3125,0.1875,86.1875,-178.3125,0.0000,223.1875,
2025-03-09 20:21:41.366,9.5500,0.3300,-0.6700,0.2500,-2.5625,0.1875,86.1875,-178.3125,0.0000,223.1875,
2025-03-09 20:21:41.378,9.5500,0.2900,-0.6700,0.6875,-1.7500,0.1875,86.1875,-178.3125,0.0000,223.1875,
2025-03-09 20:21:41.387,9.5600,0.2500,-0.6600,0.5000,-1.1250,-0.1875,86.1875,-178.3125,0.0000,223.1875,
2025-03-09 20:21:41.407,9.5800,0.2800,-0.6200,0.9375,-0.1250,-0.8125,86.1250,-178.2500,0.0000,223.1875,
2025-03-09 20:21:41.407,9.5300,0.3500,-0.6100,1.1875,-0.3125,-1.2500,86.1250,-178.2500,0.0000,223.1875,
2025-03-09 20:21:41.417,9.5400,0.3500,-0.5900,0.7500,-0.3750,-1.2500,86.1250,-178.2500,0.0000,223.1875,
2025-03-09 20:21:41.432,9.5300,0.4100,-0.5600,0.6250,-0.6875,-1.0000,86.1250,-178.2500,0.0000,223.1875,
2025-03-09 20:21:41.439,9.5200,0.3800,-0.6200,0.4375,-1.1250,0.0625,86.1250,-178.2500,0.0000,223.1875,
2025-03-09 20:21:41.478,9.5500,0.3500,-0.6300,0.1250,-1.2500,0.5625,86.1250,-178.2500,0.0000,223.1875,
2025-03-09 20:21:41.478,9.5600,0.3000,-0.6400,0.1250,-1.0625,0.9375,86.1250,-178.2500,0.0000,223.1875,
2025-03-09 20:21:41.478,9.5600,0.3100,-0.5900,0.2500,-1.0000,0.7500,86.1250,-178.2500,0.0000,223.1875,
2025-03-09 20:21:41.478,9.5500,0.3000,-0.5600,0.3125,-1.1875,0.3750,86.0625,-178.2500,0.0000,223.1875,
2025-03-09 20:21:41.488,9.5600,0.3000,-0.6300,0.3125,-1.5000,0.1250,86.0625,-178.2500,0.0000,223.1875,
2025-03-09 20:21:41.500,9.5300,0.3100,-0.6600,0.5000,-1.6250,-0.0625,86.0625,-178.2500,0.0000,223.1875,
2025-03-09 20:21:41.509,9.5600,0.3300,-0.6800,0.7500,-1.3125,-0.4375,86.0625,-178.2500,0.0000,223.1875,
2025-03-09 20:21:41.527,9.5600,0.3300,-0.6700,0.3750,-1.0625,-0.6875,86.0625,-178.2500,0.0000,223.1875,
2025-03-09 20:21:41.529,9.5600,0.3500,-0.6700,-0.0625,-0.3125,-0.5000,86.0625,-178.2500,0.0000,223.1875,
2025-03-09 20:21:41.539,9.5500,0.3500,-0.6400,-0.1250,0.3750,-0.2500,86.0625,-178.2500,0.0000,223.1875,
2025-03-09 20:21:41.549,9.5600,0.3100,-0.6700,-0.1250,1.0625,-0.1250,86.0625,-178.2500,0.0000,223.1875,
2025-03-09 20:21:41.549,9.5700,0.2600,-0.7100,0.3125,1.5000,-0.1875,86.0625,-178.2500,0.0000,223.1875,
2025-03-09 20:21:41.569,9.5600,0.2900,-0.6600,0.5625,2.2500,-1.0000,86.0625,-178.2500,0.0000,223.1875,
2025-03-09 20:21:41.579,9.5600,0.2900,-0.6600,1.3750,2.7500,-1.2500,86.0625,-178.2500,0.0000,223.1875,
2025-03-09 20:21:41.579,9.5500,0.3400,-0.6400,1.6250,3.0000,-1.3125,86.1250,-178.2500,0.0000,223.1875,
2025-03-09 20:21:41.599,9.5200,0.4400,-0.6200,1.0000,3.2500,-0.7500,86.1250,-178.1875,0.0000,223.1875,
2025-03-09 20:21:41.609,9.5500,0.4200,-0.6200,0.5000,3.1875,0.0000,86.1875,-178.1875,0.0000,223.1875,
2025-03-09 20:21:41.619,9.5300,0.3700,-0.5700,-0.3125,3.1250,1.0000,86.1875,-178.2500,0.0000,223.1875,
2025-03-09 20:21:41.627,9.5300,0.3700,-0.5700,-0.5625,2.6250,1.9375,86.1875,-178.2500,0.0000,223.1875,
2025-03-09 20:21:41.640,9.5400,0.3200,-0.6200,-0.7500,2.6250,1.5000,86.2500,-178.2500,0.0000,223.1250,
2025-03-09 20:21:41.640,9.5900,0.2900,-0.6100,-0.3125,3.0000,0.8750,86.3125,-178.2500,0.0000,223.1250,
2025-03-09 20:21:41.650,9.5500,0.3300,-0.5600,0.1250,3.4375,-0.1875,86.3125,-178.2500,0.0000,223.1250,
2025-03-09 20:21:41.670,9.5600,0.3200,-0.5800,0.4375,3.5625,-0.4375,86.3750,-178.2500,0.0000,223.1250,
2025-03-09 20:21:41.670,9.5600,0.3200,-0.5800,0.3750,3.6875,-0.6250,86.3750,-178.2500,0.0000,223.1250,
2025-03-09 20:21:41.680,9.5600,0.3400,-0.5500,0.6875,3.5625,-0.6250,86.3750,-178.2500,0.0000,223.1250,
2025-03-09 20:21:41.719,9.5700,0.3400,-0.5800,0.2500,3.8125,-0.5625,86.4375,-178.2500,0.0000,223.1250,
2025-03-09 20:21:41.719,9.5600,0.3700,-0.4900,0.1875,3.8750,-0.3750,86.5000,-178.2500,0.0000,223.1250,
2025-03-09 20:21:41.719,9.5400,0.3800,-0.4500,0.1250,3.3125,0.0000,86.5000,-178.2500,0.0000,223.1250,
2025-03-09 20:21:41.729,9.5400,0.3800,-0.4500,-0.1250,2.8750,0.4375,86.5000,-178.2500,0.0000,223.1250,
2025-03-09 20:21:41.729,9.5400,0.3300,-0.5500,0.0625,2.2500,0.6250,86.5000,-178.2500,0.0000,223.1250,
2025-03-09 20:21:41.781,9.5700,0.3300,-0.4700,-0.1250,1.6875,0.8125,86.5625,-178.2500,0.0000,223.1250,
2025-03-09 20:21:41.781,9.5500,0.3300,-0.4900,-0.2500,1.1875,1.1875,86.5625,-178.2500,0.0000,223.1250,
2025-03-09 20:21:41.781,9.5400,0.3300,-0.4600,-0.2500,0.4375,0.8750,86.5625,-178.3125,0.0000,223.1250,
2025-03-09 20:21:41.791,9.5600,0.3200,-0.4900,-0.3125,-0.1250,1.1875,86.5625,-178.3125,0.0000,223.0625,
2025-03-09 20:21:41.791,9.5500,0.2900,-0.5200,-0.2500,-0.5000,1.1250,86.6250,-178.3125,0.0000,223.0625,
2025-03-09 20:21:41.791,9.5600,0.3400,-0.5400,-0.1250,-0.5625,0.6875,86.6250,-178.3125,0.0000,223.0625,
2025-03-09 20:21:41.810,9.5700,0.3400,-0.5300,0.0000,-0.4375,0.6250,86.6250,-178.3125,0.0000,223.0625,
2025-03-09 20:21:41.827,9.5700,0.3300,-0.5300,-0.3125,-0.3125,0.8125,86.6250,-178.3125,0.0000,223.0625,
2025-03-09 20:21:41.829,9.5700,0.2700,-0.5200,-0.3125,-0.1250,1.0000,86.6250,-178.3125,0.0000,223.0625,
2025-03-09 20:21:41.831,9.5600,0.3000,-0.5100,-0.0625,-0.1875,0.8750,86.6250,-178.3750,0.0000,223.0625,
2025-03-09 20:21:41.851,9.5400,0.3100,-0.5200,0.1250,-0.3125,0.6250,86.6250,-178.3750,0.0000,223.0000,
2025-03-09 20:21:41.861,9.5300,0.2600,-0.5400,-0.1250,-0.4375,0.6250,86.6250,-178.3750,0.0000,223.0000,
2025-03-09 20:21:41.861,9.5400,0.3200,-0.5100,-0.2500,-0.6250,-0.0625,86.6250,-178.3750,0.0000,223.0000,
2025-03-09 20:21:41.881,9.5400,0.3300,-0.4800,-0.3125,-0.5000,-0.2500,86.6250,-178.3750,0.0000,223.0000,
2025-03-09 20:21:41.881,9.5700,0.3100,-0.5500,-0.3750,-0.8750,-0.1875,86.6250,-178.3750,0.0000,223.0000,
2025-03-09 20:21:41.901,9.5600,0.3000,-0.5600,-0.4375,-0.8750,-0.2500,86.6250,-178.3750,0.0000,223.0000,
2025-03-09 20:21:41.925,9.5500,0.2900,-0.5600,-0.5625,-0.5000,-0.4375,86.6250,-178.3750,0.0000,223.0000,
2025-03-09 20:21:41.928,9.5600,0.3100,-0.6000,-0.3125,0.7500,-0.6250,86.6250,-178.3750,0.0000,223.0000,
2025-03-09 20:21:41.942,9.5300,0.3200,-0.5500,-0.1875,1.4375,-0.5625,86.6250,-178.3750,0.0000,223.0000,
2025-03-09 20:21:41.943,9.5600,0.3200,-0.5300,0.0000,2.0000,-0.7500,86.6250,-178.3750,0.0000,223.0000,
2025-03-09 20:21:41.955,9.5600,0.3100,-0.5200,0.1875,1.9375,-0.5625,86.6250,-178.3750,0.0000,223.0000,
2025-03-09 20:21:41.974,9.5500,0.3700,-0.4900,0.1250,1.8125,-0.5000,86.6250,-178.3750,0.0000,223.0000,
2025-03-09 20:21:41.984,9.5500,0.3300,-0.4500,0.1875,1.7500,-0.7500,86.6875,-178.3750,0.0000,223.0625,
2025-03-09 20:21:42.003,9.5700,0.3700,-0.4900,0.1875,0.8750,-0.3125,86.6875,-178.3750,0.0000,223.0625,
2025-03-09 20:21:42.016,9.5500,0.3200,-0.5200,0.3750,-0.1875,0.9375,86.6875,-178.3750,0.0000,223.0625,
2025-03-09 20:21:42.035,9.5600,0.3300,-0.4800,0.0625,0.0000,0.4375,86.6875,-178.3750,0.0000,223.0000,
2025-03-09 20:21:42.076,9.5600,0.3100,-0.4500,-0.1875,-1.0625,0.2500,86.6875,-178.3750,0.0000,223.0000,
2025-03-09 20:21:42.076,9.5600,0.2900,-0.5000,-0.2500,-1.6875,0.0625,86.6875,-178.3750,0.0000,223.0000,
2025-03-09 20:21:42.086,9.5500,0.3000,-0.5100,-0.1875,-2.2500,-0.4375,86.6875,-178.3750,0.0000,223.0000,
2025-03-09 20:21:42.096,9.5800,0.3000,-0.6200,0.1875,-2.5625,-0.5625,86.6250,-178.3750,0.0000,223.0000,
2025-03-09 20:21:42.128,9.5500,0.3100,-0.5800,0.3125,-1.5625,-0.3750,86.5625,-178.3750,0.0000,223.0000,
2025-03-09 20:21:42.138,9.5500,0.3300,-0.5200,0.1250,-0.1875,-0.3125,86.5625,-178.3750,0.0000,223.0000,
2025-03-09 20:21:42.161,9.5300,0.3600,-0.5000,-0.1250,0.0625,-0.3125,86.5625,-178.3750,0.0000,223.0000,
2025-03-09 20:21:42.178,9.5600,0.3100,-0.5200,-0.0625,-0.5625,0.1250,86.5625,-178.3750,0.0000,223.0000,
2025-03-09 20:21:42.190,9.5500,0.3300,-0.6000,0.0625,-0.2500,-0.0625,86.5625,-178.3750,0.0000,223.0000,
2025-03-09 20:21:42.222,9.5600,0.3300,-0.5800,0.1250,0.6875,-0.1250,86.5625,-178.3750,0.0000,223.0000,
2025-03-09 20:21:42.228,9.5300,0.3100,-0.5800,0.0000,0.8750,0.1250,86.5625,-178.3750,0.0000,223.0000,
2025-03-09 20:21:42.241,9.5400,0.3300,-0.5200,0.1250,1.5000,0.3125,86.5625,-178.3750,0.0000,223.0000,
2025-03-09 20:21:42.251,9.5300,0.2900,-0.5400,0.0625,1.8125,0.3125,86.6250,-178.3750,0.0000,223.0000,
2025-03-09 20:21:42.272,9.5800,0.3100,-0.5300,0.5000,1.7500,-0.3125,86.6250,-178.3750,0.0000,223.0000,
2025-03-09 20:21:42.282,9.5700,0.3200,-0.4900,0.3750,1.6250,-0.4375,86.6875,-178.3750,0.0000,223.0000,
2025-03-09 20:21:42.303,9.5600,0.3300,-0.5200,-0.0625,1.0000,-0.3125,86.6875,-178.3750,0.0000,223.0000,
2025-03-09 20:21:42.313,9.5400,0.3600,-0.5000,-0.2500,0.4375,0.1875,86.6875,-178.3750,0.0000,223.0000,
2025-03-09 20:21:42.336,9.5700,0.3000,-0.5300,0.0000,0.8125,0.5625,86.6875,-178.3750,0.0000,223.0000,
2025-03-09 20:21:42.384,9.5600,0.3100,-0.5400,0.1875,0.7500,-0.2500,86.6875,-178.3750,0.0000,223.0000,
2025-03-09 20:21:42.385,9.5500,0.3700,-0.4700,0.1875,0.5000,-0.4375,86.6875,-178.3750,0.0000,223.0000,
2025-03-09 20:21:42.394,9.5500,0.3700,-0.5200,0.0625,0.1875,0.0000,86.6875,-178.3750,0.0000,223.0000,
2025-03-09 20:21:42.420,9.5800,0.2700,-0.5800,-0.0625,0.4375,-0.6250,86.6875,-178.3750,0.0000,223.0000,
2025-03-09 20:21:42.426,9.5400,0.3300,-0.4500,0.1250,0.9375,-1.4375,86.6875,-178.3125,0.0000,223.0625,
2025-03-09 20:21:42.436,9.5400,0.3500,-0.4500,0.0000,0.9375,-1.5625,86.6875,-178.3125,0.0000,223.0625,
2025-03-09 20:21:42.450,9.5500,0.3800,-0.4400,-0.1250,0.1250,-1.1250,86.6875,-178.3125,0.0000,223.0625,
2025-03-09 20:21:42.468,9.5500,0.3400,-0.5300,-0.0625,-1.8750,0.3750,86.6875,-178.3125,0.0000,223.0625,
2025-03-09 20:21:42.487,9.5500,0.4000,-0.5200,-0.1875,-1.6875,0.3125,86.6250,-178.3125,0.0000,223.0625,
2025-03-09 20:21:42.497,9.5300,0.3300,-0.5500,-0.3125,-1.6875,0.8750,86.6250,-178.3125,0.0000,223.0625,
2025-03-09 20:21:42.517,9.5400,0.3100,-0.5700,-0.1875,-0.9375,0.9375,86.6250,-178.3125,0.0000,223.0625,
2025-03-09 20:21:42.537,9.5500,0.3200,-0.5600,-0.1250,0.5000,-0.0625,86.6250,-178.3125,0.0000,223.0625,
2025-03-09 20:21:42.558,9.5400,0.3500,-0.5500,0.1250,1.9375,-0.5000,86.6875,-178.3125,0.0000,223.0625,
2025-03-09 20:21:42.578,9.5600,0.2800,-0.5000,0.0625,1.9375,0.0625,86.6875,-178.3125,0.0000,223.0625,
2025-03-09 20:21:42.588,9.5500,0.2700,-0.4900,0.2500,1.9375,-0.5000,86.6875,-178.3125,0.0000,223.0625,
2025-03-09 20:21:42.600,9.5700,0.3300,-0.5100,0.5000,1.6875,-1.6875,86.6875,-178.3125,0.0000,223.0625,
2025-03-09 20:21:42.620,9.5500,0.4100,-0.4500,0.5000,1.7500,-2.3125,86.7500,-178.2500,0.0000,223.1250,
2025-03-09 20:21:42.630,9.5700,0.3300,-0.5000,0.4375,1.5625,-1.1250,86.7500,-178.2500,0.0000,223.1250,
2025-03-09 20:21:42.672,9.5800,0.3300,-0.4700,0.5000,1.4375,-0.8750,86.7500,-178.2500,0.0000,223.1250,
2025-03-09 20:21:42.672,9.5100,0.4400,-0.4000,0.3750,1.1875,-1.0000,86.7500,-178.1875,0.0000,223.1875,
2025-03-09 20:21:42.694,9.5600,0.3700,-0.4800,-0.1250,-0.5000,0.8125,86.7500,-178.1875,0.0000,223.1250,
2025-03-09 20:21:42.717,9.5600,0.3200,-0.5100,-0.0625,-0.8125,1.0625,86.7500,-178.2500,0.0000,223.1250,
2025-03-09 20:21:42.720,9.5400,0.3600,-0.4400,-0.0625,-0.9375,-0.0625,86.7500,-178.2500,0.0000,223.1250,
2025-03-09 20:21:42.740,9.5600,0.3400,-0.4800,0.0625,-1.1875,-0.3750,86.7500,-178.2500,0.0000,223.1250,
2025-03-09 20:21:42.751,9.5700,0.3400,-0.4600,0.1250,-1.6875,-0.4375,86.7500,-178.2500,0.0000,223.1250,
2025-03-09 20:21:42.770,9.5700,0.3300,-0.5200,0.1250,-2.2500,-0.0625,86.6875,-178.2500,0.0000,223.1250,
2025-03-09 20:21:42.782,9.5600,0.3400,-0.5100,-0.0625,-1.5000,-0.8125,86.6250,-178.2500,0.0000,223.1250,
2025-03-09 20:21:42.792,9.5800,0.3000,-0.5600,0.0625,-1.3750,-0.8125,86.6250,-178.2500,0.0000,223.1250,
2025-03-09 20:21:42.813,9.5500,0.3800,-0.5000,-0.1875,-1.1875,-0.9375,86.6250,-178.1875,0.0000,223.1875,
2025-03-09 20:21:42.813,9.5200,0.4300,-0.4900,0.0625,-0.6250,-1.1250,86.6250,-178.1875,0.0000,223.1875,
2025-03-09 20:21:42.843,9.5400,0.4200,-0.4500,-0.3750,-1.0625,-0.6875,86.5625,-178.1875,0.0000,223.1875,
2025-03-09 20:21:42.843,9.5500,0.3900,-0.5300,-0.3125,-1.0000,-0.5625,86.5625,-178.1875,0.0000,223.1875,
2025-03-09 20:21:42.854,9.5600,0.3300,-0.5600,-0.0625,-1.2500,-0.0625,86.5625,-178.1875,0.0000,223.1875,
2025-03-09 20:21:42.868,9.5400,0.3900,-0.5000,-0.0625,-1.2500,0.1250,86.5625,-178.1875,0.0000,223.1875,
2025-03-09 20:21:42.884,9.5400,0.3300,-0.5100,0.5625,-1.6250,0.5000,86.5625,-178.1875,0.0000,223.1875,
2025-03-09 20:21:42.906,9.5500,0.3300,-0.5600,0.3750,-1.8125,0.1875,86.5000,-178.1875,0.0000,223.1875,
2025-03-09 20:21:42.906,9.5600,0.3300,-0.5500,0.0625,-1.6875,0.0625,86.5000,-178.1875,0.0000,223.1875,
2025-03-09 20:21:42.916,9.5900,0.3100,-0.6000,-0.1250,-1.6875,0.0000,86.5000,-178.1875,0.0000,223.1875,
2025-03-09 20:21:42.930,9.5500,0.3100,-0.6100,-0.2500,-1.2500,-0.3125,86.5000,-178.1875,0.0000,223.1875,
2025-03-09 20:21:42.936,9.5500,0.3500,-0.5600,-0.0625,-0.3750,-1.1875,86.5000,-178.1875,0.0000,223.1875,
2025-03-09 20:21:42.986,9.5700,0.3700,-0.5400,-0.0625,0.2500,-1.2500,86.4375,-178.1875,0.0000,223.1875,
2025-03-09 20:21:42.986,9.5400,0.4000,-0.5400,0.0000,0.5625,-1.2500,86.4375,-178.1250,0.0000,223.2500,
2025-03-09 20:21:42.986,9.5500,0.4000,-0.5100,0.0625,0.7500,-1.0625,86.4375,-178.1250,0.0000,223.2500,
2025-03-09 20:21:42.986,9.5400,0.4000,-0.5300,0.1875,0.5625,-0.5625,86.4375,-178.1250,0.0000,223.2500,
2025-03-09 20:21:42.997,9.5400,0.3800,-0.5500,0.0625,0.4375,-0.1250,86.4375,-178.1250,0.0000,223.2500,
2025-03-09 20:21:42.997,9.5600,0.3500,-0.5700,0.0625,0.1250,0.5625,86.4375,-178.1250,0.0000,223.2500,
2025-03-09 20:21:43.040,9.5500,0.3400,-0.5800,0.1250,0.5000,0.5625,86.4375,-178.1250,0.0000,223.2500,
2025-03-09 20:21:43.040,9.5600,0.3300,-0.5700,-0.2500,0.6875,0.4375,86.4375,-178.1250,0.0000,223.2500,
2025-03-09 20:21:43.040,9.5600,0.3400,-0.5600,-0.1250,0.9375,0.4375,86.5000,-178.1250,0.0000,223.2500,
2025-03-09 20:21:43.040,9.5700,0.3300,-0.5400,0.1875,1.3750,0.5000,86.5000,-178.1250,0.0000,223.2500,
2025-03-09 20:21:43.049,9.5600,0.3500,-0.5200,0.1875,1.6875,0.2500,86.5000,-178.1250,0.0000,223.2500,
2025-03-09 20:21:43.061,9.5400,0.3900,-0.5400,-0.0625,1.8750,-0.1250,86.5000,-178.1250,0.0000,223.2500,
2025-03-09 20:21:43.069,9.5600,0.3600,-0.5300,-0.2500,2.0625,0.0000,86.5625,-178.1250,0.0000,223.2500,
2025-03-09 20:21:43.079,9.5600,0.3300,-0.5500,-0.2500,2.0625,0.2500,86.5625,-178.1250,0.0000,223.2500,
2025-03-09 20:21:43.079,9.5500,0.3600,-0.5400,0.1250,3.0625,0.3750,86.5625,-178.1250,0.0000,223.2500,
2025-03-09 20:21:43.090,9.5500,0.3600,-0.5000,0.1250,3.0625,0.3750,86.6250,-178.1250,0.0000,223.2500,
2025-03-09 20:21:43.111,9.5300,0.3200,-0.5300,0.0000,3.3750,0.4375,86.6250,-178.1250,0.0000,223.2500,
2025-03-09 20:21:43.111,9.5700,0.3400,-0.4900,0.1250,3.4375,0.3750,86.6250,-178.1250,0.0000,223.2500,
2025-03-09 20:21:43.121,9.5500,0.3800,-0.4500,0.1250,3.2500,-0.0625,86.6875,-178.1250,0.0000,223.2500,
2025-03-09 20:21:43.140,9.5500,0.3400,-0.4600,0.3125,2.8125,-0.1250,86.6875,-178.1250,0.0000,223.2500,
2025-03-09 20:21:43.140,9.5600,0.3300,-0.4400,0.3125,2.8125,-0.1250,86.7500,-178.1250,0.0000,223.2500,
2025-03-09 20:21:43.151,9.5500,0.3600,-0.4400,0.1875,2.1875,-0.3125,86.7500,-178.1250,0.0000,223.2500,
2025-03-09 20:21:43.171,9.5700,0.3800,-0.4200,-0.0625,0.8750,-0.2500,86.7500,-178.1250,0.0000,223.2500,
2025-03-09 20:21:43.173,9.5400,0.3800,-0.4300,-0.1250,0.0000,-0.1875,86.7500,-178.1250,0.0000,223.2500,
2025-03-09 20:21:43.189,9.5800,0.3800,-0.4800,-0.0625,-0.6875,0.2500,86.7500,-178.1250,0.0000,223.2500,
2025-03-09 20:21:43.195,9.5500,0.3600,-0.4600,0.0625,-1.2500,0.3125,86.7500,-178.1250,0.0000,223.2500,
2025-03-09 20:21:43.203,9.5500,0.3400,-0.4500,0.1250,-1.5625,0.1875,86.7500,-178.1250,0.0000,223.2500,
2025-03-09 20:21:43.217,9.5400,0.3200,-0.4400,-0.1250,-2.0000,0.0000,86.6875,-178.1250,0.0000,223.2500,
2025-03-09 20:21:43.230,9.5500,0.4000,-0.4400,-0.3125,-2.3125,0.1875,86.6875,-178.1250,0.0000,223.2500,
2025-03-09 20:21:43.233,9.5400,0.4000,-0.4500,-0.3125,-3.1250,0.9375,86.6875,-178.1250,0.0000,223.2500,
2025-03-09 20:21:43.273,9.5700,0.3700,-0.4900,-0.3750,-3.3125,1.3125,86.6250,-178.1875,0.0000,223.1875,
2025-03-09 20:21:43.273,9.5500,0.3500,-0.5200,-0.2500,-3.2500,1.3125,86.6250,-178.1875,0.0000,223.1875,
2025-03-09 20:21:43.273,9.5600,0.3200,-0.5400,-0.2500,-2.9375,1.2500,86.6250,-178.1875,0.0000,223.1875,
2025-03-09 20:21:43.273,9.5600,0.3000,-0.5700,-0.0625,-2.5625,0.7500,86.5625,-178.1875,0.0000,223.1875,
2025-03-09 20:21:43.283,9.5400,0.3100,-0.5600,-0.1250,-1.6875,-0.1250,86.5625,-178.1875,0.0000,223.1875,
2025-03-09 20:21:43.293,9.5500,0.3500,-0.5800,-0.0625,-1.1875,-0.1250,86.5625,-178.1875,0.0000,223.1875,
2025-03-09 20:21:43.307,9.5600,0.3500,-0.6100,-0.1875,-0.3750,-0.0625,86.5625,-178.1875,0.0000,223.1875,
2025-03-09 20:21:43.314,9.5600,0.3600,-0.5800,-0.0625,0.5000,0.0625,86.5625,-178.1875,0.0000,223.1875,
2025-03-09 20:21:43.324,9.5600,0.3500,-0.5700,-0.1250,1.5625,0.3125,86.5625,-178.1875,0.0000,223.1875,
2025-03-09 20:21:43.334,9.5600,0.3500,-0.5300,0.0625,2.0625,0.3750,86.6250,-178.1875,0.0000,223.1875,
2025-03-09 20:21:43.344,9.5800,0.3300,-0.5500,0.0625,2.7500,0.4375,86.6250,-178.1875,0.0000,223.1875,
2025-03-09 20:21:43.354,9.5200,0.3600,-0.5100,-0.0625,3.0000,0.3125,86.6250,-178.1875,0.0000,223.1875,
2025-03-09 20:21:43.364,9.5700,0.3200,-0.5100,0.0000,3.0000,0.1875,86.6875,-178.1875,0.0000,223.1875,
2025-03-09 20:21:43.378,9.5500,0.3200,-0.4900,0.1250,2.8125,-0.1250,86.6875,-178.1875,0.0000,223.1875,
2025-03-09 20:21:43.386,9.5400,0.3600,-0.4600,0.2500,2.7500,-0.1875,86.6875,-178.1875,0.0000,223.1875,
2025-03-09 20:21:43.446,9.5500,0.3700,-0.4500,0.2500,2.4375,0.0000,86.7500,-178.1875,0.0000,223.1875,
2025-03-09 20:21:43.446,9.5700,0.3700,-0.5000,0.0000,2.6250,0.2500,86.7500,-178.1875,0.0000,223.1875,
2025-03-09 20:21:43.446,9.5300,0.3300,-0.4400,0.3750,2.6250,0.1875,86.7500,-178.1875,0.0000,223.1875,
2025-03-09 20:21:43.446,9.5700,0.3600,-0.4200,0.1875,1.8750,0.6250,86.8125,-178.1875,0.0000,223.1875,
2025-03-09 20:21:43.446,9.5400,0.3200,-0.4300,0.0000,1.5000,0.5000,86.8125,-178.1875,0.0000,223.1875,
2025-03-09 20:21:43.456,9.5600,0.3300,-0.4000,-0.0625,0.7500,0.1250,86.8125,-178.1875,0.0000,223.1875,
2025-03-09 20:21:43.457,9.5600,0.3000,-0.4400,-0.1250,-0.0625,0.0625,86.8125,-178.1875,0.0000,223.1875,
2025-03-09 20:21:43.467,9.5500,0.3200,-0.4700,0.1875,-1.0000,-0.4375,86.8125,-178.1875,0.0000,223.1875,
2025-03-09 20:21:43.477,9.5500,0.3900,-0.4400,0.3750,-1.0625,-0.5000,86.8125,-178.1875,0.0000,223.1875,
2025-03-09 20:21:43.488,9.5500,0.3700,-0.4400,0.1875,-1.6250,-0.1875,86.8125,-178.1875,0.0000,223.1875,
2025-03-09 20:21:43.506,9.5700,0.3700,-0.4600,0.0625,-2.0000,0.1875,86.7500,-178.1875,0.0000,223.1875,
2025-03-09 20:21:43.511,9.5400,0.3400,-0.5100,0.2500,-2.2500,0.6875,86.7500,-178.1875,0.0000,223.1875,
2025-03-09 20:21:43.518,9.5200,0.3000,-0.4700,0.0000,-2.5000,0.5625,86.7500,-178.1875,0.0000,223.1875,
2025-03-09 20:21:43.531,9.5700,0.2800,-0.4700,0.0000,-2.8750,0.0000,86.6875,-178.1875,0.0000,223.1875,
2025-03-09 20:21:43.538,9.5400,0.2900,-0.4800,0.0000,-3.1875,-0.5000,86.6875,-178.1875,0.0000,223.1875,
2025-03-09 20:21:43.580,9.5500,0.3800,-0.5300,0.0000,-3.0000,-1.1250,86.6250,-178.1875,0.0000,223.1875,
2025-03-09 20:21:43.580,9.5500,0.3800,-0.5500,0.1875,-2.9375,-0.7500,86.6250,-178.1875,0.0000,223.1875,
2025-03-09 20:21:43.580,9.5500,0.3600,-0.6100,-0.2500,-2.2500,-0.5000,86.6250,-178.1875,0.0000,223.1875,
2025-03-09 20:21:43.580,9.5500,0.3600,-0.5300,0.1875,-1.5000,-0.1875,86.6250,-178.1875,0.0000,223.1875,
2025-03-09 20:21:43.590,9.5500,0.2900,-0.5400,0.0625,-0.6250,-0.3125,86.5625,-178.1875,0.0000,223.1875,
2025-03-09 20:21:43.651,9.5400,0.3100,-0.5300,0.1875,-0.2500,-1.0000,86.5625,-178.1875,0.0000,223.1875,
2025-03-09 20:21:43.651,9.5300,0.3300,-0.4900,0.1250,-0.4375,-1.6250,86.5625,-178.1875,0.0000,223.1875,
2025-03-09 20:21:43.651,9.5500,0.3700,-0.4600,0.0625,-1.0000,-1.8750,86.5625,-178.1250,0.0000,223.2500,
2025-03-09 20:21:43.651,9.5400,0.3800,-0.5100,0.0625,-1.6250,-1.7500,86.5625,-178.1250,0.0000,223.2500,
2025-03-09 20:21:43.651,9.5500,0.4000,-0.5300,-0.3125,-1.7500,-1.5000,86.5000,-178.1250,0.0000,223.2500,
2025-03-09 20:21:43.651,9.5500,0.4100,-0.6100,-0.1875,-1.3750,-1.1875,86.5000,-178.1250,0.0000,223.2500,
2025-03-09 20:21:43.651,9.5600,0.3900,-0.5800,-0.0625,-0.6250,-0.7500,86.5000,-178.1250,0.0000,223.2500,
2025-03-09 20:21:43.661,9.5500,0.3800,-0.5600,-0.0625,0.3125,-0.1875,86.5000,-178.1250,0.0000,223.2500,
2025-03-09 20:21:43.682,9.5600,0.3800,-0.5700,0.0625,0.8750,0.0000,86.5000,-178.1250,0.0000,223.2500,
2025-03-09 20:21:43.687,9.5500,0.3400,-0.5400,0.2500,0.7500,0.0625,86.5000,-178.1250,0.0000,223.2500,
2025-03-09 20:21:43.692,9.5600,0.3300,-0.5200,0.1250,0.5625,-0.1875,86.5000,-178.1250,0.0000,223.2500,
2025-03-09 20:21:43.718,9.5400,0.3600,-0.5200,0.0625,0.6875,-0.3125,86.5000,-178.1250,0.0000,223.2500,
2025-03-09 20:21:43.720,9.5500,0.3900,-0.5100,0.0000,0.3125,-0.2500,86.5000,-178.1250,0.0000,223.2500,
2025-03-09 20:21:43.731,9.5700,0.3800,-0.5200,-0.2500,-0.1250,0.2500,86.5000,-178.1250,0.0000,223.2500,
2025-03-09 20:21:43.736,9.5500,0.3700,-0.5400,-0.1250,-0.1875,0.4375,86.5000,-178.1250,0.0000,223.2500,
2025-03-09 20:21:43.749,9.5600,0.3800,-0.5200,-0.1250,0.1875,0.8125,86.5000,-178.1250,0.0000,223.2500,
2025-03-09 20:21:43.756,9.5500,0.3300,-0.5800,0.0000,0.5625,0.7500,86.5000,-178.1250,0.0000,223.2500,
2025-03-09 20:21:43.767,9.5600,0.3200,-0.5500,-0.1875,1.0625,0.2500,86.5000,-178.1250,0.0000,223.2500,
2025-03-09 20:21:43.777,9.5600,0.3000,-0.5200,-0.2500,1.2500,-0.6875,86.5000,-178.1250,0.0000,223.2500,
2025-03-09 20:21:43.786,9.5500,0.3300,-0.5300,0.0625,1.2500,-1.1875,86.5625,-178.1250,0.0000,223.2500,
2025-03-09 20:21:43.806,9.5300,0.4100,-0.5100,-0.0625,1.1875,-1.1250,86.5625,-178.0625,0.0000,223.3125,
2025-03-09 20:21:43.806,9.5500,0.3900,-0.5300,0.0000,1.0625,-0.5000,86.5625,-178.0625,0.0000,223.3125,
2025-03-09 20:21:43.816,9.5700,0.4300,-0.5300,0.1250,1.3125,-0.1875,86.5625,-178.0625,0.0000,223.3125,
2025-03-09 20:21:43.831,9.5500,0.3900,-0.5500,0.1875,1.6250,0.3750,86.5625,-178.0625,0.0000,223.3125,
2025-03-09 20:21:43.836,9.5500,0.3900,-0.5500,0.1250,1.8750,0.6250,86.5625,-178.0625,0.0000,223.3125,
2025-03-09 20:21:43.876,9.5700,0.3500,-0.5200,0.3125,2.1875,0.5625,86.5625,-178.0625,0.0000,223.3125,
2025-03-09 20:21:43.877,9.5800,0.3500,-0.4700,0.3125,1.6875,0.1875,86.6250,-178.0625,0.0000,223.3125,
2025-03-09 20:21:43.877,9.5300,0.3700,-0.4300,0.0625,0.8750,0.1250,86.6250,-178.0625,0.0000,223.3125,
2025-03-09 20:21:43.877,9.5400,0.4000,-0.4300,0.1875,0.0625,0.1875,86.6250,-178.0625,0.0000,223.3125,
2025-03-09 20:21:43.888,9.5600,0.3700,-0.4500,0.0000,-0.8750,0.5000,86.6250,-178.0625,0.0000,223.3125,
2025-03-09 20:21:43.898,9.5400,0.3300,-0.5500,-0.3125,-1.0000,0.6875,86.6250,-178.1250,0.0000,223.2500,
2025-03-09 20:21:43.909,9.5700,0.3200,-0.5500,0.0000,-0.5625,0.1250,86.6250,-178.1250,0.0000,223.2500,
2025-03-09 20:21:43.919,9.5700,0.3300,-0.5600,-0.1875,-0.3125,-0.3125,86.6250,-178.1250,0.0000,223.2500,
2025-03-09 20:21:43.930,9.5500,0.3300,-0.6000,-0.0625,0.1875,-0.9375,86.6250,-178.0625,0.0000,223.3125,
2025-03-09 20:21:43.939,9.5300,0.4000,-0.4400,0.1250,0.7500,-1.0625,86.6250,-178.0625,0.0000,223.3125,
2025-03-09 20:21:43.959,9.5800,0.4000,-0.4500,0.1250,0.3750,-0.8750,86.6250,-178.0625,0.0000,223.3125,
2025-03-09 20:21:43.959,9.5500,0.3600,-0.5100,0.0625,-0.2500,-0.4375,86.6250,-178.0625,0.0000,223.3125,
2025-03-09 20:21:43.970,9.5400,0.4100,-0.4900,0.0625,-0.6250,0.0000,86.6250,-178.0625,0.0000,223.3125,
2025-03-09 20:21:43.980,9.5800,0.3800,-0.4600,-0.1250,-1.3125,0.7500,86.6250,-178.0625,0.0000,223.3125,
2025-03-09 20:21:43.980,9.5800,0.3800,-0.4600,-0.1250,-1.6250,1.0625,86.6250,-178.0625,0.0000,223.3125,
2025-03-09 20:21:43.991,9.5600,0.3500,-0.5100,0.1250,-1.6875,0.6875,86.5625,-178.0625,0.0000,223.3125,
2025-03-09 20:21:44.012,9.5600,0.3500,-0.5700,0.3125,-1.2500,0.1250,86.5625,-178.0625,0.0000,223.2500,
2025-03-09 20:21:44.018,9.5800,0.3900,-0.5700,-0.0625,-0.5000,0.1250,86.5625,-178.0625,0.0000,223.3125,
2025-03-09 20:21:44.023,9.5600,0.3700,-0.5700,0.0625,0.3125,0.1875,86.5625,-178.0625,0.0000,223.3125,
2025-03-09 20:21:44.042,9.5500,0.3700,-0.5500,-0.2500,0.9375,0.3125,86.5625,-178.0625,0.0000,223.3125,
2025-03-09 20:21:44.045,9.5500,0.3900,-0.5100,-0.0625,1.4375,0.5000,86.5625,-178.0625,0.0000,223.2500,
2025-03-09 20:21:44.057,9.5400,0.3600,-0.5000,0.1875,1.6875,0.5625,86.5625,-178.0625,0.0000,223.2500,
2025-03-09 20:21:44.075,9.5500,0.3400,-0.4900,0.3750,1.5000,0.6875,86.6250,-178.0625,0.0000,223.2500,
2025-03-09 20:21:44.075,9.5700,0.3400,-0.4800,0.2500,1.3125,0.5000,86.6250,-178.1250,0.0000,223.2500,
2025-03-09 20:21:44.084,9.5700,0.3400,-0.4800,0.0000,1.4375,0.4375,86.6250,-178.1250,0.0000,223.2500,
2025-03-09 20:21:44.105,9.5500,0.3700,-0.4500,0.0000,1.4375,0.4375,86.6250,-178.1250,0.0000,223.2500,
2025-03-09 20:21:44.105,9.5500,0.3300,-0.5300,0.0000,0.9375,0.5000,86.6250,-178.1250,0.0000,223.2500,
2025-03-09 20:21:44.116,9.5400,0.3300,-0.4800,0.2500,1.0625,0.3125,86.6875,-178.1250,0.0000,223.2500,
2025-03-09 20:21:44.135,9.5400,0.3500,-0.4600,0.3125,0.8125,0.1250,86.6875,-178.1250,0.0000,223.2500,
2025-03-09 20:21:44.178,9.5600,0.3400,-0.3800,-0.0625,-0.6250,0.0625,86.6875,-178.1250,0.0000,223.2500,
2025-03-09 20:21:44.186,9.5500,0.3500,-0.4000,-0.1250,-2.0000,0.0625,86.6875,-178.1250,0.0000,223.2500,
2025-03-09 20:21:44.186,9.5400,0.3500,-0.4300,-0.2500,-3.1250,-0.2500,86.6250,-178.1250,0.0000,223.2500,
2025-03-09 20:21:44.186,9.5500,0.3100,-0.4800,-0.3750,-3.9375,-0.3125,86.6250,-178.1250,0.0000,223.2500,
2025-03-09 20:21:44.197,9.5500,0.3700,-0.5300,-0.0625,-4.1250,-0.7500,86.5625,-178.1250,0.0000,223.2500,
2025-03-09 20:21:44.209,9.5700,0.3400,-0.6400,-0.0625,-3.9375,-0.3750,86.5000,-178.0625,0.0000,223.3125,
2025-03-09 20:21:44.228,9.5200,0.4200,-0.4800,-0.4375,-2.9375,-0.4375,86.5000,-178.0625,0.0000,223.3125,
2025-03-09 20:21:44.238,9.5400,0.3300,-0.5700,-0.3750,-2.9375,0.0000,86.4375,-178.0625,0.0000,223.3125,
2025-03-09 20:21:44.269,9.5300,0.3000,-0.5200,-0.1875,-2.9375,-0.1875,86.4375,-178.0625,0.0000,223.3125,
2025-03-09 20:21:44.269,9.5400,0.4500,-0.5300,-0.3125,-3.0000,-0.7500,86.3750,-178.0625,0.0000,223.3125,
2025-03-09 20:21:44.288,9.5400,0.3800,-0.6000,-0.1875,-3.6875,0.3750,86.3125,-178.0625,0.0000,223.3125,
2025-03-09 20:21:44.309,9.5400,0.4100,-0.6100,-0.3750,-3.5000,0.8125,86.2500,-178.0625,0.0000,223.3125,
2025-03-09 20:21:44.309,9.5900,0.2200,-0.8100,-0.1875,-1.8125,1.8750,86.2500,-178.1250,0.0000,223.2500,
2025-03-09 20:21:44.332,9.5700,0.3200,-0.5700,-0.6250,0.9375,-1.1250,86.2500,-178.1250,0.0000,223.2500,
2025-03-09 20:21:44.351,9.5700,0.3300,-0.5200,-0.3125,0.6875,-1.8750,86.2500,-178.1250,0.0000,223.3125,
2025-03-09 20:21:44.374,9.5500,0.3800,-0.6100,-0.6875,-0.3125,-2.0625,86.2500,-178.0625,0.0000,223.3125,
2025-03-09 20:21:44.384,9.5500,0.4000,-0.5800,-0.6250,-0.4375,-1.5625,86.1875,-178.0000,0.0000,223.3750,
2025-03-09 20:21:44.411,9.5600,0.3700,-0.6100,-0.5625,-0.9375,0.3125,86.1875,-178.0000,0.0000,223.3750,
2025-03-09 20:21:44.421,9.5400,0.3800,-0.5500,-0.2500,-0.5625,1.0000,86.1875,-178.0000,0.0000,223.3750,
2025-03-09 20:21:44.432,9.5400,0.4000,-0.5600,0.1875,-0.7500,1.2500,86.1875,-178.0625,0.0000,223.3750,
2025-03-09 20:21:44.484,9.5500,0.3400,-0.5700,-0.1250,-1.2500,1.3125,86.1875,-178.0625,0.0000,223.3750,
2025-03-09 20:21:44.484,9.5600,0.3600,-0.6500,-0.4375,-0.9375,0.8750,86.1875,-178.0625,0.0000,223.3750,
2025-03-09 20:21:44.484,9.5800,0.3400,-0.6700,-0.9375,-0.1250,0.5625,86.1875,-178.0625,0.0000,223.3750,
2025-03-09 20:21:44.493,9.5500,0.3700,-0.6300,-1.3125,0.9375,0.5625,86.1875,-178.0625,0.0000,223.3750,
2025-03-09 20:21:44.506,9.5400,0.3700,-0.6100,-0.6875,2.0000,0.5625,86.1875,-178.0625,0.0000,223.3750,
2025-03-09 20:21:44.534,9.5500,0.3100,-0.5600,0.3125,2.5000,-0.6250,86.2500,-178.0625,0.0000,223.3750,
2025-03-09 20:21:44.556,9.5300,0.3900,-0.5000,0.2500,2.0625,-1.1875,86.3125,-178.0625,0.0000,223.3750,
2025-03-09 20:21:44.556,9.5300,0.3900,-0.5300,-0.5000,0.6250,-0.9375,86.3125,-178.0625,0.0000,223.4375,
2025-03-09 20:21:44.586,9.5400,0.4000,-0.5400,-0.4375,-0.3750,0.1875,86.3125,-178.0625,0.0000,223.4375,
2025-03-09 20:21:44.596,9.5700,0.3600,-0.5700,-0.8750,-0.3125,0.8750,86.3125,-178.0625,0.0000,223.4375,
2025-03-09 20:21:44.633,9.5400,0.3600,-0.5600,-0.9375,-0.5000,1.1875,86.3125,-178.0625,0.0000,223.4375,
2025-03-09 20:21:44.637,9.5600,0.3400,-0.5600,-0.8125,-0.6875,1.1875,86.3125,-178.1250,0.0000,223.4375,
2025-03-09 20:21:44.647,9.5500,0.3500,-0.5400,-0.6250,-0.9375,0.9375,86.3125,-178.1250,0.0000,223.4375,
2025-03-09 20:21:44.668,9.5700,0.3800,-0.6200,-1.3125,-0.9375,0.3750,86.3125,-178.1250,0.0000,223.4375,
2025-03-09 20:21:44.688,9.5200,0.5400,-0.3900,-1.3125,-0.4375,-0.1875,86.3125,-178.1250,0.0000,223.4375,
2025-03-09 20:21:44.708,9.5300,0.3800,-0.5600,0.1250,-1.2500,1.3125,86.3125,-178.1250,0.0000,223.4375,
2025-03-09 20:21:44.708,9.5600,0.3000,-0.6200,0.0625,-1.3750,1.5625,86.3125,-178.1250,0.0000,223.4375,
2025-03-09 20:21:44.733,9.6200,0.2000,-0.8000,-0.0625,-0.6250,0.3125,86.2500,-178.1875,0.0000,223.3750,
2025-03-09 20:21:44.773,9.5000,0.5800,-0.4600,-0.4375,2.3125,-2.2500,86.2500,-178.1250,0.0000,223.4375,
2025-03-09 20:21:44.784,9.5400,0.3900,-0.5600,-0.6250,1.0625,-1.3750,86.2500,-178.1250,0.0000,223.4375,
2025-03-09 20:21:44.784,9.5500,0.3700,-0.5800,-2.4375,-0.3750,0.1250,86.2500,-178.1250,0.0000,223.5000,
2025-03-09 20:21:44.793,9.5600,0.3400,-0.6100,-4.5000,-1.0625,0.0000,86.2500,-178.1250,0.0000,223.5625,
2025-03-09 20:21:44.809,9.5600,0.3700,-0.5900,-2.6250,-0.8125,-0.0625,86.2500,-178.1250,0.0000,223.6250,
2025-03-09 20:21:44.825,9.5500,0.3600,-0.6100,-1.1875,-0.8125,-0.0625,86.2500,-178.1250,0.0000,223.6250,
2025-03-09 20:21:44.856,9.5500,0.3600,-0.6000,-0.1875,-1.0000,0.0000,86.2500,-178.1250,0.0000,223.6250,
2025-03-09 20:21:44.856,9.5500,0.3500,-0.6300,-0.4375,-0.8125,-0.0625,86.2500,-178.1250,0.0000,223.6250,
2025-03-09 20:21:44.905,9.5500,0.3900,-0.6100,-0.1875,-0.5625,0.1250,86.2500,-178.1250,0.0000,223.6250,
2025-03-09 20:21:44.908,9.5700,0.3300,-0.5700,-0.7500,-0.3750,1.1250,86.2500,-178.1250,0.0000,223.6250,
2025-03-09 20:21:44.927,9.5400,0.3300,-0.5700,-0.6250,-0.4375,0.1250,86.2500,-178.1250,0.0000,223.6250,
2025-03-09 20:21:44.938,9.5500,0.3400,-0.5900,0.2500,-1.2500,-0.3125,86.1875,-178.1250,0.0000,223.6250,
2025-03-09 20:21:44.948,9.5600,0.3600,-0.5700,0.4375,-1.6875,-0.1875,86.1875,-178.1250,0.0000,223.6250,
2025-03-09 20:21:44.959,9.5700,0.3300,-0.6200,0.5000,-2.0000,0.0625,86.1875,-178.1250,0.0000,223.6250,
2025-03-09 20:21:44.969,9.5600,0.3500,-0.6600,0.5000,-2.1250,0.2500,86.1875,-178.1250,0.0000,223.6250,
2025-03-09 20:21:44.980,9.5600,0.3000,-0.7200,0.5000,-2.0625,0.9375,86.1250,-178.1250,0.0000,223.6250,
2025-03-09 20:21:45.000,9.5800,0.3200,-0.6500,0.2500,-1.5000,0.6875,86.1250,-178.1250,0.0000,223.6250,
2025-03-09 20:21:45.000,9.5700,0.3300,-0.6100,0.0625,-1.1875,0.1875,86.1250,-178.1250,0.0000,223.6250,
2025-03-09 20:21:45.020,9.5500,0.3200,-0.6600,0.1250,-1.0625,0.0625,86.1250,-178.1250,0.0000,223.6250,
2025-03-09 20:21:45.033,9.5500,0.3800,-0.5900,0.2500,-0.3750,-0.8750,86.1250,-178.1250,0.0000,223.6250,
2025-03-09 20:21:45.072,9.5500,0.3700,-0.6200,0.0625,-0.2500,-0.8125,86.0625,-178.1250,0.0000,223.6250,
2025-03-09 20:21:45.083,9.5500,0.3400,-0.6400,0.0625,-0.0625,-0.8750,86.0625,-178.1250,0.0000,223.6250,
2025-03-09 20:21:45.083,9.5500,0.3500,-0.6000,0.4375,-0.3125,-1.0000,86.0625,-178.1250,0.0000,223.6250,
2025-03-09 20:21:45.083,9.5500,0.3800,-0.5800,0.5625,-0.3750,-1.0000,86.0625,-178.1250,0.0000,223.6875,
2025-03-09 20:21:45.083,9.5500,0.3700,-0.6400,0.5000,-0.6250,-0.3125,86.0625,-178.1250,0.0000,223.6875,
2025-03-09 20:21:45.093,9.5400,0.3700,-0.6300,0.1875,-0.8125,-0.0625,86.0625,-178.1250,0.0000,223.6875,
2025-03-09 20:21:45.102,9.5600,0.3500,-0.6400,0.0625,-1.0625,0.1250,86.0625,-178.1250,0.0000,223.6875,
2025-03-09 20:21:45.123,9.5500,0.3600,-0.6400,0.1875,-1.1250,0.3125,86.0625,-178.1250,0.0000,223.6875,
2025-03-09 20:21:45.123,9.5500,0.3800,-0.6200,0.1250,-0.9375,0.0000,86.0625,-178.1250,0.0000,223.6875,
2025-03-09 20:21:45.164,9.5500,0.3400,-0.6500,0.1250,-0.9375,0.4375,86.0000,-178.1250,0.0000,223.6875,
2025-03-09 20:21:45.164,9.5500,0.3300,-0.6700,0.3750,-0.7500,0.3125,86.0000,-178.1250,0.0000,223.6875,
2025-03-09 20:21:45.164,9.5400,0.3500,-0.6900,0.4375,-0.7500,0.0000,86.0000,-178.1250,0.0000,223.6875,
2025-03-09 20:21:45.185,9.5700,0.3200,-0.7000,0.1875,-0.6875,-0.1875,86.0000,-178.1250,0.0000,223.6875,
2025-03-09 20:21:45.185,9.5600,0.3500,-0.6800,0.2500,-0.3750,-0.3750,86.0000,-178.1250,0.0000,223.6875,
2025-03-09 20:21:45.194,9.5400,0.3900,-0.6600,0.3750,0.0000,-0.6875,86.0000,-178.1250,0.0000,223.6875,
2025-03-09 20:21:45.214,9.5300,0.3800,-0.6500,0.1250,0.0000,-0.3125,86.0000,-178.1250,0.0000,223.6875,
2025-03-09 20:21:45.214,9.5400,0.3800,-0.6700,0.2500,0.0625,0.4375,86.0000,-178.1250,0.0000,223.6875,
2025-03-09 20:21:45.224,9.5700,0.3500,-0.6600,0.3750,0.3125,0.5000,86.0000,-178.1250,0.0000,223.6875,
2025-03-09 20:21:45.254,9.5600,0.3300,-0.6500,0.1875,0.5000,0.6875,86.0000,-178.1250,0.0000,223.6875,
2025-03-09 20:21:45.254,9.5600,0.3000,-0.6700,0.2500,0.5625,0.5625,86.0000,-178.1250,0.0000,223.6875,
2025-03-09 20:21:45.254,9.5600,0.3200,-0.6800,0.3125,0.7500,-0.1875,86.0000,-178.1250,0.0000,223.6875,
2025-03-09 20:21:45.274,9.5400,0.3700,-0.6100,0.3750,0.9375,-0.5625,86.0000,-178.1250,0.0000,223.6875,
2025-03-09 20:21:45.274,9.5200,0.3900,-0.6300,0.3125,0.8750,-0.6250,86.0000,-178.1250,0.0000,223.6875,
2025-03-09 20:21:45.284,9.5600,0.3700,-0.6600,0.6875,0.4375,0.1250,86.0000,-178.1250,0.0000,223.6875,
2025-03-09 20:21:45.304,9.5500,0.3600,-0.6200,0.4375,0.5625,0.3750,86.0000,-178.1250,0.0000,223.6875,
2025-03-09 20:21:45.304,9.5400,0.3400,-0.6000,0.6875,0.6250,0.7500,86.0625,-178.1250,0.0000,223.6250,
2025-03-09 20:21:45.314,9.5400,0.3600,-0.6200,0.8750,0.6250,0.5000,86.0625,-178.1250,0.0000,223.6250,
2025-03-09 20:21:45.324,9.5600,0.3500,-0.6200,0.6250,0.2500,0.5625,86.0625,-178.1250,0.0000,223.6250,
2025-03-09 20:21:45.334,9.5500,0.3300,-0.6300,0.4375,0.0625,0.5625,86.0625,-178.1250,0.0000,223.6250,
2025-03-09 20:21:45.374,9.5500,0.3500,-0.6100,0.5625,-0.3750,0.4375,86.0625,-178.1250,0.0000,223.6250,
2025-03-09 20:21:45.374,9.5400,0.3800,-0.6300,0.6250,-0.6250,0.5625,86.0625,-178.1250,0.0000,223.6250,
2025-03-09 20:21:45.374,9.5400,0.4200,-0.6400,0.3125,-0.6875,0.8750,86.0000,-178.1250,0.0000,223.6250,
2025-03-09 20:21:45.374,9.5600,0.3900,-0.6600,0.2500,-1.0000,1.6875,86.0000,-178.1250,0.0000,223.6250,
2025-03-09 20:21:45.384,9.5600,0.3500,-0.6600,0.1875,-1.0000,2.4375,86.0000,-178.1875,0.0000,223.5625,
2025-03-09 20:21:45.394,9.5400,0.3400,-0.6400,0.0625,-0.6875,2.9375,86.0625,-178.1875,0.0000,223.5625,
2025-03-09 20:21:45.404,9.5300,0.2900,-0.6500,0.1250,-0.9375,3.3750,86.0625,-178.2500,0.0000,223.5000,
2025-03-09 20:21:45.424,9.5600,0.3100,-0.6800,0.5000,-0.9375,2.8750,86.0625,-178.2500,0.0000,223.5000,
2025-03-09 20:21:45.424,9.5300,0.4200,-0.5700,0.6250,-1.2500,2.6250,86.0625,-178.2500,0.0000,223.4375,
2025-03-09 20:21:45.434,9.5600,0.2500,-0.7400,0.3750,-1.5625,3.0625,86.0625,-178.3125,0.0000,223.4375,
2025-03-09 20:21:45.454,9.5700,0.2900,-0.7200,0.3750,-1.3750,3.4375,86.0625,-178.3125,0.0000,223.3750,
2025-03-09 20:21:45.454,9.5700,0.2900,-0.7400,0.5625,-0.4375,2.9375,86.0625,-178.3750,0.0000,223.3750,
2025-03-09 20:21:45.465,9.5500,0.2600,-0.7400,0.5625,0.7500,3.0000,86.0625,-178.3750,0.0000,223.3125,
2025-03-09 20:21:45.475,9.5100,0.4000,-0.5600,0.8750,1.7500,2.8125,86.1250,-178.4375,0.0000,223.3125,
2025-03-09 20:21:45.485,9.5500,0.3200,-0.6200,1.0625,1.7500,3.4375,86.1250,-178.4375,0.0000,223.2500,
2025-03-09 20:21:45.495,9.5200,0.4000,-0.5500,0.8125,0.9375,4.5000,86.1875,-178.5000,0.0000,223.1875,
2025-03-09 20:21:45.516,9.5500,0.2700,-0.5900,1.0000,0.0625,5.5625,86.1875,-178.5625,0.0000,223.1250,
2025-03-09 20:21:45.516,9.5700,0.3000,-0.6300,1.1250,-0.7500,6.5625,86.1875,-178.6250,0.0000,223.0625,
2025-03-09 20:21:45.526,9.5300,0.2400,-0.6600,0.3750,-0.9375,7.3750,86.1875,-178.6875,0.0000,223.0000,
2025-03-09 20:21:45.563,9.5400,0.2500,-0.6300,0.8750,-1.3125,8.0000,86.2500,-178.7500,0.0000,222.8750,
2025-03-09 20:21:45.563,9.5500,0.2500,-0.5400,1.2500,-1.2500,8.0625,86.2500,-178.8750,0.0000,222.8125,
2025-03-09 20:21:45.563,9.5400,0.1800,-0.5900,1.2500,-2.6875,9.0000,86.2500,-178.9375,0.0000,222.6875,
2025-03-09 20:21:45.566,9.5200,0.1700,-0.6300,0.9375,-4.1250,9.4375,86.2500,-179.0000,0.0000,222.6250,
2025-03-09 20:21:45.576,9.5400,0.1900,-0.6100,-0.2500,-5.0625,9.2500,86.1875,-179.1250,0.0000,222.5000,
2025-03-09 20:21:45.588,9.5300,0.1900,-0.6900,-1.3750,-5.9375,9.0625,86.1875,-179.1875,0.0000,222.4375,
2025-03-09 20:21:45.600,9.5400,0.2400,-0.6600,-1.5625,-6.1875,9.1250,86.1250,-179.3125,0.0000,222.3750,
2025-03-09 20:21:45.606,9.5800,0.2300,-0.6200,-1.5000,-6.4375,9.5625,86.0625,-179.3750,0.0000,222.3125,
2025-03-09 20:21:45.617,9.5700,0.2500,-0.6100,-0.5000,-7.5625,11.2500,86.0000,-179.5000,0.0000,222.1875,
2025-03-09 20:21:45.628,9.5700,0.2000,-0.6300,0.6875,-9.2500,13.2500,85.9375,-179.6250,0.0000,222.0625,
2025-03-09 20:21:45.638,9.5300,0.2200,-0.6500,0.4375,-11.0625,15.5625,85.8125,-179.7500,0.0000,221.9375,
2025-03-09 20:21:45.680,9.5600,0.1100,-0.7500,0.3125,-12.4375,17.3750,85.7500,-179.9375,0.0000,221.7500,
2025-03-09 20:21:45.680,9.5600,0.0200,-0.8600,0.1875,-13.6250,19.1250,85.5625,179.8125,0.0000,221.5625,
2025-03-09 20:21:45.680,9.5800,0.0000,-0.9100,-0.6875,-13.3750,20.1250,85.4375,179.6250,0.0000,221.3750,
2025-03-09 20:21:45.680,9.5200,-0.1100,-1.0500,-0.7500,-12.8125,20.8750,85.3125,179.4375,0.0000,221.1875,
2025-03-09 20:21:45.689,9.5000,-0.2000,-0.9900,-1.3125,-11.0625,21.3750,85.1875,179.1875,0.0000,221.0000,
2025-03-09 20:21:45.699,9.5100,-0.1600,-1.0000,-2.0000,-8.0625,20.3125,85.0625,179.0000,0.0000,220.8125,
2025-03-09 20:21:45.699,9.5000,-0.2600,-0.9700,-1.7500,-6.0000,19.3125,84.9375,178.8125,0.0000,220.6250,
2025-03-09 20:21:45.725,9.5000,-0.4100,-0.9800,-2.1875,-4.4375,18.1875,84.8750,178.6875,0.0000,220.5000,
2025-03-09 20:21:45.730,9.5000,-0.3200,-0.9400,-1.0625,-2.9375,16.1250,84.8125,178.5000,0.0000,220.3125,
2025-03-09 20:21:45.736,9.5200,-0.2900,-0.8600,0.3125,-2.2500,13.7500,84.7500,178.3750,0.0000,220.1875,
2025-03-09 20:21:45.754,9.5300,-0.2400,-0.8300,0.0000,-2.0000,11.8125,84.6875,178.2500,0.0000,220.0625,
2025-03-09 20:21:45.754,9.5000,-0.3200,-0.8500,0.0000,-2.0000,11.8125,84.6250,178.1250,0.0000,219.9375,
2025-03-09 20:21:45.761,9.5000,-0.4300,-0.9500,-1.1875,-2.5000,11.9375,84.5625,178.0000,0.0000,219.8750,
2025-03-09 20:21:45.772,9.4700,-0.4600,-0.9600,-2.8125,-2.3125,9.5625,84.5000,177.9375,0.0000,219.8125,
2025-03-09 20:21:45.784,9.4800,-0.5600,-0.9900,-2.5000,-1.2500,6.8125,84.5000,177.8750,0.0000,219.7500,
2025-03-09 20:21:45.796,9.5000,-0.5000,-0.9700,-0.6875,-0.1250,3.6875,84.5000,177.8750,0.0000,219.7500,
2025-03-09 20:21:45.814,9.5000,-0.4800,-0.9600,0.6875,0.4375,1.2500,84.4375,177.8125,0.0000,219.7500,
2025-03-09 20:21:45.814,9.5000,-0.4500,-0.9500,1.5625,0.6250,-0.6250,84.5000,177.8125,0.0000,219.6875,
2025-03-09 20:21:45.822,9.5000,-0.4300,-0.9400,2.1250,1.0000,-2.3125,84.5000,177.8750,0.0000,219.6875,
2025-03-09 20:21:45.843,9.5100,-0.3800,-0.9000,1.9375,1.0625,-3.4375,84.5000,177.8750,0.0000,219.6875,
2025-03-09 20:21:45.843,9.5000,-0.3500,-0.8900,1.3750,0.8750,-4.5000,84.5000,177.8750,0.0000,219.6875,
2025-03-09 20:21:45.853,9.5000,-0.3300,-0.8800,1.1250,0.6250,-5.2500,84.5625,177.9375,0.0000,219.7500,
2025-03-09 20:21:45.864,9.5000,-0.3300,-0.9300,0.2500,0.8125,-5.9375,84.5625,178.0000,0.0000,219.8125,
2025-03-09 20:21:45.876,9.5000,-0.3100,-0.9200,0.1875,1.3750,-6.2500,84.6250,178.0625,0.0000,219.8750,
2025-03-09 20:21:45.884,9.5100,-0.2900,-0.9700,0.6875,2.0000,-6.3125,84.6875,178.1250,0.0000,219.9375,
2025-03-09 20:21:45.904,9.5100,-0.3100,-1.0100,1.5625,3.1875,-6.5625,84.6875,178.1250,0.0000,219.9375,
2025-03-09 20:21:45.904,9.5200,-0.3500,-0.9800,2.8125,4.7500,-7.6250,84.6875,178.1875,0.0000,220.0000,
2025-03-09 20:21:45.914,9.5200,-0.3500,-0.9700,3.9375,5.7500,-8.6875,84.8750,178.3750,0.0000,220.0625,
2025-03-09 20:21:45.924,9.5300,-0.2600,-0.8300,3.5625,6.3750,-9.4375,84.9375,178.4375,0.0000,220.1250,
2025-03-09 20:21:45.935,9.5100,-0.1200,-0.7100,3.3125,5.5000,-9.0625,85.0000,178.5625,0.0000,220.1875,
2025-03-09 20:21:45.984,9.5000,-0.1600,-0.7600,2.0000,3.6875,-7.8125,85.0000,178.5625,0.0000,220.1875,
2025-03-09 20:21:45.994,9.5300,-0.0900,-0.7100,0.2500,2.4375,-7.1875,85.0625,178.6250,0.0000,220.2500,
2025-03-09 20:21:45.994,9.5300,-0.0600,-0.7400,-0.3125,0.8125,-5.5000,85.1250,178.7500,0.0000,220.3750,
2025-03-09 20:21:45.994,9.5200,-0.1200,-0.7700,-0.6875,-0.5625,-4.1875,85.1250,178.7500,0.0000,220.4375,
2025-03-09 20:21:45.994,9.5200,-0.1200,-0.8300,-0.6250,-1.5000,-3.0625,85.1250,178.8125,0.0000,220.4375,
2025-03-09 20:21:45.994,9.5300,-0.1100,-0.8200,-0.7500,-1.4375,-2.4375,85.1250,178.8125,0.0000,220.4375,
2025-03-09 20:21:46.004,9.5200,-0.2000,-0.9500,-0.6875,-1.4375,-2.0000,85.1250,178.8125,0.0000,220.5000,
2025-03-09 20:21:46.014,9.5300,-0.2200,-0.9000,-0.4375,-0.5625,-2.0000,85.1250,178.8750,0.0000,220.5625,
2025-03-09 20:21:46.024,9.5400,-0.1200,-0.8400,0.3750,0.1250,-2.3125,85.1250,178.8750,0.0000,220.5625,
2025-03-09 20:21:46.036,9.5500,-0.0600,-0.8000,0.3125,0.0000,-1.8750,85.1250,178.9375,0.0000,220.5625,
2025-03-09 20:21:46.056,9.5100,-0.1000,-0.8200,-0.3125,-0.2500,-0.9375,85.1250,178.9375,0.0000,220.6250,
2025-03-09 20:21:46.058,9.5300,-0.1000,-0.8200,-0.3750,-0.1875,-0.3125,85.1250,178.9375,0.0000,220.6250,
2025-03-09 20:21:46.076,9.5300,-0.1200,-0.8900,-0.3750,-0.3750,0.3750,85.1250,178.9375,0.0000,220.6250,
2025-03-09 20:21:46.079,9.5300,-0.2100,-0.9100,-0.1250,0.1250,0.5625,85.1250,178.9375,0.0000,220.6250,
2025-03-09 20:21:46.088,9.5000,-0.2000,-0.8800,0.7500,0.6875,0.3125,85.1250,178.9375,0.0000,220.5625,
2025-03-09 20:21:46.097,9.5000,-0.2000,-0.8600,1.1875,1.2500,-0.2500,85.1875,178.9375,0.0000,220.5625,
2025-03-09 20:21:46.107,9.5200,-0.1900,-0.8500,1.8125,1.6250,-0.7500,85.1875,178.9375,0.0000,220.5625,
2025-03-09 20:21:46.119,9.5000,-0.1900,-0.9000,2.4375,1.9375,-1.2500,85.1875,178.9375,0.0000,220.5625,
2025-03-09 20:21:46.129,9.5200,-0.2400,-0.9000,1.8125,2.3750,-2.0000,85.2500,178.9375,0.0000,220.5625,
2025-03-09 20:21:46.148,9.5200,-0.2200,-0.8700,0.6250,3.3750,-3.0625,85.2500,179.0000,0.0000,220.5625,
2025-03-09 20:21:46.148,9.5200,-0.2200,-0.8700,0.0000,3.9375,-3.7500,85.2500,179.0000,0.0000,220.5625,
2025-03-09 20:21:46.159,9.5200,-0.1500,-0.8400,-0.7500,3.4375,-3.1250,85.3125,179.0000,0.0000,220.6250,
2025-03-09 20:21:46.170,9.5400,-0.0800,-0.8000,-1.7500,3.0625,-1.6875,85.3750,179.0625,0.0000,220.6875,
2025-03-09 20:21:46.190,9.5100,-0.1100,-0.9100,-2.1250,3.1250,-0.9375,85.4375,179.0625,0.0000,220.6875,
2025-03-09 20:21:46.190,9.5400,-0.1600,-0.8800,-1.6875,4.3750,-1.2500,85.4375,179.0625,0.0000,220.7500,
2025-03-09 20:21:46.211,9.5400,-0.1600,-0.8800,-0.2500,5.3125,-1.8125,85.4375,179.0625,0.0000,220.7500,
2025-03-09 20:21:46.211,9.5300,-0.1600,-0.8500,1.0625,5.8750,-2.1875,85.5000,179.1250,0.0000,220.7500,
2025-03-09 20:21:46.220,9.5600,-0.0700,-0.7100,1.6875,5.2500,-1.6250,85.5625,179.1250,0.0000,220.7500,
2025-03-09 20:21:46.231,9.5300,0.0300,-0.6200,1.8750,3.6875,-0.5000,85.6250,179.1250,0.0000,220.7500,
2025-03-09 20:21:46.236,9.5100,0.0100,-0.5700,1.1875,1.3750,1.6250,85.6875,179.1250,0.0000,220.7500,
2025-03-09 20:21:46.283,9.5100,0.0100,-0.5700,1.1875,1.3750,1.6250,85.6875,179.1250,0.0000,220.7500,
2025-03-09 20:21:46.283,9.5500,-0.0500,-0.6100,0.3750,-0.7500,3.3125,85.6875,179.1250,0.0000,220.6875,
2025-03-09 20:21:46.283,9.5300,-0.2100,-0.7900,-1.1250,-2.2500,2.6875,85.6250,179.0625,0.0000,220.6875,
2025-03-09 20:21:46.283,9.5300,-0.1100,-0.7100,-0.8750,-2.1875,2.0000,85.6250,179.0625,0.0000,220.6250,
2025-03-09 20:21:46.292,9.5200,-0.0900,-0.6900,-0.5625,-3.4375,2.3125,85.5625,179.0000,0.0000,220.6250,
2025-03-09 20:21:46.292,9.5200,-0.0900,-0.6900,-0.8125,-4.4375,3.3750,85.5625,179.0000,0.0000,220.6250,
2025-03-09 20:21:46.325,9.5400,-0.1100,-0.7600,-0.2500,-4.9375,3.8750,85.5000,178.9375,0.0000,220.5625,
2025-03-09 20:21:46.325,9.5100,-0.1600,-0.8600,0.3750,-4.5000,3.1875,85.4375,178.9375,0.0000,220.5625,
2025-03-09 20:21:46.325,9.5400,-0.0700,-0.8200,0.5625,-3.8750,3.1250,85.3750,178.8750,0.0000,220.5000,
2025-03-09 20:21:46.336,9.5400,-0.0800,-0.8000,0.8125,-3.8125,3.9375,85.3125,178.8750,0.0000,220.5000,
2025-03-09 20:21:46.355,9.5400,-0.0800,-0.8000,0.8125,-3.8125,3.9375,85.3125,178.8125,0.0000,220.4375,
2025-03-09 20:21:46.355,9.5300,-0.1300,-0.8600,1.5625,-3.7500,4.8750,85.2500,178.7500,0.0000,220.3750,
2025-03-09 20:21:46.366,9.5200,-0.1100,-0.8800,3.3125,-3.8750,7.3750,85.1875,178.6875,0.0000,220.3125,
2025-03-09 20:21:46.376,9.5100,-0.1900,-1.0000,4.6875,-3.6875,9.1250,85.1250,178.6250,0.0000,220.1875,
2025-03-09 20:21:46.389,9.5300,-0.1500,-0.9300,5.4375,-2.0000,9.8750,85.0625,178.5625,0.0000,220.0625,
2025-03-09 20:21:46.418,9.4900,-0.4200,-1.1300,7.0625,-0.3125,10.8125,85.0000,178.3125,0.0000,219.6875,
2025-03-09 20:21:46.422,9.5400,-0.3100,-1.0300,7.0000,6.5000,8.1875,85.0000,178.2500,0.0000,219.5625,
2025-03-09 20:21:46.439,9.5100,-0.3600,-0.7900,7.4375,10.1875,8.3750,85.0625,178.0625,0.0000,219.2500,
2025-03-09 20:21:46.458,9.4900,-0.3000,-0.7300,7.4375,10.8750,8.0625,85.1875,177.8750,0.0000,218.9375,
2025-03-09 20:21:46.472,9.5100,-0.2800,-0.6000,7.2500,8.1250,8.9375,85.1875,177.8125,0.0000,218.8125,
2025-03-09 20:21:46.490,9.5700,-0.2400,-0.4800,7.0625,3.4375,12.1250,85.2500,177.6250,0.0000,218.4375,
2025-03-09 20:21:46.501,9.6000,-0.4600,-0.4300,6.0625,0.7500,17.2500,85.1250,177.3125,0.0000,218.0000,
2025-03-09 20:21:46.521,9.4700,-0.7600,-0.6600,3.7500,0.7500,38.0000,85.0000,177.0625,0.0000,217.7500,
2025-03-09 20:21:46.573,9.1200,-1.3000,-0.3400,7.1250,2.1250,40.8750,84.5625,176.3125,0.0000,216.8750,
2025-03-09 20:21:46.573,9.6500,-0.9000,-0.6900,3.0000,12.2500,52.6250,84.0000,175.3750,0.0000,215.8750,
2025-03-09 20:21:46.573,9.6800,-1.1100,-0.7700,5.3125,9.1250,59.2500,83.6250,174.8125,0.0000,215.3125,
2025-03-09 20:21:46.595,9.5600,-1.1600,-0.7000,10.0625,3.5625,56.1875,82.7500,119.5625,0.0000,214.0625,
2025-03-09 20:21:46.604,9.9000,-1.5500,-0.6500,14.0625,-4.5000,53.5000,81.8125,115.7500,0.0000,212.7500,
2025-03-09 20:21:46.615,9.8700,-1.3600,-0.2900,24.2500,-1.1875,53.5625,81.3750,114.3750,0.0000,212.0625,
2025-03-09 20:21:46.637,10.0100,-1.6900,-0.5300,42.6875,3.3125,47.4375,80.3750,111.3125,0.0000,210.4375,
2025-03-09 20:21:46.655,9.2400,-1.5100,-0.6000,39.1875,8.3750,42.7500,79.6250,108.1875,0.0000,208.7500,
2025-03-09 20:21:46.665,9.2100,-1.6400,-0.3300,18.0000,8.9375,51.8750,79.1875,106.7500,0.0000,208.0625,
2025-03-09 20:21:46.685,9.7900,-1.8600,-0.3700,17.5000,10.4375,58.8125,78.2500,104.1250,0.0000,206.6250,
2025-03-09 20:21:46.716,9.0800,-2.7400,-0.5300,12.7500,12.8125,65.5625,77.1250,101.6250,0.0000,205.1875,
2025-03-09 20:21:46.716,8.9300,-2.5200,-0.4600,8.5000,6.0000,93.9375,76.3750,100.4375,0.0000,204.3125,
2025-03-09 20:21:46.738,9.0500,-3.1600,-0.5700,7.7500,2.4375,110.1250,74.5000,98.7500,0.0000,202.3125,
2025-03-09 20:21:46.757,8.6800,-2.8900,-0.8100,8.0625,1.0625,113.4375,72.3750,97.4375,0.0000,200.0625,
2025-03-09 20:21:46.770,8.2800,-2.7200,-0.7000,-4.0000,-9.0625,122.9375,71.2500,97.0625,0.0000,198.8750,
2025-03-09 20:21:46.788,9.1600,-2.7800,-0.1900,-9.1250,-14.5000,114.3750,68.8750,97.0000,0.0000,196.5000,
2025-03-09 20:21:46.808,9.1100,-4.4500,-0.2500,-12.1250,-16.0000,113.9375,66.6250,97.2500,0.0000,194.3750,
2025-03-09 20:21:46.820,8.5700,-4.5400,-0.3200,-11.5000,-11.6875,129.6250,65.4375,97.3750,0.0000,193.3125,
2025-03-09 20:21:46.871,8.1700,-3.9100,-0.2600,1.4375,-11.4375,138.8125,62.8750,97.3125,0.0000,190.8125,
2025-03-09 20:21:46.871,8.7500,-4.2500,-0.3900,6.0000,-9.7500,136.0000,60.2500,97.0000,0.0000,187.9375,
2025-03-09 20:21:46.871,8.5400,-4.3900,-0.4300,11.8125,-6.4375,109.0625,59.0625,96.8125,0.0000,186.6875,
2025-03-09 20:21:46.891,7.6300,-5.0300,-0.3700,16.3750,-3.8125,113.5000,56.9375,96.3750,0.0000,184.2500,
2025-03-09 20:21:46.912,8.4600,-6.4600,-1.2000,16.8750,0.6875,103.8125,54.8750,95.7500,0.0000,181.8750,
2025-03-09 20:21:46.936,7.4900,-6.9000,-1.1500,-8.8750,-31.8750,114.5625,53.6875,95.8125,0.0000,180.5625,
2025-03-09 20:21:46.938,7.2000,-6.2700,-0.9200,-6.4375,-21.3125,120.7500,51.5000,96.3125,0.0000,178.2500,
2025-03-09 20:21:46.954,5.7400,-5.6700,-1.1500,-8.6875,-26.0625,126.4375,49.0625,96.6875,0.0000,175.8125,
2025-03-09 20:21:46.964,6.7300,-5.7400,-1.0700,-7.0625,-28.8750,125.0000,47.8125,96.8750,0.0000,174.4375,
2025-03-09 20:21:46.993,6.3000,-6.0200,-0.3000,-10.8125,-34.0625,110.3125,45.3750,97.7500,0.0000,171.6875,
2025-03-09 20:21:47.016,7.3200,-7.3100,-0.3200,-8.0000,-32.7500,118.0625,43.1250,98.2500,0.0000,169.1875,
2025-03-09 20:21:47.016,6.7000,-7.6400,-0.9600,-1.1250,-23.0625,120.3125,41.9375,98.3125,0.0000,167.8125,
2025-03-09 20:21:47.044,6.0100,-7.8600,-1.3700,7.7500,-27.5000,144.1250,39.1875,98.2500,0.0000,164.6875,
2025-03-09 20:21:47.054,5.7600,-7.2400,-0.9500,-1.1250,-32.8125,138.5000,36.5000,98.3125,0.0000,161.6250,
2025-03-09 20:21:47.065,5.2900,-7.3700,-0.8200,-8.4375,-35.0000,139.1875,35.1250,98.5000,0.0000,160.0000,
2025-03-09 20:21:47.086,5.4200,-8.0300,-0.7300,-8.5625,-29.6875,135.1875,32.4375,98.8750,0.0000,156.9375,
2025-03-09 20:21:47.108,4.5800,-7.9900,-0.7800,8.5625,-21.6250,140.5625,29.7500,98.8125,0.0000,153.8750,
2025-03-09 20:21:47.124,4.5100,-7.9000,-0.9300,16.5625,-21.8125,151.2500,28.2500,98.6250,0.0000,152.1250,
2025-03-09 20:21:47.176,3.9400,-8.0000,-1.1600,29.8125,-20.8750,145.1250,25.3750,98.0625,0.0000,148.5625,
2025-03-09 20:21:47.176,3.8000,-9.8700,-0.9000,9.2500,-20.1875,140.0000,22.5625,97.7500,0.0000,145.3125,
2025-03-09 20:21:47.176,3.0000,-10.1100,-0.9900,-5.7500,-15.4375,137.4375,21.2500,97.8125,0.0000,143.8750,
2025-03-09 20:21:47.187,2.5000,-8.4500,-1.3200,-19.4375,6.5625,158.8750,18.3125,98.0000,0.0000,141.0000,
2025-03-09 20:21:47.206,2.4700,-8.1100,-1.3700,7.6875,3.1250,142.2500,15.5000,97.8750,0.0000,138.2500,
2025-03-09 20:21:47.227,1.3800,-8.8500,-0.8600,16.6875,-0.8125,137.5625,14.1875,97.6250,0.0000,136.8750,
2025-03-09 20:21:47.239,0.1000,-8.3300,-1.3900,21.4375,4.6250,161.1875,11.1875,97.1250,0.0000,133.8750,
2025-03-09 20:21:47.260,0.6600,-10.1200,-2.2100,25.1875,5.8750,157.3125,8.2500,96.5625,0.0000,130.8750,
2025-03-09 20:21:47.269,0.4100,-9.0700,-1.0000,5.0000,-17.0625,166.0000,6.6250,96.5625,0.0000,129.1250,
2025-03-09 20:21:47.289,0.8300,-8.6600,-0.1000,-11.3750,-25.4375,149.3750,3.5000,96.7500,0.0000,125.5000,
2025-03-09 20:21:47.320,0.1100,-9.7200,-1.0700,-0.3125,-0.7500,87.3750,1.5000,96.8750,0.0000,123.7500,
2025-03-09 20:21:47.320,-0.4600,-9.9500,-1.1000,9.3125,-4.4375,75.8125,0.7500,96.7500,0.0000,123.0000,
2025-03-09 20:21:47.331,-0.9400,-9.3300,-1.2200,13.5625,-8.4375,85.5000,0.0000,96.6250,0.0000,122.0625,
2025-03-09 20:21:47.341,-1.1800,-8.8200,-0.8900,16.3125,-9.0000,79.8750,-1.6250,96.3750,0.0000,120.2500,
2025-03-09 20:21:47.355,-0.7600,-8.6400,-0.5900,17.3125,-8.9375,75.9375,-2.3750,96.1875,0.0000,119.9375,
2025-03-09 20:21:47.372,-0.3800,-8.8300,-0.4400,22.3750,-4.9375,65.3750,-3.0000,96.0000,0.0000,119.2500,
2025-03-09 20:21:47.373,-1.8500,-10.2300,-0.8300,28.6250,-1.8750,55.3125,-3.5625,95.6875,0.0000,118.6875,
2025-03-09 20:21:47.391,-1.2700,-9.5400,-0.6000,25.3125,4.1250,60.4375,-4.1250,95.4375,0.0000,118.1875,
2025-03-09 20:21:47.401,-0.8600,-8.8400,-0.9000,21.3125,8.4375,65.0625,-4.7500,95.2500,0.0000,117.6875,
2025-03-09 20:21:47.401,-1.8000,-8.8200,-0.4100,18.8750,1.1875,58.0000,-5.3125,95.0625,0.0000,117.4375,
2025-03-09 20:21:47.411,-1.1200,-8.6300,-0.2500,19.0000,3.8125,50.8750,-5.8125,94.9375,0.0000,117.0000,
2025-03-09 20:21:47.431,-1.3600,-8.9100,-0.3500,18.0625,7.4375,47.8125,-6.2500,94.7500,0.0000,116.6250,
2025-03-09 20:21:47.485,-2.0300,-8.9400,-0.6200,19.8750,8.9375,40.3125,-6.6250,94.5625,0.0000,116.3125,
2025-03-09 20:21:47.485,-1.7000,-8.3200,-0.5400,17.8125,8.6875,37.6250,-7.0000,94.4375,0.0000,116.0625,
2025-03-09 20:21:47.485,-1.9700,-8.3700,-0.4200,15.6250,5.3125,31.1250,-7.3125,94.2500,0.0000,116.1250,
2025-03-09 20:21:47.485,-2.1500,-8.4400,-0.4600,14.8750,4.1875,23.0625,-7.5000,94.1250,0.0000,115.9375,
2025-03-09 20:21:47.485,-2.0200,-8.0800,-0.4000,11.0000,6.3750,19.0625,-7.6875,94.0000,0.0000,115.8750,
2025-03-09 20:21:47.493,-2.0700,-7.8200,-0.2500,5.6875,6.0000,14.8125,-7.8125,94.0000,0.0000,115.8125,
2025-03-09 20:21:47.493,-2.2600,-7.7000,-0.3800,2.3750,5.7500,2.4375,-7.8750,94.0000,0.0000,115.8125,
2025-03-09 20:21:47.503,-2.0200,-8.2500,-0.5700,-0.6250,5.3750,-15.0000,-7.6875,94.0000,0.0000,116.4375,
2025-03-09 20:21:47.523,-2.1200,-9.7600,-0.7800,-1.5625,4.8750,-20.7500,-7.5000,94.0000,0.0000,116.6875,
2025-03-09 20:21:47.539,-1.2800,-9.6700,-0.3400,-8.2500,3.3750,-8.8750,-7.4375,94.0625,0.0000,116.8125,
2025-03-09 20:21:47.539,-1.2200,-9.7100,-0.1600,-10.1875,3.4375,-0.5625,-7.4375,94.1875,0.0000,116.8125,
2025-03-09 20:21:47.548,-1.8800,-9.1200,-0.6900,-4.0625,6.9375,-1.0625,-7.3750,94.2500,0.0000,116.9375,
2025-03-09 20:21:47.555,-1.6500,-8.6100,-0.6500,0.2500,8.3750,-1.8750,-7.3750,94.2500,0.0000,117.1875,
2025-03-09 20:21:47.564,-2.0300,-8.6400,-0.6800,4.3750,4.8750,-8.3750,-7.3125,94.1875,0.0000,117.3750,
2025-03-09 20:21:47.585,-2.1800,-8.7200,-0.8300,5.8750,2.6250,-12.8125,-7.1875,94.1250,0.0000,117.5000,
2025-03-09 20:21:47.596,-1.5900,-8.8200,-0.4800,2.3125,0.5625,-14.1250,-7.0000,94.1250,0.0000,117.6250,
2025-03-09 20:21:47.596,-1.8800,-9.5600,-0.6500,0.8125,-1.1875,-19.5000,-6.8125,94.1250,0.0000,117.8125,
2025-03-09 20:21:47.609,-1.9000,-9.8600,-0.7600,-0.5625,-0.6250,-17.8125,-6.6875,94.1250,0.0000,118.3750,
2025-03-09 20:21:47.621,-1.0800,-9.7300,-0.1100,-4.5625,-1.0625,-7.8125,-6.6250,94.1875,0.0000,118.4375,
2025-03-09 20:21:47.627,-1.5300,-9.7400,-0.2300,-2.9375,-2.3750,-5.6250,-6.5625,94.1875,0.0000,118.4375,
2025-03-09 20:21:47.647,-1.5100,-9.3900,-0.4400,0.1875,2.0625,-5.3750,-6.5000,94.1875,0.0000,118.5000,
2025-03-09 20:21:47.647,-1.6500,-9.1900,-0.5800,2.0625,5.0000,-4.9375,-6.4375,94.1875,0.0000,118.6250,
2025-03-09 20:21:47.658,-1.7200,-8.7700,-0.5300,3.8125,3.6250,-9.1250,-6.3750,94.1250,0.0000,118.8750,
2025-03-09 20:21:47.670,-1.6600,-8.7400,-0.3700,3.3750,1.9375,-12.7500,-6.2500,94.1250,0.0000,119.0625,
2025-03-09 20:21:47.678,-1.6000,-8.7600,-0.3800,1.8750,1.4375,-18.5625,-6.0625,94.0625,0.0000,119.2500,
2025-03-09 20:21:47.689,-1.4100,-8.7700,-0.3100,-0.9375,2.0625,-24.0625,-5.8125,94.1250,0.0000,119.5000,
2025-03-09 20:21:47.709,-1.3800,-8.8500,-0.3300,-3.2500,2.6875,-29.4375,-5.5000,94.1250,0.0000,119.8125,
2025-03-09 20:21:47.709,-1.1400,-8.9500,-0.2400,-4.9375,2.8125,-36.6250,-5.1875,94.1875,0.0000,120.1875,
2025-03-09 20:21:47.709,-1.1300,-9.0000,-0.1200,-5.9375,2.6875,-46.0625,-4.6875,94.2500,0.0000,120.6875,
2025-03-09 20:21:47.730,-1.1900,-8.9500,-0.3900,-5.6875,4.3125,-57.0625,-4.1875,94.3125,0.0000,121.2500,
2025-03-09 20:21:47.741,-1.3400,-8.6800,-0.5100,-3.3125,7.0625,-68.0000,-3.5000,94.3125,0.0000,122.0000,
2025-03-09 20:21:47.784,-1.4000,-8.4800,-0.6600,-1.7500,6.2500,-82.0000,-2.6875,94.3125,0.0000,122.8750,
2025-03-09 20:21:47.784,-1.2900,-8.3700,-0.7700,-3.3125,4.0000,-98.8750,-1.7500,94.3750,0.0000,124.0000,
2025-03-09 20:21:47.784,-0.2200,-9.3700,-0.6700,-10.1875,1.0000,-113.0625,-0.6250,94.5000,0.0000,125.0625,
2025-03-09 20:21:47.784,0.2700,-10.5300,-0.7400,-15.3125,-0.3125,-121.6875,0.4375,94.6250,0.0000,126.2500,
2025-03-09 20:21:47.790,0.1200,-11.4400,-0.6500,-21.0625,-0.6875,-114.6875,1.5625,94.8125,0.0000,127.3750,
2025-03-09 20:21:47.795,0.4600,-10.0700,-0.4400,-30.3125,1.5000,-95.4375,2.5000,95.1250,0.0000,128.3125,
2025-03-09 20:21:47.805,0.6900,-9.0100,-0.4400,-24.0625,10.0000,-81.8125,3.3125,95.3750,0.0000,129.2500,
2025-03-09 20:21:47.825,0.7300,-8.2200,-0.3700,-7.1875,15.8750,-86.6250,4.1250,95.4375,0.0000,130.2500,
2025-03-09 20:21:47.826,0.3700,-7.9500,-0.5700,12.1875,17.1250,-112.3125,5.2500,95.3125,0.0000,131.5000,
2025-03-09 20:21:47.839,-0.0800,-7.5300,-0.8200,25.3750,16.1250,-143.3750,6.6250,95.0625,0.0000,133.0000,
2025-03-09 20:21:47.857,0.2100,-7.3600,-1.0700,28.8125,12.5000,-173.6875,8.3125,94.7500,0.0000,134.8125,
2025-03-09 20:21:47.857,1.5500,-7.5100,-0.7900,27.8750,6.3125,-197.0000,10.1875,94.5000,0.0000,136.7500,
2025-03-09 20:21:47.868,2.8400,-10.2900,0.1100,25.8125,-2.3750,-214.3125,12.3125,94.3125,0.0000,138.6875,
2025-03-09 20:21:47.877,2.6200,-11.9600,-0.3300,28.1250,-2.1250,-212.3125,14.3125,94.0625,0.0000,140.6875,
2025-03-09 20:21:47.888,2.5600,-11.7400,-1.0600,26.0000,13.6250,-171.7500,16.0000,93.8125,0.0000,142.4375,
2025-03-09 20:21:47.899,2.4600,-10.5100,-1.2400,12.1250,15.3125,-117.6875,17.1250,93.6875,0.0000,143.6875,
2025-03-09 20:21:47.908,2.8500,-7.8000,-0.0500,0.3750,0.6250,-90.3125,18.0000,93.6875,0.0000,144.6250,
2025-03-09 20:21:47.917,3.0400,-7.0500,0.0000,8.0000,-3.1250,-97.1875,18.9375,93.6250,0.0000,145.5000,
2025-03-09 20:21:47.928,2.8000,-6.7100,0.0000,22.6875,-2.6250,-128.1250,20.1875,93.4375,0.0000,146.6250,
2025-03-09 20:21:47.949,2.8000,-6.6300,0.0000,30.8125,-2.9375,-165.6250,21.8125,93.1875,0.0000,148.0625,
2025-03-09 20:21:47.949,3.7100,-7.1100,0.1100,36.5625,1.0000,-204.0000,23.7500,92.8750,0.0000,149.9375,
2025-03-09 20:21:47.954,5.1200,-7.8000,0.3500,45.9375,8.4375,-235.7500,26.0625,92.4375,0.0000,152.0625,
2025-03-09 20:21:47.960,5.4800,-9.4100,0.6600,52.6250,17.1250,-245.6875,28.4375,91.9375,0.0000,154.3750,
2025-03-09 20:21:47.971,4.7700,-11.4700,-1.0300,42.5000,29.5625,-215.3125,30.5000,91.3750,0.0000,156.5000,
2025-03-09 20:21:47.980,4.9700,-10.1000,-1.1700,19.1250,32.9375,-149.6250,32.0000,91.0000,0.0000,158.1250,
2025-03-09 20:21:48.000,5.2500,-8.2900,-0.2200,-1.3125,15.4375,-98.3125,32.9375,90.9375,0.0000,159.2500,
2025-03-09 20:21:48.000,5.3800,-7.1400,0.4200,-7.6875,0.8750,-83.6250,33.7500,91.0000,0.0000,160.1250,
2025-03-09 20:21:48.010,5.2000,-5.7300,0.2800,-2.1250,4.9375,-97.3750,34.6875,91.0000,0.0000,161.0625,
2025-03-09 20:21:48.031,5.0400,-5.6200,0.0000,0.8750,9.4375,-125.9375,35.8750,90.9375,0.0000,162.3750,
2025-03-09 20:21:48.040,4.9700,-6.1600,-0.1000,4.4375,7.5000,-166.3125,37.5000,90.8750,0.0000,164.0000,
2025-03-09 20:21:48.081,6.5500,-8.7200,1.6700,10.9375,5.7500,-199.9375,39.4375,90.7500,0.0000,165.9375,
2025-03-09 20:21:48.081,6.4700,-7.8800,-0.4000,-10.6875,11.1250,-204.8125,41.4375,90.8125,0.0000,168.0625,
2025-03-09 20:21:48.081,6.9900,-8.8600,-0.5800,-11.9375,44.6250,-186.3750,43.2500,90.5625,0.0000,170.2500,
2025-03-09 20:21:48.081,7.5200,-7.7900,-1.5300,-8.6250,41.5625,-146.2500,44.6875,90.2500,0.0000,172.0625,
2025-03-09 20:21:48.091,7.0700,-6.4700,0.8500,9.4375,7.6250,-125.7500,45.8750,90.0625,0.0000,173.2500,
2025-03-09 20:21:48.111,6.7900,-5.6000,0.6500,9.3125,-8.9375,-127.0000,47.1250,90.0625,0.0000,174.3750,
2025-03-09 20:21:48.111,6.4900,-5.0600,0.0300,15.0000,7.8125,-135.7500,48.4375,89.8750,0.0000,175.6250,
2025-03-09 20:21:48.121,5.4700,-4.7100,-0.2100,19.0625,14.6875,-154.1250,49.9375,89.5000,0.0000,177.1250,
2025-03-09 20:21:48.139,5.7500,-5.4100,-0.2600,17.7500,8.5000,-171.7500,51.5625,89.1875,0.0000,178.6875,
2025-03-09 20:21:48.152,6.5700,-6.4100,-0.4900,13.2500,1.0625,-166.4375,53.1875,89.0000,0.0000,180.1875,
2025-03-09 20:21:48.152,7.0300,-6.8600,-0.6700,4.6875,-5.4375,-142.1875,54.5625,89.0000,0.0000,181.5000,
2025-03-09 20:21:48.162,8.0100,-6.0700,-0.0700,-2.0625,-15.7500,-112.0625,55.6250,89.2500,0.0000,182.5000,
2025-03-09 20:21:48.162,8.3900,-4.9300,0.4800,-1.6875,-23.4375,-84.5000,56.5000,89.5625,0.0000,183.2500,
2025-03-09 20:21:48.182,8.2900,-4.0900,0.9000,-1.3750,-23.0625,-72.7500,57.1875,89.9375,0.0000,183.8125,
2025-03-09 20:21:48.183,7.6100,-3.8800,0.3100,1.5625,-15.1875,-82.1250,58.0000,90.1250,0.0000,184.5000,
2025-03-09 20:21:48.196,7.7000,-4.4300,0.1500,4.2500,-5.0625,-103.5000,59.0000,90.1875,0.0000,185.4375,
2025-03-09 20:21:48.208,7.8700,-4.7400,-0.0100,-0.5625,-1.9375,-110.8750,59.0000,90.1875,0.0000,185.4375,
2025-03-09 20:21:48.223,7.8300,-5.0500,-0.1900,-6.6250,-2.1875,-106.8125,60.0625,90.2500,0.0000,186.5000,
2025-03-09 20:21:48.226,8.1000,-4.1500,-0.1900,-10.0000,-1.4375,-101.3750,62.0625,90.5000,0.0000,188.6875,
2025-03-09 20:21:48.244,7.9000,-3.8900,-0.3900,-12.8125,-4.8750,-101.6875,63.0625,90.6875,0.0000,189.7500,
2025-03-09 20:21:48.245,8.5000,-3.0200,-0.0900,-9.7500,-7.6875,-113.0625,64.1250,91.0000,0.0000,190.8750,
2025-03-09 20:21:48.255,8.1600,-3.8700,-0.1700,-5.6250,-14.6875,-130.3750,64.1250,91.0000,0.0000,190.8750,
2025-03-09 20:21:48.266,8.7600,-4.4700,-0.3100,-5.2500,-22.9375,-122.4375,65.3750,91.4375,0.0000,192.0625,
2025-03-09 20:21:48.276,9.1900,-3.7700,-0.2200,-8.0000,-19.5625,-106.8125,67.6250,92.6875,0.0000,194.1875,
2025-03-09 20:21:48.288,9.3400,-2.9600,0.0700,-8.7500,-15.0625,-97.7500,68.5625,93.2500,0.0000,195.1875,
2025-03-09 20:21:48.297,9.2900,-2.7200,-0.1400,-5.3750,-14.0625,-99.0000,69.5000,93.8125,0.0000,196.1250,
2025-03-09 20:21:48.306,9.1700,-3.1600,-0.2200,1.4375,-10.4375,-108.5000,69.5000,93.8125,0.0000,196.1250,
2025-03-09 20:21:48.317,9.3100,-3.5600,-0.3700,2.5625,-11.0000,-112.7500,70.5000,94.2500,0.0000,197.1250,
2025-03-09 20:21:48.326,8.9900,-3.6700,-0.3800,-5.2500,-11.5000,-105.1875,72.6250,95.5000,0.0000,199.1875,
2025-03-09 20:21:48.337,9.5100,-2.6000,-0.5300,-15.8750,-7.6875,-86.5000,73.4375,96.1875,0.0000,200.1875,
2025-03-09 20:21:48.377,9.3900,-2.2100,-0.8400,-19.0000,-6.6250,-77.3125,74.1875,96.8750,0.0000,201.0625,
2025-03-09 20:21:48.377,9.3900,-2.2100,-0.8400,-16.1875,-18.6250,-86.1875,74.1875,96.8750,0.0000,201.0625,
2025-03-09 20:21:48.377,8.3500,-2.2800,-0.2600,-9.8750,-27.6250,-103.0625,75.0000,98.0625,0.0000,201.9375,
2025-03-09 20:21:48.377,8.6900,-1.9300,-0.2800,-4.3750,-26.1250,-106.8125,76.8750,101.6875,0.0000,203.9375,
2025-03-09 20:21:48.387,9.1900,-1.5000,-0.1700,-5.7500,-13.5625,-95.1875,77.7500,103.1875,0.0000,204.9375,
2025-03-09 20:21:48.397,9.8700,-1.2400,-0.2500,-8.5625,-10.6875,-81.3750,78.5000,104.6875,0.0000,205.7500,
2025-03-09 20:21:48.409,9.8700,-1.2400,-0.2500,-6.5000,-16.1250,-78.2500,78.5000,104.6875,0.0000,205.7500,
2025-03-09 20:21:48.421,10.4200,-1.3500,-0.1500,-2.0000,-16.6250,-80.8750,79.1875,106.5000,0.0000,206.5000,
2025-03-09 20:21:48.429,10.2500,-1.4700,-0.3900,5.2500,-13.3750,-85.2500,80.6250,110.9375,0.0000,208.0625,
2025-03-09 20:21:48.439,9.5800,-1.7000,-0.7100,11.7500,-11.7500,-85.8125,81.3125,113.5000,0.0000,208.7500,
2025-03-09 20:21:48.460,9.4500,-1.4300,-0.5400,11.1250,-4.5000,-73.6250,82.0000,115.6875,0.0000,209.3125,
2025-03-09 20:21:48.460,9.5300,-1.1000,-0.5900,2.2500,6.7500,-51.8750,82.0000,115.6875,0.0000,209.3125,
2025-03-09 20:21:48.460,9.5600,-0.9700,-0.6700,2.2500,6.7500,-51.8750,82.4375,116.8750,0.0000,209.6250,
2025-03-09 20:21:48.481,9.1200,-0.4400,-0.9200,2.3125,5.0625,-52.8750,83.3750,174.2500,0.0000,210.5625,
2025-03-09 20:21:48.490,9.1300,-0.5700,-0.8400,20.3750,-15.0000,-63.0000,83.8125,174.8750,0.0000,211.0000,
2025-03-09 20:21:48.490,8.9500,-1.0700,-0.6000,21.6875,-18.7500,-58.4375,84.1875,175.4375,0.0000,211.3125,
2025-03-09 20:21:48.512,8.9500,-1.0700,-0.6000,13.1250,-14.0000,-38.8125,84.1875,175.4375,0.0000,211.3125,
2025-03-09 20:21:48.512,9.5500,-1.4300,-0.6600,3.8750,-7.5625,-22.2500,84.3750,175.8125,0.0000,211.4375,
2025-03-09 20:21:48.521,9.7800,-0.4300,-0.5200,0.3125,-5.0625,-15.1875,84.5000,176.0000,0.0000,211.6250,
2025-03-09 20:21:48.551,9.8400,-0.2200,-0.5000,-0.3125,-2.5000,-15.9375,84.5625,176.1250,0.0000,211.7500,
2025-03-09 20:21:48.551,9.4600,-0.4400,-0.6000,-2.1875,0.0625,-16.6875,84.6875,176.3125,0.0000,211.9375,
2025-03-09 20:21:48.551,9.4600,-0.4400,-0.6000,-4.4375,1.6875,-14.1875,84.7500,176.5000,0.0000,212.0625,
2025-03-09 20:21:48.572,9.6100,-0.4000,-0.6700,-5.8125,1.7500,-15.6250,84.8750,176.6250,0.0000,212.2500,
2025-03-09 20:21:48.572,9.6500,-0.3700,-0.7800,-8.0000,0.3750,-19.1250,85.0000,176.7500,0.0000,212.4375,
2025-03-09 20:21:48.584,9.3600,-0.5600,-0.7700,-11.0625,-1.1250,-15.3750,85.1250,176.9375,0.0000,212.7500,
2025-03-09 20:21:48.603,9.4200,-0.4500,-0.8600,-11.9375,-1.8125,-10.8750,85.1875,177.1250,0.0000,213.0000,
2025-03-09 20:21:48.603,9.4200,-0.4500,-0.8600,-10.1250,-4.3750,-10.3750,85.2500,177.2500,0.0000,213.2500,
2025-03-09 20:21:48.613,9.3600,-0.3900,-0.8200,-10.1250,-4.3750,-10.3750,85.2500,177.3125,0.0000,213.3125,
2025-03-09 20:21:48.685,9.4500,-0.3300,-0.6800,-11.2500,-8.3750,-3.3750,85.2500,177.4375,0.0000,213.5000,
2025-03-09 20:21:48.685,9.6100,-0.0100,-0.5400,-11.8125,-8.1875,-0.1250,85.1875,177.4375,0.0000,213.6250,
2025-03-09 20:21:48.685,9.6100,0.0900,-0.5100,-12.1875,-7.5000,-2.6250,85.1250,177.5000,0.0000,213.7500,
2025-03-09 20:21:48.685,9.6100,0.0900,-0.5100,-13.5625,-7.2500,-4.9375,85.0625,177.5000,0.0000,213.9375,
2025-03-09 20:21:48.685,9.5900,-0.1900,-0.6700,-14.2500,-7.1875,-3.6875,85.0000,177.5625,0.0000,213.9375,
2025-03-09 20:21:48.685,9.6400,0.2200,-0.6300,-13.2500,-6.8125,-8.3125,85.0000,177.6250,0.0000,214.1250,
2025-03-09 20:21:48.685,9.3600,-0.0100,-0.7700,-10.6250,-11.1250,-16.8125,84.9375,177.6875,0.0000,214.3750,
2025-03-09 20:21:48.694,9.4300,-0.3700,-1.0600,-9.0625,-15.1250,-20.6875,84.9375,177.8750,0.0000,214.6250,
2025-03-09 20:21:48.743,9.9800,0.8300,-0.5100,-3.0625,-13.1875,-37.8750,84.8750,178.4375,0.0000,215.2500,
2025-03-09 20:21:48.743,9.4600,-0.1200,-0.9300,3.5000,-37.4375,-33.0000,84.6875,178.8125,0.0000,215.6250,
2025-03-09 20:21:48.743,9.4300,0.0000,-0.8100,3.6875,-37.8125,-25.6250,84.4375,179.1250,0.0000,215.8750,
2025-03-09 20:21:48.749,9.6300,0.1400,-0.5600,3.7500,-29.0000,-17.8125,84.0625,179.3750,0.0000,216.1250,
2025-03-09 20:21:48.769,9.3300,0.0300,-1.0300,4.6875,-14.6875,-10.0625,83.6875,179.6250,0.0000,216.1875,
2025-03-09 20:21:48.779,9.3900,-0.3000,-1.3400,0.2500,-12.2500,7.5625,83.6250,179.6250,0.0000,216.1250,
2025-03-09 20:21:48.789,9.9200,-0.2900,-1.3100,-4.7500,-12.6250,8.0000,83.5000,179.5625,0.0000,216.0625,
2025-03-09 20:21:48.829,10.2200,-0.1300,-1.1700,-9.0000,-11.4375,5.1875,83.2500,179.4375,0.0000,216.1250,
2025-03-09 20:21:48.829,10.4600,0.0400,-0.9700,-12.0625,-8.2500,3.3125,83.1875,179.4375,0.0000,216.1250,
2025-03-09 20:21:48.842,10.3200,0.3200,-0.8100,-18.8125,9.0000,0.6875,83.1250,179.4375,0.0000,216.2500,
2025-03-09 20:21:48.879,9.5500,0.3100,-1.3300,-10.8750,17.6875,-9.6250,83.3750,179.5000,0.0000,216.6875,
2025-03-09 20:21:48.879,9.2300,0.0600,-1.2900,-5.1250,15.5625,-11.9375,83.7500,179.7500,0.0000,217.0625,
2025-03-09 20:21:48.879,8.8800,-0.0800,-1.4000,3.1250,7.1250,-11.1250,83.8750,179.8750,0.0000,217.1875,
2025-03-09 20:21:48.899,9.3000,-0.0500,-1.1100,2.0000,1.1875,-7.8125,83.9375,-179.8750,0.0000,217.3125,
2025-03-09 20:21:48.909,9.4900,0.0900,-0.9400,-1.4375,0.7500,-3.1875,83.9375,-179.8125,0.0000,217.3125,
2025-03-09 20:21:48.929,9.7300,0.3800,-0.9500,-3.0000,1.5000,1.0000,84.0000,-179.8125,0.0000,217.3125,
2025-03-09 20:21:48.990,11.1000,0.3300,-0.8400,-1.5625,2.0000,-5.5625,84.0000,-179.8125,0.0000,217.3750,
2025-03-09 20:21:48.990,10.3700,0.0200,-1.0100,-5.2500,4.1250,-11.3125,84.0625,-179.6250,0.0000,217.5625,
2025-03-09 20:21:48.990,9.3900,0.3300,-1.0100,-1.7500,5.2500,-5.9375,84.1250,-179.5000,0.0000,217.6875,
2025-03-09 20:21:49.000,9.6300,0.3400,-0.9100,-1.4375,4.8750,-4.3750,84.1875,-179.4375,0.0000,217.8125,
2025-03-09 20:21:49.020,9.5000,0.3900,-0.8900,-0.5625,3.5000,-1.0625,84.2500,-179.3750,0.0000,217.8750,
2025-03-09 20:21:49.030,9.5800,0.1200,-0.9800,1.3750,1.2500,3.3125,84.3125,-179.3750,0.0000,217.8750,
2025-03-09 20:21:49.050,9.5400,0.3600,-0.8700,-0.6875,-0.0625,0.5000,84.3125,-179.4375,0.0000,217.8125,
2025-03-09 20:21:49.060,9.5200,0.2400,-0.9500,-2.5625,-1.1875,0.2500,84.3125,-179.4375,0.0000,217.8125,
2025-03-09 20:21:49.080,9.5300,0.2200,-0.9600,-3.2500,-1.4375,0.1875,84.3125,-179.3750,0.0000,217.8750,
2025-03-09 20:21:49.090,9.5200,0.3000,-0.9500,-2.4375,-2.0625,0.4375,84.3125,-179.3750,0.0000,217.9375,
2025-03-09 20:21:49.110,9.5600,0.3600,-0.9300,-1.3750,-2.5625,1.8750,84.2500,-179.3750,0.0000,217.9375,
2025-03-09 20:21:49.110,9.5300,0.3000,-0.9800,-0.6875,-3.2500,3.1875,84.1875,-179.3750,0.0000,217.9375,
2025-03-09 20:21:49.120,9.5000,0.0600,-1.0900,0.2500,-3.1250,3.8125,84.1875,-179.4375,0.0000,217.9375,
2025-03-09 20:21:49.150,9.5200,0.0700,-1.1100,-0.8750,-0.9375,0.2500,84.1250,-179.4375,0.0000,217.8750,
2025-03-09 20:21:49.150,9.5400,0.1100,-1.0500,-0.8750,-0.2500,-1.3125,84.1250,-179.4375,0.0000,217.9375,
2025-03-09 20:21:49.171,9.5200,0.1300,-1.0200,-1.7500,0.6875,-3.4375,84.1250,-179.4375,0.0000,218.0000,
2025-03-09 20:21:49.173,9.5200,0.2400,-1.0000,-2.4375,1.2500,-5.2500,84.1250,-179.3750,0.0000,218.0625,
2025-03-09 20:21:49.181,9.5600,0.3100,-0.9300,-1.4375,0.5000,-4.8125,84.1250,-179.3125,0.0000,218.1250,
2025-03-09 20:21:49.201,9.5400,0.3400,-0.9700,-0.8750,0.0625,-4.0625,84.1250,-179.1875,0.0000,218.2500,
2025-03-09 20:21:49.211,9.4800,-0.3000,-1.7300,0.8125,1.0000,-4.2500,84.1250,-179.1250,0.0000,218.3125,
2025-03-09 20:21:49.232,9.5500,0.7300,-0.4800,1.7500,1.0625,-2.8125,84.1875,-179.0625,0.0000,218.3750,
2025-03-09 20:21:49.282,9.5200,0.2500,-0.9900,-1.0000,0.6875,-3.1250,84.1875,-179.0625,0.0000,218.4375,
2025-03-09 20:21:49.282,9.5400,0.3100,-0.9600,-2.3750,-0.2500,-3.0625,84.1875,-179.0000,0.0000,218.5000,
2025-03-09 20:21:49.282,9.5600,0.3200,-0.9500,-3.0625,-0.8125,-3.0625,84.1875,-178.9375,0.0000,218.5625,
2025-03-09 20:21:49.292,9.5600,0.3100,-1.0000,-0.9375,-1.1250,-2.8125,84.1250,-178.9375,0.0000,218.5625,
2025-03-09 20:21:49.302,9.5400,0.2800,-0.9500,-1.1875,-1.6250,-3.0000,84.1250,-178.8750,0.0000,218.6875,
2025-03-09 20:21:49.322,9.5200,0.2800,-1.0200,-0.6250,-1.9375,-3.1250,84.0625,-178.8125,0.0000,218.6875,
2025-03-09 20:21:49.322,9.5600,0.2700,-0.9800,0.0625,-2.0000,-3.8125,84.0625,-178.7500,0.0000,218.7500,
2025-03-09 20:21:49.352,9.5200,0.3700,-1.0000,-0.2500,-2.1875,-4.5625,84.0000,-178.7500,0.0000,218.8125,
2025-03-09 20:21:49.352,9.5300,0.4000,-1.0000,-0.3125,-3.2500,-4.1875,83.9375,-178.6250,0.0000,218.8750,
2025-03-09 20:21:49.362,9.5900,0.0000,-1.4900,1.3125,-1.8750,-4.6250,83.9375,-178.5625,0.0000,218.6875,
2025-03-09 20:21:49.402,9.5100,0.4100,-1.1700,4.8750,1.8125,-7.7500,83.8750,-178.5000,0.0000,218.6875,
2025-03-09 20:21:49.402,9.5600,0.4600,-0.8500,13.3125,3.8125,-7.7500,83.9375,-178.4375,0.0000,218.6250,
2025-03-09 20:21:49.412,9.5500,0.5000,-0.9700,8.0000,0.5000,-3.6875,83.9375,-178.3750,0.0000,218.5625,
2025-03-09 20:21:49.412,9.5100,0.4400,-0.9400,5.3750,-0.3125,-2.4375,83.8750,-178.3125,0.0000,218.4375,
2025-03-09 20:21:49.444,9.5000,0.5000,-0.8700,4.1875,-1.1250,-1.8125,83.8750,-178.3125,0.0000,218.4375,
2025-03-09 20:21:49.444,9.5600,0.2400,-1.1300,0.6250,-4.3125,0.5625,83.8125,-178.3125,0.0000,218.4375,
2025-03-09 20:21:49.473,9.5200,0.4600,-0.9400,-0.5625,-3.4375,-1.4375,83.7500,-178.3125,0.0000,218.4375,
2025-03-09 20:21:49.473,9.5200,0.4400,-0.9400,-0.6875,-4.4375,-0.6875,83.6875,-178.2500,0.0000,218.5000,
2025-03-09 20:21:49.483,9.5100,0.3900,-1.0400,-0.8750,-4.7500,-0.8750,83.6875,-178.2500,0.0000,218.5000,
2025-03-09 20:21:49.503,9.5200,0.4300,-1.0600,-1.6875,-5.1875,-0.0625,83.5625,-178.2500,0.0000,218.5625,
2025-03-09 20:21:49.513,9.5200,0.4200,-1.0700,-2.6250,-5.1875,0.1250,83.5000,-178.2500,0.0000,218.6250,
2025-03-09 20:21:49.523,9.5600,0.3200,-1.1500,-3.6875,-4.5625,-0.1875,83.4375,-178.2500,0.0000,218.6875,
2025-03-09 20:21:49.533,9.5500,0.2900,-1.2100,-3.7500,-3.3125,-0.9375,83.4375,-178.1875,0.0000,218.6875,
2025-03-09 20:21:49.583,9.5100,0.4100,-1.0300,-5.3750,-4.0000,0.0625,83.3750,-178.1875,0.0000,218.8750,
2025-03-09 20:21:49.583,9.5400,0.3400,-1.0400,-4.1250,-5.0000,0.8125,83.3125,-178.1875,0.0000,218.8750,
2025-03-09 20:21:49.593,9.5400,0.4600,-1.0600,-5.0625,-5.8125,0.1875,83.2500,-178.1875,0.0000,218.9375,
2025-03-09 20:21:49.593,9.5100,0.4200,-1.1800,-4.5000,-6.1875,0.6875,83.1875,-178.1875,0.0000,219.0000,
2025-03-09 20:21:49.593,9.5200,0.4400,-1.2100,-3.8750,-5.8750,1.1875,83.1250,-178.1875,0.0000,219.0625,
2025-03-09 20:21:49.603,9.5200,0.5000,-1.1600,-5.6250,-4.9375,1.2500,83.1250,-164.6875,0.0000,219.1250,
2025-03-09 20:21:49.613,9.5200,0.4500,-1.2400,-6.3125,-4.1875,2.1250,83.0625,-164.8750,0.0000,219.2500,
2025-03-09 20:21:49.623,9.5400,0.4000,-1.2100,-4.6875,-2.7500,2.1875,83.0625,-165.0000,0.0000,219.2500,
2025-03-09 20:21:49.643,9.5200,0.4300,-1.1500,-2.0625,-1.6875,2.1250,83.0000,-165.1875,0.0000,219.2500,
2025-03-09 20:21:49.654,9.5300,0.4000,-1.1300,-0.3750,-1.3125,2.3125,83.0000,-165.3125,0.0000,219.2500,
2025-03-09 20:21:49.664,9.5200,0.4100,-1.2400,0.1250,0.0625,0.4375,83.0000,-165.5000,0.0000,219.3750,
2025-03-09 20:21:49.682,9.5200,0.4500,-1.1400,0.6250,1.1875,-0.5000,83.0000,-165.4375,0.0000,219.3750,
2025-03-09 20:21:49.686,9.5200,0.4300,-1.1600,0.3125,1.3750,0.0000,83.0000,-165.3750,0.0000,219.3750,
2025-03-09 20:21:49.715,9.5300,0.3800,-1.2500,-0.0625,0.8125,2.0000,83.0625,-165.5000,0.0000,219.3125,
2025-03-09 20:21:49.735,9.5100,0.3200,-1.2400,-0.8125,1.8750,2.1250,83.0625,-165.6250,0.0000,219.3750,
2025-03-09 20:21:49.735,9.5400,0.2700,-1.2600,-1.0000,3.3125,1.1250,83.0625,-165.6250,0.0000,219.3750,
2025-03-09 20:21:49.745,9.5800,0.2300,-1.2600,0.5625,5.2500,-0.8125,83.1250,-178.2500,0.0000,219.3750,
2025-03-09 20:21:49.745,9.5600,0.2200,-1.2400,2.3125,7.3750,-3.0625,83.1875,-178.2500,0.0000,219.3750,
2025-03-09 20:21:49.755,9.5700,0.2900,-1.1500,4.3750,9.4375,-5.3125,83.2500,-178.1875,0.0000,219.3750,
2025-03-09 20:21:49.765,9.5600,0.3800,-1.1200,5.5000,10.5000,-7.0000,83.3125,-178.1250,0.0000,219.4375,
2025-03-09 20:21:49.775,9.4900,0.5700,-1.0500,6.6875,11.8125,-8.5000,83.4375,-178.0625,0.0000,219.4375,
2025-03-09 20:21:49.785,9.4600,0.7600,-0.9400,7.5625,11.8750,-7.3125,83.5000,-178.0000,0.0000,219.4375,
2025-03-09 20:21:49.815,9.4700,0.8200,-0.9300,6.2500,10.1250,-3.3750,83.6250,-177.9375,0.0000,219.3750,
2025-03-09 20:21:49.815,9.5400,0.4500,-1.0200,0.0625,7.5000,3.4375,83.7500,-178.0000,0.0000,219.3750,
2025-03-09 20:21:49.835,9.5800,0.3100,-1.0800,-0.1875,7.8750,4.0625,83.8125,-178.0625,0.0000,219.3125,
2025-03-09 20:21:49.835,9.5600,0.4100,-1.0100,0.6250,9.5000,2.6250,83.9375,-178.0625,0.0000,219.3125,
2025-03-09 20:21:49.875,9.5300,0.4700,-0.9200,2.3125,11.1250,1.3125,84.0625,-178.0625,0.0000,219.2500,
2025-03-09 20:21:49.885,9.5500,0.4800,-0.8900,4.6250,12.0625,1.4375,84.1875,-178.1250,0.0000,219.1875,
2025-03-09 20:21:49.885,9.5400,0.5200,-0.8800,4.5000,12.2500,2.3750,84.2500,-178.1250,0.0000,219.1250,
2025-03-09 20:21:49.885,9.8200,0.3300,-0.1700,6.5625,14.1250,4.3750,84.4375,-178.1875,0.0000,219.0000,
2025-03-09 20:21:49.885,9.8800,0.6200,0.0300,8.6875,32.0000,8.9375,84.7500,-178.2500,0.0000,218.8125,
2025-03-09 20:21:49.895,9.5400,0.6700,-0.3600,10.6250,64.8750,12.1250,85.3750,-178.3750,0.0000,218.5625,
2025-03-09 20:21:49.905,9.4700,0.5600,-0.4400,11.1250,80.7500,13.8125,86.1250,-178.5625,0.0000,218.3125,
2025-03-09 20:21:49.925,9.3700,0.4700,-0.4100,9.1250,89.0625,13.4375,87.0000,-178.6875,0.0000,218.0000,
2025-03-09 20:21:49.925,9.5100,0.3900,-0.5400,7.6875,84.4375,14.7500,87.7500,-178.8125,0.0000,217.8125,
2025-03-09 20:21:49.935,9.4500,0.2900,-0.4600,7.7500,71.4375,14.0000,88.4375,-178.9375,0.0000,217.5625,
2025-03-09 20:21:49.946,9.5800,0.3100,-0.0500,5.9375,59.8750,13.0000,88.8750,-179.0625,0.0000,217.3750,
2025-03-09 20:21:49.966,9.5800,0.2700,-0.0600,5.1875,53.9375,10.1875,89.1875,-179.1875,0.0000,217.1875,
2025-03-09 20:21:49.976,9.5900,0.3000,0.0000,4.0625,49.7500,5.1875,89.1250,-0.6875,0.0000,217.1250,
2025-03-09 20:21:49.976,9.4900,0.4500,0.3400,0.6875,46.6250,-0.6875,88.8125,-0.6875,0.0000,217.1250,
2025-03-09 20:21:49.986,9.6000,0.2600,0.2100,1.8750,46.5000,-6.0625,88.4375,-0.7500,0.0000,217.1250,
2025-03-09 20:21:49.996,9.6100,0.2300,0.3900,4.3125,45.5625,-8.4375,88.0000,-0.8750,0.0000,217.1875,
2025-03-09 20:21:50.027,9.5100,0.1400,0.5700,7.9375,47.3125,-8.3125,87.5625,-0.9375,0.0000,217.1875,
2025-03-09 20:21:50.027,9.5600,0.0800,0.6800,12.6875,55.4375,-5.8125,87.0625,-1.0000,0.0000,217.1250,
2025-03-09 20:21:50.027,9.5700,0.1100,0.7500,14.1250,63.8125,-3.1875,86.4375,-1.0625,0.0000,217.0000,
2025-03-09 20:21:50.056,9.5500,0.0200,0.8900,14.3750,69.1250,1.1250,85.8125,-1.0625,0.0000,216.8750,
2025-03-09 20:21:50.056,9.7100,0.1300,0.9600,13.6875,74.5000,6.0625,85.1250,-1.0000,0.0000,216.6875,
2025-03-09 20:21:50.056,9.6200,0.2200,1.1400,12.3125,80.2500,6.6875,84.3750,-0.9375,0.0000,216.5000,
2025-03-09 20:21:50.066,9.6000,0.0000,1.1700,10.8750,85.8750,4.9375,83.5625,-0.8750,0.0000,216.3750,
2025-03-09 20:21:50.086,9.6100,0.1500,1.1700,7.5625,90.0625,5.0625,82.6875,-7.0000,0.0000,216.2500,
2025-03-09 20:21:50.086,9.5100,0.3900,1.2900,2.0625,88.3125,5.3125,81.8750,-5.9375,0.0000,216.1875,
2025-03-09 20:21:50.116,9.8700,0.3500,1.4500,-1.3750,81.1250,4.6875,81.0625,-5.1250,0.0000,216.1250,
2025-03-09 20:21:50.116,10.0400,0.4200,1.7300,-6.3125,73.1875,0.3750,80.3750,-4.6875,0.0000,216.1875,
2025-03-09 20:21:50.116,9.9600,0.4900,1.9300,-7.5625,67.5000,-4.2500,79.6875,-4.5625,0.0000,216.2500,
2025-03-09 20:21:50.126,9.9100,0.4500,2.3700,-3.0000,69.1875,-8.5000,79.0625,-4.6875,0.0000,216.3750,
2025-03-09 20:21:50.136,9.5900,0.3900,2.5100,-1.6875,80.3750,-11.0000,78.2500,-4.8750,0.0000,216.4375,
2025-03-09 20:21:50.189,9.6300,0.4500,2.4700,-3.6875,95.5625,-6.4375,77.3125,-4.7500,0.0000,216.5625,
2025-03-09 20:21:50.189,9.6700,0.3200,2.5300,-6.5625,105.6875,-2.2500,76.3125,-4.4375,0.0000,216.6250,
2025-03-09 20:21:50.189,9.6200,0.4800,2.6400,-10.0000,110.9375,-2.5000,75.2500,-4.1250,0.0000,216.7500,
2025-03-09 20:21:50.189,9.3200,0.4600,2.7800,-13.5000,112.6250,-4.1250,74.1250,-3.8750,0.0000,216.8750,
2025-03-09 20:21:50.189,9.2300,0.3200,2.8200,-9.1250,114.5625,-2.8750,73.0625,-3.6250,0.0000,217.0000,
2025-03-09 20:21:50.198,9.3300,0.1600,2.8700,-4.5625,115.8750,-2.1250,71.9375,-3.3750,0.0000,217.0000,
2025-03-09 20:21:50.206,9.2700,0.4900,2.8900,-2.5625,110.7500,-2.9375,70.8750,-3.2500,0.0000,217.0625,
2025-03-09 20:21:50.216,9.4500,0.7000,3.4000,-1.7500,97.5625,-5.7500,69.8750,-3.2500,0.0000,217.1250,
2025-03-09 20:21:50.226,9.5700,0.6000,4.0200,0.2500,91.2500,-14.6875,69.0000,-3.5000,0.0000,217.3125,
2025-03-09 20:21:50.236,9.1800,0.5800,4.3400,2.3125,95.8750,-24.5625,68.0625,-4.0000,0.0000,217.5000,
2025-03-09 20:21:50.256,9.0800,0.4000,4.5500,0.7500,108.9375,-25.9375,67.0000,-4.3750,0.0000,217.6875,
2025-03-09 20:21:50.256,9.2000,0.5000,4.5500,-2.9375,127.1875,-16.2500,65.7500,-4.5000,0.0000,217.8750,
2025-03-09 20:21:50.266,9.2000,0.2200,4.6600,-8.0000,139.7500,-6.5000,64.3750,-4.3750,0.0000,217.9375,
2025-03-09 20:21:50.276,8.7200,0.0200,4.6900,-11.3750,148.4375,0.0000,63.0000,-4.0000,0.0000,218.0000,
2025-03-09 20:21:50.286,8.4800,-0.0400,4.8200,-10.8125,159.6250,8.8750,61.4375,-3.5625,0.0000,217.9375,
2025-03-09 20:21:50.296,8.4700,-0.1400,5.1600,-14.3750,176.7500,22.1875,59.7500,-2.8750,0.0000,217.7500,
2025-03-09 20:21:50.316,8.6200,0.3200,5.2000,-18.7500,195.6875,27.2500,57.8750,-2.1250,0.0000,217.5625,
2025-03-09 20:21:50.316,8.0500,0.5300,5.0600,-12.8750,203.5625,20.6875,55.8750,-1.5625,0.0000,217.4375,
2025-03-09 20:21:50.326,7.7200,0.6000,4.8900,-3.6250,189.1250,13.6250,54.0625,-1.3125,0.0000,217.3125,
2025-03-09 20:21:50.336,7.4300,0.7900,5.8500,4.2500,155.2500,4.3125,52.5625,-1.2500,0.0000,217.1875,
2025-03-09 20:21:50.346,7.3600,0.4700,6.4700,6.1250,128.8125,-5.1875,51.3125,-1.3125,0.0000,217.2500,
2025-03-09 20:21:50.356,7.5300,0.1900,6.1800,10.0000,126.6875,-9.7500,50.0625,-1.5000,0.0000,217.2500,
2025-03-09 20:21:50.366,7.2400,0.0400,6.7900,16.4375,130.1250,-11.1875,48.8125,-1.7500,0.0000,217.4375,
2025-03-09 20:21:50.376,6.4900,0.2700,6.5200,20.6875,147.5000,-8.5625,47.3750,-2.0000,0.0000,217.4375,
2025-03-09 20:21:50.386,6.4200,0.4700,6.6100,17.4375,166.0000,0.2500,45.8125,-2.0625,0.0000,217.3125,
2025-03-09 20:21:50.407,6.4500,0.2400,6.9300,11.6250,178.1875,16.8125,44.0625,-2.0000,0.0000,217.0625,
2025-03-09 20:21:50.407,6.3600,0.0600,6.6400,9.2500,185.3750,26.1250,42.3125,-1.7500,0.0000,216.7500,
2025-03-09 20:21:50.417,6.0900,0.3500,6.6200,8.6250,182.9375,18.4375,40.5000,-1.6250,0.0000,216.5625,
2025-03-09 20:21:50.429,5.9300,0.9000,6.5900,6.1250,154.6875,-0.6250,39.0000,-1.6875,0.0000,216.5000,
2025-03-09 20:21:50.437,5.0600,1.0800,7.5200,11.5625,120.3750,-19.5000,37.8750,-1.8750,0.0000,216.6250,
2025-03-09 20:21:50.479,4.5500,0.9300,7.4100,24.5000,117.8750,-30.1875,36.6875,-2.3125,0.0000,216.8125,
2025-03-09 20:21:50.479,4.3000,0.4600,7.2400,24.3750,128.7500,-37.0000,35.4375,-2.8125,0.0000,217.0625,
2025-03-09 20:21:50.479,5.0000,0.5800,6.6000,20.0000,128.8750,-36.3750,35.4375,-2.8125,0.0000,217.0625,
2025-03-09 20:21:50.479,4.9900,0.2700,7.1900,2.3125,119.8125,-36.4375,33.0000,-3.3750,0.0000,217.6875,
2025-03-09 20:21:50.495,4.1100,-0.1100,8.9900,-8.0000,111.8125,-27.4375,31.9375,-3.4375,0.0000,217.9375,
2025-03-09 20:21:50.498,5.1600,0.6600,7.8500,-15.3125,117.0625,-19.1250,30.7500,-3.3750,0.0000,218.1250,
2025-03-09 20:21:50.508,4.4100,0.0300,9.4600,-13.3125,128.6250,-15.0625,29.5000,-3.3125,0.0000,218.2500,
2025-03-09 20:21:50.518,3.9500,0.2400,8.7500,-6.4375,134.1250,-16.8750,28.1875,-3.2500,0.0000,218.4375,
2025-03-09 20:21:50.528,4.4700,0.6600,7.9700,0.1875,132.6250,-22.4375,26.9375,-3.3125,0.0000,218.5625,
2025-03-09 20:21:50.538,3.3500,0.4400,8.9000,3.8125,121.5000,-24.8125,25.7500,-3.4375,0.0000,218.8125,
2025-03-09 20:21:50.550,3.7100,1.2500,8.7900,9.0000,121.6875,-29.8125,24.5000,-3.6250,0.0000,219.0000,
2025-03-09 20:21:50.559,3.5300,1.1300,9.5200,18.4375,120.4375,-31.1250,23.3750,-3.9375,0.0000,219.2500,
2025-03-09 20:21:50.561,3.6100,1.0500,9.1800,29.1875,120.1250,-39.7500,23.3750,-3.9375,0.0000,219.2500,
2025-03-09 20:21:50.590,3.1600,0.7300,9.1400,37.6250,113.0625,-48.3750,21.0000,-4.8750,0.0000,219.8750,
2025-03-09 20:21:50.590,3.3200,0.3000,8.9900,36.2500,110.4375,-47.1250,19.9375,-5.3125,0.0000,220.2500,
2025-03-09 20:21:50.600,2.0000,0.1900,9.4500,30.0625,116.0625,-39.3750,18.7500,-5.7500,0.0000,220.5000,
2025-03-09 20:21:50.610,2.6900,0.8300,8.7500,17.6250,131.1250,-31.5000,17.5000,-5.9375,0.0000,220.7500,
2025-03-09 20:21:50.620,2.3400,0.8700,10.3500,-0.1875,133.3125,-16.3125,17.5000,-5.9375,0.0000,220.7500,
2025-03-09 20:21:50.623,2.1300,1.3200,10.0700,-2.9375,139.8125,-16.5625,14.8125,-5.9375,0.0000,220.9375,
2025-03-09 20:21:50.641,2.1000,1.3700,9.3400,-1.3125,144.4375,-22.7500,13.3750,-5.9375,0.0000,221.0625,
2025-03-09 20:21:50.648,1.6600,1.2700,9.5000,1.5000,144.6250,-24.4375,12.0000,-6.0000,0.0000,221.2500,
2025-03-09 20:21:50.652,0.4800,0.7800,8.9100,3.9375,149.8750,-29.0000,10.5000,-6.0625,0.0000,221.4375,
2025-03-09 20:21:50.673,1.0200,0.9400,7.7800,2.7500,150.5000,-29.6250,10.5000,-6.0625,0.0000,221.4375,
2025-03-09 20:21:50.673,0.8900,0.9400,8.2500,0.9375,127.6875,-28.0000,9.0000,-6.0625,0.0000,221.6250,
2025-03-09 20:21:50.715,0.8300,0.6800,9.5000,-5.0000,94.8750,-32.1250,6.8125,-6.1250,0.0000,222.1250,
2025-03-09 20:21:50.715,0.5000,0.4700,8.8400,-0.2500,91.5000,-34.1250,5.9375,-6.1250,0.0000,222.3750,
2025-03-09 20:21:50.715,0.2800,0.6300,8.8800,-2.5000,96.3125,-28.6250,4.9375,-6.1250,0.0000,222.6250,
2025-03-09 20:21:50.715,0.0900,0.6200,8.7700,-9.8750,97.3125,-21.1875,4.9375,-6.1250,0.0000,222.6250,
2025-03-09 20:21:50.724,-0.4600,0.6500,9.5400,-21.1875,99.5625,-15.6250,4.0000,-6.0000,0.0000,222.8125,
2025-03-09 20:21:50.775,-0.2900,0.9800,8.6300,-25.1250,108.2500,-15.5625,1.9375,-5.5625,0.0000,223.0000,
2025-03-09 20:21:50.775,-0.4700,1.0100,8.7500,-16.6250,107.1875,-17.2500,0.9375,-5.4375,0.0000,223.1250,
2025-03-09 20:21:50.775,-0.5600,1.1100,8.6200,-8.3750,93.3125,-19.0000,0.0000,-5.3750,0.0000,223.2500,
2025-03-09 20:21:50.775,-0.8400,0.6700,8.8300,-2.7500,77.6875,-23.6875,0.0000,-5.3750,0.0000,223.2500,
2025-03-09 20:21:50.775,-1.0300,0.3100,8.4700,1.6875,69.7500,-25.0625,-0.6875,-5.3125,0.0000,223.4375,
2025-03-09 20:21:50.795,-1.0500,0.2200,8.5900,0.3750,66.8125,-23.8750,-2.0625,-5.3125,0.0000,223.8750,
2025-03-09 20:21:50.797,-1.0100,0.5700,8.9500,-5.0000,63.5000,-19.3125,-2.6875,-5.2500,0.0000,224.0000,
2025-03-09 20:21:50.806,-1.1900,0.5200,8.9100,-3.6250,58.1250,-16.0000,-3.2500,-5.2500,0.0000,224.1250,
2025-03-09 20:21:50.826,-1.2800,0.3800,9.1800,-4.5625,50.7500,-13.1875,-3.2500,-5.2500,0.0000,224.1250,
2025-03-09 20:21:50.826,-1.1900,0.5100,9.3900,-13.8125,47.3750,-7.3750,-3.7500,-5.1875,0.0000,224.2500,
2025-03-09 20:21:50.836,-1.5300,0.3800,8.7800,-15.6875,49.7500,-3.0000,-4.7500,-4.8750,0.0000,224.3125,
2025-03-09 20:21:50.857,-1.4400,0.3900,9.1100,-21.4375,50.0000,0.3125,-5.1875,-4.6875,0.0000,224.2500,
2025-03-09 20:21:50.857,-1.3700,0.4300,9.3200,-32.3750,48.6250,6.4375,-5.6875,-4.3750,0.0000,224.1875,
2025-03-09 20:21:50.869,-1.3700,0.4300,9.3200,-31.0000,49.5000,5.6250,-5.6875,-4.3750,0.0000,224.1875,
2025-03-09 20:21:50.877,-1.4700,0.4800,9.2900,-26.6875,48.4375,4.7500,-6.1250,-4.0625,0.0000,224.0625,
2025-03-09 20:21:50.887,-1.5800,0.5900,9.5200,-12.2500,46.0625,0.5000,-7.0625,-3.7500,0.0000,224.0000,
2025-03-09 20:21:50.897,-1.8200,0.3300,8.9300,5.6250,45.0625,-5.7500,-7.0625,-3.7500,0.0000,224.0000,
2025-03-09 20:21:50.907,-1.8100,0.4400,9.0700,9.6250,42.8125,-6.5000,-7.9375,-3.8750,0.0000,224.0625,
2025-03-09 20:21:50.918,-1.8100,0.4400,9.0700,7.3125,36.4375,-5.6250,-7.9375,-3.8750,0.0000,224.0625,
2025-03-09 20:21:50.928,-2.0000,0.5600,9.1900,2.2500,33.5625,-3.8125,-8.2500,-3.9375,0.0000,224.1250,
2025-03-09 20:21:50.938,-2.0700,0.7000,9.2900,-8.0000,33.6875,0.8125,-8.5625,-3.9375,0.0000,224.1875,
2025-03-09 20:21:50.948,-2.0700,0.6600,9.2600,-10.8750,34.0000,1.5625,-8.9375,-3.8750,0.0000,224.1250,
2025-03-09 20:21:50.958,-2.0700,0.5600,9.3100,-6.5625,30.3125,0.4375,-9.2500,-3.8125,0.0000,224.1250,
2025-03-09 20:21:50.969,-2.0700,0.5600,9.3100,0.3125,27.3750,-3.2500,-9.5625,-3.7500,0.0000,224.0625,
2025-03-09 20:21:50.978,-2.2100,0.6900,9.2100,7.6875,25.6875,-6.3750,-9.8125,-3.6875,0.0000,224.6875,
2025-03-09 20:21:50.990,-2.4700,0.4100,8.6700,8.6875,22.5000,-7.5000,-10.1250,-3.8125,0.0000,224.7500,
2025-03-09 20:21:50.998,-2.4700,0.5400,8.6400,2.6875,18.9375,-5.0625,-10.3750,-3.8750,0.0000,224.8125,
2025-03-09 20:21:51.008,-2.3500,0.6700,9.0800,-2.2500,13.3125,-1.7500,-10.5625,-3.8750,0.0000,224.8750,
2025-03-09 20:21:51.019,-2.3500,0.6700,9.0800,-2.2500,13.3125,-1.7500,-10.6875,-3.8750,0.0000,224.8750,
2025-03-09 20:21:51.040,-2.2100,0.4500,9.4800,-4.5625,8.4375,-1.0000,-10.7500,-3.8125,0.0000,225.3125,
2025-03-09 20:21:51.040,-2.5200,0.2600,8.5300,7.7500,11.3125,-5.8125,-10.8750,-3.8125,0.0000,225.3750,
2025-03-09 20:21:51.080,-2.4700,0.4500,8.7400,7.8750,7.1250,-4.5000,-11.0625,-3.8125,0.0000,225.4375,
2025-03-09 20:21:51.081,-2.2400,0.5600,9.5000,2.4375,0.3125,-0.6875,-11.2500,-3.8750,0.0000,225.5000,
2025-03-09 20:21:51.081,-2.2400,0.5600,9.5000,-3.7500,-3.7500,2.0000,-11.3125,-3.8750,0.0000,225.5000,
2025-03-09 20:21:51.081,-2.3000,0.7700,9.5300,-1.7500,-1.5625,2.6250,-11.3125,-3.8750,0.0000,225.4375,
2025-03-09 20:21:51.091,-2.5300,0.5500,8.6400,-0.8125,-0.2500,3.0000,-11.3125,-3.8125,0.0000,225.4375,
2025-03-09 20:21:51.091,-2.4900,0.6000,8.6700,-0.2500,-2.7500,2.4375,-11.3125,-3.8125,0.0000,225.4375,
2025-03-09 20:21:51.111,-2.3100,0.4800,9.0600,-1.0000,-8.3750,1.6250,-11.3125,-3.8125,0.0000,225.3750,
2025-03-09 20:21:51.132,-2.2300,0.5400,9.3500,1.3125,-12.1875,-1.8125,-11.0625,-3.8125,0.0000,225.3750,
2025-03-09 20:21:51.141,-2.0100,0.3100,9.3500,0.6875,-12.6250,-1.9375,-10.9375,-3.8125,0.0000,225.3750,
2025-03-09 20:21:51.152,-2.0500,0.3100,9.2500,-1.8750,-13.3750,-0.8750,-10.8750,-3.8125,0.0000,225.4375,
2025-03-09 20:21:51.162,-1.9000,0.2400,9.3300,-2.1250,-13.5625,-0.5000,-10.5625,-3.8125,0.0000,225.4375,
2025-03-09 20:21:51.172,-1.9700,0.2800,9.2000,-2.8125,-15.5000,1.0625,-10.4375,-3.7500,0.0000,225.9375,
2025-03-09 20:21:51.192,-2.0100,0.1900,8.9800,1.0000,-18.1875,-2.5625,-10.2500,-3.7500,0.0000,225.9375,
2025-03-09 20:21:51.215,-1.9900,-0.0600,8.5900,-3.5000,-28.6250,1.0625,-9.9375,-3.6875,0.0000,226.0000,
2025-03-09 20:21:51.233,-2.0600,0.0300,8.4000,-7.3750,-37.0625,6.4375,-9.3125,-3.6250,0.0000,226.5625,
2025-03-09 20:21:51.245,-1.4600,0.6400,9.6200,-22.1250,-58.5625,13.0625,-8.8125,-3.5000,0.0000,226.4375,
2025-03-09 20:21:51.255,-1.1300,0.8600,10.4000,-16.1250,-72.4375,0.3750,-7.5625,-3.0625,0.0000,226.1875,
2025-03-09 20:21:51.285,-1.2400,0.3800,9.6300,-7.1250,-62.4375,-12.8125,-6.2500,-2.8125,0.0000,226.8125,
2025-03-09 20:21:51.295,-1.1900,0.1000,9.0300,-12.2500,-61.4375,-13.4375,-5.6875,-2.7500,0.0000,226.9375,
2025-03-09 20:21:51.306,-1.1300,0.0000,8.3300,-13.0000,-81.3750,-7.0625,-4.3750,-2.4375,0.0000,227.1875,
2025-03-09 20:21:51.327,-0.9100,0.1400,8.5300,-14.9375,-93.5625,-3.8750,-2.6875,-2.1875,0.0000,227.8125,
2025-03-09 20:21:51.337,-0.7200,0.4500,8.8400,-14.9375,-109.3125,-1.6875,-1.8125,-2.0000,0.0000,227.8125,
2025-03-09 20:21:51.377,-0.7600,0.4100,8.3600,-9.0000,-114.6250,6.5000,0.2500,-1.8125,0.0000,227.8750,
2025-03-09 20:21:51.377,1.1000,1.0600,11.0300,-21.2500,-123.4375,8.9375,2.5625,-1.5000,0.0000,228.0000,
2025-03-09 20:21:51.387,0.9400,0.5300,10.5800,18.6250,-103.3125,-20.8125,3.7500,-1.4375,0.0000,228.1250,
2025-03-09 20:21:51.407,0.3100,-0.4000,7.8200,35.0625,-86.0625,-18.2500,5.5625,-2.0000,0.0000,228.5625,
2025-03-09 20:21:51.427,0.2500,-0.6000,7.2100,29.3125,-94.8750,-9.1875,7.3125,-2.6250,0.0000,229.0000,
2025-03-09 20:21:51.438,0.6100,-0.8000,6.7800,9.6250,-136.0625,17.0000,8.4375,-2.8750,0.0000,229.0000,
2025-03-09 20:21:51.460,1.6600,0.6600,8.3700,-0.8750,-177.1875,24.6875,11.3125,-2.8750,0.0000,228.6250,
2025-03-09 20:21:51.480,2.9100,2.1100,10.1800,2.9375,-189.0625,6.8750,14.8750,-2.8750,0.0000,228.4375,
2025-03-09 20:21:51.490,3.1300,1.2200,10.3700,8.3750,-163.8125,-22.3125,16.6250,-3.0000,0.0000,228.6250,
2025-03-09 20:21:51.511,4.2000,0.2700,10.0800,28.8125,-116.5625,-10.3750,19.5625,-3.4375,0.0000,229.1250,
2025-03-09 20:21:51.531,3.3300,-0.6600,7.2300,26.4375,-99.1875,7.1875,21.6250,-4.0625,0.0000,229.4375,
2025-03-09 20:21:51.541,2.5400,-0.0700,6.5200,4.5000,-138.9375,4.8750,22.6875,-4.2500,0.0000,229.3125,
2025-03-09 20:21:51.562,4.2400,1.3500,7.8000,-23.2500,-220.8125,12.7500,25.7500,-4.3125,0.0000,229.3125,
2025-03-09 20:21:51.572,6.5700,2.1100,10.5100,-24.3750,-235.3125,-4.6250,30.1875,-4.0000,0.0000,229.5000,
2025-03-09 20:21:51.584,6.4100,1.1900,10.6500,9.8750,-134.8125,-25.8125,32.1250,-4.1875,0.0000,229.8750,
2025-03-09 20:21:51.608,5.1000,-0.1800,7.2200,14.8750,-92.3750,10.4375,34.2500,-4.6875,0.0000,230.1250,
2025-03-09 20:21:51.633,6.2100,0.6500,6.4400,8.2500,-114.2500,-5.1250,36.2500,-5.0000,0.0000,230.1875,
2025-03-09 20:21:51.634,5.1400,-0.0600,7.0100,10.9375,-141.3125,32.0000,37.5625,-5.3125,0.0000,230.2500,
2025-03-09 20:21:51.675,6.4200,1.1600,7.8300,-3.8125,-131.4375,26.8750,40.2500,-5.0000,0.0000,229.6250,
2025-03-09 20:21:51.675,6.9600,0.9500,8.0000,1.0625,-143.5625,4.0000,42.9375,-4.9375,0.0000,229.5000,
2025-03-09 20:21:51.686,6.2900,0.7100,7.6300,15.6875,-123.1250,8.8125,44.1250,-5.0625,0.0000,229.3750,
2025-03-09 20:21:51.707,6.4900,0.4200,5.6100,24.5000,-134.1250,11.6875,46.1875,-5.4375,0.0000,229.0000,
2025-03-09 20:21:51.727,8.1600,0.3000,6.4700,27.3750,-146.5625,7.9375,48.9375,-6.0000,0.0000,228.6875,
2025-03-09 20:21:51.737,8.1000,0.5500,6.3900,21.3125,-117.0625,23.1875,50.2500,-6.1875,0.0000,228.3750,
2025-03-09 20:21:51.760,7.2900,0.9200,4.9300,3.2500,-139.0625,4.6875,52.5625,-6.3125,0.0000,227.8750,
2025-03-09 20:21:51.781,6.8400,0.2400,5.9000,11.9375,-147.3750,14.8750,55.3125,-6.6250,0.0000,227.6875,
2025-03-09 20:21:51.792,8.0000,0.7800,4.1200,1.8750,-133.2500,26.5000,56.6250,-6.5000,0.0000,227.5000,
2025-03-09 20:21:51.822,8.6700,1.6200,5.7000,7.0000,-149.3750,17.8750,59.4375,-6.5000,0.0000,227.2500,
2025-03-09 20:21:51.822,8.9900,1.5800,4.8000,5.3750,-131.6875,-1.7500,62.0625,-7.0000,0.0000,227.2500,
2025-03-09 20:21:51.833,7.7800,0.6900,4.9700,12.0625,-115.8750,-9.7500,63.1875,-7.6250,0.0000,227.3125,
2025-03-09 20:21:51.854,9.1900,0.0700,3.8400,5.1875,-115.8125,-11.3125,65.3125,-9.0000,0.0000,227.6250,
2025-03-09 20:21:51.875,8.8400,-0.3600,4.2000,-13.0000,-72.3750,6.6250,66.2500,-9.1875,0.0000,227.6875,
2025-03-09 20:21:51.894,7.3100,1.1900,2.7300,-19.6250,-78.1250,6.3750,67.6875,-9.1250,0.0000,227.6875,
2025-03-09 20:21:51.904,8.0900,0.7300,4.2800,-5.1250,-123.5625,-5.6250,69.8750,-10.1875,0.0000,228.1250,
2025-03-09 20:21:51.924,8.9500,0.1700,2.5700,-1.9375,-89.9375,-8.5625,71.7500,-11.6250,0.0000,228.3750,
2025-03-09 20:21:51.998,9.5500,0.7200,3.0300,-3.2500,-80.5625,-0.5000,72.5000,-12.1250,0.0000,228.4375,
2025-03-09 20:21:51.998,9.3500,1.0600,0.9900,1.5625,-80.0000,-15.0625,73.8750,-13.9375,0.0000,228.7500,
2025-03-09 20:21:51.998,8.4900,0.5200,2.7100,1.9375,-79.9375,-6.3750,75.5000,-16.3750,0.0000,229.0000,
2025-03-09 20:21:51.998,9.7300,1.1000,2.3500,-4.7500,-67.9375,-4.8750,76.1250,-17.2500,0.0000,229.1250,
2025-03-09 20:21:52.029,9.7300,0.9400,1.8300,3.3750,-51.8750,-12.9375,77.0625,-19.6250,0.0000,229.4375,
2025-03-09 20:21:52.029,9.5200,1.5400,0.3500,-5.1875,-58.6250,-15.5625,77.9375,-22.5000,0.0000,229.8125,
2025-03-09 20:21:52.039,10.1600,0.8200,1.7200,-1.0000,-83.3125,-24.0000,78.5625,-25.1250,0.0000,230.1250,
2025-03-09 20:21:52.061,9.4200,1.0200,0.7000,4.7500,-35.1875,-11.9375,79.2500,-28.8750,0.0000,230.4375,
2025-03-09 20:21:52.081,9.1300,0.7800,1.1500,7.1250,-54.9375,-8.2500,80.0000,-32.5000,0.0000,230.2500,
2025-03-09 20:21:52.081,9.8400,0.9800,0.0800,9.3125,-68.5625,-4.5625,80.5000,-34.9375,0.0000,230.3125,
2025-03-09 20:21:52.101,9.4000,1.2700,0.5400,-4.2500,-78.0625,-18.5000,81.0000,-38.5625,0.0000,230.5625,
2025-03-09 20:21:52.121,9.0100,0.4500,2.2000,6.3750,-72.0625,-16.1250,81.8750,-47.8125,0.0000,231.0000,
2025-03-09 20:21:52.122,10.0200,0.9500,1.1900,-2.0625,-50.5625,-8.4375,82.1250,-50.8750,0.0000,230.8750,
2025-03-09 20:21:52.152,9.7500,1.1200,1.1000,-10.5625,-36.3125,-6.5625,82.3125,-53.0625,0.0000,231.0625,
2025-03-09 20:21:52.152,9.8900,1.2500,0.8100,-10.9375,-23.3125,-0.6250,82.4375,-54.3750,0.0000,231.1875,
2025-03-09 20:21:52.152,9.7300,1.1800,0.4100,-8.0000,-17.6875,-0.2500,82.5625,-55.3750,0.0000,231.3125,
2025-03-09 20:21:52.167,9.5200,1.0500,0.3100,-3.8125,-18.3125,-0.2500,82.6250,-56.4375,0.0000,231.3750,
2025-03-09 20:21:52.177,9.2400,1.0900,0.2400,0.4375,-18.0000,-3.0000,82.6875,-57.6875,0.0000,231.1250,
2025-03-09 20:21:52.185,9.3300,1.0600,0.2300,4.0625,-18.7500,-4.6875,82.7500,-59.1875,0.0000,231.1875,
2025-03-09 20:21:52.204,9.3900,1.0800,0.2500,5.0625,-21.0000,-3.7500,82.8125,-60.7500,0.0000,231.1875,
2025-03-09 20:21:52.204,9.6300,1.1200,0.3600,6.1250,-20.1250,-3.4375,82.8750,-62.3125,0.0000,231.1875,
2025-03-09 20:21:52.213,9.8900,1.1000,0.3000,7.9375,-18.4375,-3.5625,82.9375,-63.8125,0.0000,231.1250,
2025-03-09 20:21:52.234,9.8700,0.8900,0.2100,7.8750,-17.9375,-1.6875,83.0000,-65.2500,0.0000,230.8750,
2025-03-09 20:21:52.237,9.4700,1.1600,0.1900,3.6875,-15.5625,2.3125,83.0625,-66.3125,0.0000,230.8125,
2025-03-09 20:21:52.275,9.4100,1.2600,0.0700,1.4375,-13.2500,3.5625,83.1875,-6.2500,0.0000,230.8125,
2025-03-09 20:21:52.275,9.3100,1.2400,0.0200,3.1250,-15.1875,0.7500,83.2500,-6.2500,0.0000,230.8125,
2025-03-09 20:21:52.275,9.2400,1.2300,-0.0100,7.7500,-19.5000,-3.0000,83.2500,-6.2500,0.0000,230.7500,
2025-03-09 20:21:52.275,9.3400,1.0000,0.0000,10.6250,-24.3750,-3.4375,83.3125,-6.3125,0.0000,230.6875,
2025-03-09 20:21:52.285,9.5200,0.9900,0.0600,8.8125,-28.6875,1.0625,83.3750,-6.3125,0.0000,230.6250,
2025-03-09 20:21:52.295,9.5600,1.1300,0.1500,5.0625,-29.0625,4.8750,83.5000,-6.2500,0.0000,230.5000,
2025-03-09 20:21:52.305,9.5900,1.3600,0.0300,5.2500,-27.1875,4.9375,83.6250,-6.2500,0.0000,230.4375,
2025-03-09 20:21:52.325,9.5000,1.4300,-0.1500,7.2500,-27.3125,1.9375,83.6250,-6.1875,0.0000,230.4375,
2025-03-09 20:21:52.325,9.2500,1.8000,-0.4300,1.1250,-35.8750,-7.5000,83.6250,-6.3125,0.0000,230.2500,
2025-03-09 20:21:52.335,9.7300,1.2700,-0.4900,14.4375,-51.1250,-7.8750,83.5625,-6.3750,0.0000,230.2500,
2025-03-09 20:21:52.355,9.5500,1.3500,0.4500,13.0625,-40.5625,-3.1875,83.5000,-173.5625,0.0000,230.1875,
2025-03-09 20:21:52.355,9.8800,1.6900,-0.3300,9.0625,-15.3125,-2.4375,83.5000,-173.5000,0.0000,230.1250,
2025-03-09 20:21:52.365,10.0400,1.5100,-0.2800,7.6250,-16.1875,-3.4375,83.4375,-173.5000,0.0000,230.1250,
2025-03-09 20:21:52.375,9.3400,1.3000,-0.9100,-1.5000,-18.2500,-2.9375,83.3750,-173.4375,0.0000,230.1875,
2025-03-09 20:21:52.395,9.3600,1.2700,-0.4000,-7.7500,-15.1875,0.3125,83.3750,-173.4375,0.0000,230.2500,
2025-03-09 20:21:52.395,9.5600,0.8700,-0.8700,2.7500,-8.3125,2.1875,83.3750,-173.5000,0.0000,230.1875,
2025-03-09 20:21:52.405,9.4300,1.2400,-0.5600,-0.6250,-6.4375,0.5625,83.3750,-173.5000,0.0000,230.2500,
2025-03-09 20:21:52.415,9.4700,1.3500,-0.4900,0.1250,-3.6250,0.7500,83.3750,-173.5000,0.0000,230.2500,
2025-03-09 20:21:52.425,9.5700,1.1200,-0.5800,3.2500,-0.6875,2.0625,83.3750,-173.5000,0.0000,230.1875,
2025-03-09 20:21:52.446,9.5300,1.0100,-0.5400,3.7500,1.2500,2.4375,83.4375,-173.5000,0.0000,230.1250,
2025-03-09 20:21:52.450,9.5900,1.1500,-0.4500,4.6875,2.6875,1.3750,83.4375,-173.5625,0.0000,230.0625,
2025-03-09 20:21:52.456,9.5200,1.1100,-0.3700,7.0000,3.5000,1.3750,83.4375,-173.5625,0.0000,229.9375,
2025-03-09 20:21:52.466,9.4800,1.1500,-0.3900,8.7500,3.6250,1.1875,83.4375,-173.5625,0.0000,229.8750,
2025-03-09 20:21:52.476,9.4800,1.2000,-0.4200,8.9375,3.0000,1.3125,83.4375,-173.5625,0.0000,229.7500,
2025-03-09 20:21:52.486,9.4700,1.2000,-0.3700,6.0625,1.6250,1.8750,83.5000,-173.5625,0.0000,229.6875,
2025-03-09 20:21:52.506,9.4700,1.2700,-0.3300,3.1875,0.1250,2.8125,83.5000,-173.6250,0.0000,229.6250,
2025-03-09 20:21:52.506,9.4400,1.2800,-0.3300,1.4375,-1.8125,4.1250,83.5000,-173.6250,0.0000,229.5625,
2025-03-09 20:21:52.517,9.5600,1.1800,-0.4000,0.7500,-3.2500,6.0000,83.5625,-173.6875,0.0000,229.5000,
2025-03-09 20:21:52.531,9.5300,1.1300,-0.4500,1.0000,-3.6875,7.2500,83.6250,-173.7500,0.0000,229.3125,
2025-03-09 20:21:52.537,9.5200,1.0200,-0.4900,1.8750,-3.3125,8.0000,83.6875,-173.8125,0.0000,229.1875,
2025-03-09 20:21:52.578,9.5300,1.0700,-0.4500,2.3750,-2.8125,7.9375,83.7500,-173.8750,0.0000,229.1250,
2025-03-09 20:21:52.578,9.5500,1.0400,-0.4400,2.1250,-2.9375,8.0000,83.8125,-174.0000,0.0000,229.0000,
2025-03-09 20:21:52.578,9.5400,1.0100,-0.4200,1.8750,-3.3125,8.1250,83.8750,-174.0625,0.0000,228.9375,
2025-03-09 20:21:52.578,9.5600,0.9500,-0.4700,2.1250,-3.6250,7.5625,83.9375,-174.1250,0.0000,228.8125,
2025-03-09 20:21:52.599,9.5400,1.0100,-0.4500,2.0000,-3.7500,6.5000,84.0000,-174.1875,0.0000,228.7500,
2025-03-09 20:21:52.599,9.5200,1.0200,-0.5300,3.0000,-3.7500,6.5000,84.0000,-174.2500,0.0000,228.6250,
2025-03-09 20:21:52.613,9.5000,1.0300,-0.5200,4.0000,-3.1875,6.6250,84.0625,-174.3125,0.0000,228.5625,
2025-03-09 20:21:52.670,9.5400,1.0500,-0.4800,5.8125,-2.3125,7.3125,84.1250,-174.3750,0.0000,228.4375,
2025-03-09 20:21:52.670,9.5900,0.8900,-0.5900,7.8750,-1.2500,7.8750,84.1875,-174.4375,0.0000,228.2500,
2025-03-09 20:21:52.670,9.5100,0.9400,-0.5100,8.0625,-0.0625,7.0625,84.2500,-174.5000,0.0000,228.1250,
2025-03-09 20:21:52.670,9.5300,0.9700,-0.4700,8.3750,0.5000,6.2500,84.3125,-174.5625,0.0000,228.0000,
2025-03-09 20:21:52.670,9.5400,1.0000,-0.4800,9.8750,1.1875,6.3750,84.3750,-174.6250,0.0000,227.8125,
2025-03-09 20:21:52.670,9.5600,0.9300,-0.5000,10.8750,1.1875,7.1875,84.4375,-174.6875,0.0000,227.6250,
2025-03-09 20:21:52.681,9.5100,0.9900,-0.4000,8.1875,0.1250,7.8125,84.5000,-174.8125,0.0000,227.5000,
2025-03-09 20:21:52.682,9.6000,0.8800,-0.4600,5.2500,-1.6250,7.9375,84.5625,-174.8750,0.0000,227.3125,
2025-03-09 20:21:52.690,9.6100,0.7600,-0.5600,4.1250,-2.5000,7.7500,84.6250,-174.9375,0.0000,227.2500,
2025-03-09 20:21:52.711,9.5600,0.7700,-0.5400,4.8750,-1.9375,6.8125,84.6875,-175.0000,0.0000,227.1250,
2025-03-09 20:21:52.711,9.5600,0.8200,-0.5200,6.7500,-0.8750,5.3750,84.6875,-175.0625,0.0000,227.0000,
2025-03-09 20:21:52.729,9.5700,0.8200,-0.5700,8.1875,-0.2500,4.7500,84.7500,-175.1250,0.0000,226.8750,
2025-03-09 20:21:52.773,9.5400,0.8200,-0.6000,7.5625,0.1875,4.3125,84.7500,-175.1250,0.0000,226.7500,
2025-03-09 20:21:52.773,9.5100,0.9000,-0.4700,3.9375,-0.2500,3.6875,84.8125,-175.1875,0.0000,226.6875,
2025-03-09 20:21:52.776,9.5700,0.8300,-0.5100,1.2500,-1.2500,3.9375,84.8125,-175.2500,0.0000,226.6250,
2025-03-09 20:21:52.776,9.5000,0.8900,-0.4000,-0.3125,-1.9375,4.1875,84.8750,-175.2500,0.0000,226.5625,
2025-03-09 20:21:52.778,9.5600,0.8700,-0.4600,-1.0625,-2.8125,4.3750,84.8750,-175.3125,0.0000,226.5625,
2025-03-09 20:21:52.788,9.5300,0.8500,-0.5300,-0.8125,-3.6250,5.1250,84.8750,-175.3750,0.0000,226.5625,
2025-03-09 20:21:52.806,9.5100,0.8700,-0.5100,-1.0625,-3.9375,5.5625,84.9375,-175.3750,0.0000,226.5000,
2025-03-09 20:21:52.809,9.5000,0.9000,-0.5200,-1.7500,-4.0625,6.2500,84.9375,-175.4375,0.0000,226.4375,
2025-03-09 20:21:52.818,9.5400,0.8300,-0.5800,-1.2500,-4.1250,7.7500,85.0000,-175.5000,0.0000,226.3750,
2025-03-09 20:21:52.833,9.5600,0.7500,-0.6000,-0.3750,-3.6875,8.4375,85.0625,-175.6250,0.0000,226.3125,
2025-03-09 20:21:52.837,9.5900,0.6700,-0.6400,0.5625,-2.7500,8.5000,85.1250,-175.6875,0.0000,226.2500,
2025-03-09 20:21:52.848,9.5600,0.7300,-0.5600,0.6875,-1.8750,7.4375,85.1875,-175.7500,0.0000,226.1875,
2025-03-09 20:21:52.866,9.5500,0.7400,-0.5500,0.8125,-1.5625,6.7500,85.1875,-175.8125,0.0000,226.1250,
2025-03-09 20:21:52.870,9.5800,0.6700,-0.5800,1.6875,-1.1875,6.8125,85.2500,-175.8750,0.0000,226.0000,
2025-03-09 20:21:52.880,9.6300,0.4400,-0.6900,2.6875,-1.0000,5.9375,85.3125,-175.9375,0.0000,225.9375,
2025-03-09 20:21:52.895,9.5900,0.5700,-0.6200,1.5000,0.4375,2.5000,85.3125,-176.0000,0.0000,225.9375,
2025-03-09 20:21:52.899,9.5700,0.6600,-0.6100,0.4375,1.5000,-0.1875,85.3125,-176.0000,0.0000,225.8750,
2025-03-09 20:21:52.908,9.5500,0.7900,-0.5500,-0.0625,2.2500,-1.5000,85.3125,-175.9375,0.0000,225.9375,
2025-03-09 20:21:52.933,9.5300,0.8000,-0.4900,-0.3125,2.3125,-0.6875,85.3125,-175.9375,0.0000,225.9375,
2025-03-09 20:21:52.933,9.5200,0.7700,-0.4800,-0.3750,1.8750,0.8125,85.3125,-175.9375,0.0000,225.8750,
2025-03-09 20:21:52.938,9.5300,0.7400,-0.4900,-0.5625,1.1875,1.8125,85.3125,-176.0000,0.0000,225.8750,
2025-03-09 20:21:52.953,9.5400,0.7100,-0.5000,-0.8125,0.4375,2.4375,85.3750,-176.0000,0.0000,225.8125,
2025-03-09 20:21:52.953,9.5800,0.6100,-0.5600,-0.6250,-0.3750,3.0000,85.3750,-176.0000,0.0000,225.8125,
2025-03-09 20:21:52.964,9.5600,0.6000,-0.6000,-0.6250,-0.5000,2.3750,85.3750,-176.0625,0.0000,225.8125,
2025-03-09 20:21:52.973,9.5500,0.6900,-0.5600,-1.0000,-0.0625,1.2500,85.3750,-176.0625,0.0000,225.8125,
2025-03-09 20:21:52.985,9.5600,0.6900,-0.6200,-1.3125,0.2500,1.1875,85.4375,-176.0625,0.0000,225.8125,
2025-03-09 20:21:52.996,9.5300,0.7300,-0.5600,-1.5625,0.5625,1.7500,85.4375,-176.0625,0.0000,225.8125,
2025-03-09 20:21:53.015,9.5700,0.6900,-0.5600,-1.5000,0.7500,2.0000,85.4375,-176.1250,0.0000,225.8125,
2025-03-09 20:21:53.015,9.5500,0.6900,-0.5300,-1.3750,1.0000,2.3750,85.4375,-176.1250,0.0000,225.8125,
2025-03-09 20:21:53.027,9.5400,0.6900,-0.5100,-1.0000,1.1875,2.0000,85.4375,-176.1250,0.0000,225.8125,
2025-03-09 20:21:53.069,9.5500,0.6600,-0.5400,-0.7500,1.4375,2.3750,85.5000,-176.1250,0.0000,225.6875,
2025-03-09 20:21:53.069,9.5700,0.6500,-0.5500,-0.6875,1.1875,2.0625,85.5000,-176.1875,0.0000,225.6875,
2025-03-09 20:21:53.069,9.5600,0.6700,-0.5400,-0.7500,1.3125,1.7500,85.5625,-176.1875,0.0000,225.6875,
2025-03-09 20:21:53.069,9.5700,0.6800,-0.5400,-0.4375,1.6250,1.3750,85.5625,-176.1875,0.0000,225.6250,
2025-03-09 20:21:53.078,9.5800,0.6300,-0.5900,0.1250,1.9375,1.3750,85.5625,-176.1875,0.0000,225.6250,
2025-03-09 20:21:53.088,9.5800,0.6600,-0.5500,0.4375,2.7500,0.6875,85.5625,-176.1875,0.0000,225.6250,
2025-03-09 20:21:53.098,9.5200,0.7400,-0.4900,0.3125,3.5625,-0.5625,85.5625,-176.2500,0.0000,225.6250,
2025-03-09 20:21:53.109,9.5100,0.7100,-0.4000,-0.2500,3.3125,-0.5625,85.6250,-176.2500,0.0000,225.6250,
2025-03-09 20:21:53.119,9.5300,0.7100,-0.4200,-0.6250,2.1250,0.2500,85.6250,-176.1875,0.0000,225.6250,
2025-03-09 20:21:53.128,9.5600,0.6400,-0.4500,-0.7500,1.0625,0.7500,85.6250,-176.1875,0.0000,225.6250,
2025-03-09 20:21:53.172,9.5800,0.6300,-0.4400,-0.6250,0.3750,0.6875,85.6250,-176.2500,0.0000,225.6875,
2025-03-09 20:21:53.172,9.5400,0.6100,-0.4800,-0.3125,-0.6250,0.4375,85.6250,-176.2500,0.0000,225.6875,
2025-03-09 20:21:53.172,9.5400,0.6900,-0.4900,-0.2500,-1.1250,0.0625,85.6250,-176.2500,0.0000,225.6875,
2025-03-09 20:21:53.172,9.5400,0.7100,-0.4800,-0.0625,-1.4375,0.0000,85.6250,-176.2500,0.0000,225.6875,
2025-03-09 20:21:53.180,9.5300,0.7600,-0.4600,0.0625,-1.2500,0.3125,85.6250,-176.2500,0.0000,225.6875,
2025-03-09 20:21:53.190,9.5300,0.7500,-0.4800,-0.1250,-1.6875,1.0625,85.6250,-176.2500,0.0000,225.6875,
2025-03-09 20:21:53.190,9.5500,0.6700,-0.4800,-0.3125,-2.3125,2.3750,85.6250,-176.2500,0.0000,225.6875,
2025-03-09 20:21:53.210,9.5600,0.6200,-0.4800,-0.6250,-3.1875,3.1250,85.6250,-176.3125,0.0000,225.6250,
2025-03-09 20:21:53.242,9.5500,0.5900,-0.5200,-0.6875,-3.8750,3.1875,85.6250,-176.3125,0.0000,225.6250,
2025-03-09 20:21:53.242,9.5300,0.6400,-0.5200,-0.3125,-4.1875,2.7500,85.6250,-176.3125,0.0000,225.6250,
2025-03-09 20:21:53.242,9.5300,0.6400,-0.5200,-0.1250,-4.3125,2.3125,85.6250,-176.3125,0.0000,225.6250,
2025-03-09 20:21:53.263,9.5600,0.6800,-0.5900,-0.3750,-4.1875,1.7500,85.5625,-176.3750,0.0000,225.5625,
2025-03-09 20:21:53.263,9.5600,0.6800,-0.5800,-0.4375,-4.0000,1.7500,85.5625,-176.3750,0.0000,225.5625,
2025-03-09 20:21:53.263,9.5400,0.6700,-0.5900,0.0625,-3.6250,2.2500,85.5625,-176.4375,0.0000,225.5625,
2025-03-09 20:21:53.284,9.5400,0.6700,-0.5900,-0.1250,-3.7500,2.6250,85.5625,-176.4375,0.0000,225.5625,
2025-03-09 20:21:53.284,9.5300,0.7000,-0.5100,-0.1875,-3.8750,3.3750,85.5625,-176.4375,0.0000,225.4375,
2025-03-09 20:21:53.299,9.5600,0.6000,-0.5600,-0.5000,-4.3125,4.0000,85.5625,-176.4375,0.0000,225.4375,
2025-03-09 20:21:53.315,9.5700,0.5900,-0.6200,-0.7500,-4.5000,4.4375,85.5625,-176.5625,0.0000,225.3750,
2025-03-09 20:21:53.319,9.6100,0.4800,-0.7000,-0.4375,-4.5625,4.3125,85.5625,-176.5625,0.0000,225.3750,
2025-03-09 20:21:53.329,9.6100,0.4800,-0.7000,-0.3750,-3.6875,3.5000,85.5625,-176.5625,0.0000,225.3125,
2025-03-09 20:21:53.357,9.5600,0.5400,-0.6600,-0.1250,-2.8750,2.5000,85.5625,-176.6250,0.0000,225.2500,
2025-03-09 20:21:53.378,9.5600,0.5900,-0.6900,-0.1250,-2.0000,1.8750,85.5625,-176.6250,0.0000,225.2500,
2025-03-09 20:21:53.378,9.5600,0.6200,-0.6300,0.0000,-1.0625,1.8125,85.5625,-176.6875,0.0000,225.2500,
2025-03-09 20:21:53.378,9.5400,0.6500,-0.5900,0.0625,-1.0625,2.1875,85.5625,-176.6875,0.0000,225.2500,
2025-03-09 20:21:53.379,9.5400,0.6500,-0.5900,0.0625,-1.0625,2.1875,85.5625,-176.6875,0.0000,225.1875,
2025-03-09 20:21:53.387,9.5500,0.5400,-0.6100,0.0625,-1.3750,2.8750,85.5625,-176.7500,0.0000,225.1250,
