A1,,,,,,,,,,,
time,accx,accy,accz,gyrox,gyroy,gyroz,w1,w2,w3,w4,
2025-03-09 20:20:21.947,-0.1000,0.1600,9.5200,0.0625,-0.1875,0.0000,0.0000,-0.0625,0.0000,135.1250,
2025-03-09 20:20:21.950,-0.0900,0.1700,9.5200,0.1250,-0.0625,0.0000,0.0000,-0.0625,0.0000,135.1250,
2025-03-09 20:20:21.971,-0.0900,0.1800,9.5000,0.2500,-0.0625,-0.1250,0.0000,-0.0625,0.0000,134.8750,
2025-03-09 20:20:21.971,-0.1100,0.1800,9.5000,0.1875,-0.0625,0.1250,0.0000,-0.0625,0.0000,134.8750,
2025-03-09 20:20:21.979,-0.0900,0.1600,9.4900,-0.0625,0.0000,0.1250,0.0000,-0.0625,0.0000,134.8750,
2025-03-09 20:20:21.995,-0.1100,0.1800,9.5100,0.0000,-0.0625,0.0000,0.0000,-0.0625,0.0000,134.8750,
2025-03-09 20:20:22.000,-0.1000,0.1800,9.5100,-0.0625,-0.0625,0.0000,0.0000,-0.0625,0.0000,134.8750,
2025-03-09 20:20:22.009,-0.0900,0.1600,9.5200,0.0625,0.0000,0.0000,0.0000,-0.0625,0.0000,134.4375,
2025-03-09 20:20:22.022,-0.1000,0.1500,9.5200,0.1875,-0.0625,0.0000,0.0000,-0.0625,0.0000,134.4375,
2025-03-09 20:20:22.034,-0.1100,0.1600,9.4900,0.0625,-0.0625,-0.0625,0.0000,-0.0625,0.0000,134.4375,
2025-03-09 20:20:22.038,-0.1200,0.1800,9.5100,0.0000,0.0625,0.1250,0.0000,-0.1250,0.0000,134.4375,
2025-03-09 20:20:22.055,-0.1100,0.1700,9.4900,0.0625,-0.1250,0.0000,0.0000,-0.1250,0.0000,134.4375,
2025-03-09 20:20:22.057,-0.1100,0.1700,9.5000,0.0625,-0.0625,0.0000,0.0000,-0.1250,0.0000,134.3125,
2025-03-09 20:20:22.070,-0.1100,0.1700,9.5000,0.0625,-0.0625,0.0625,0.0000,-0.1250,0.0000,134.3125,
2025-03-09 20:20:22.081,-0.1100,0.1900,9.5000,0.0000,-0.1250,0.0625,0.0000,-0.1250,0.0000,134.3125,
2025-03-09 20:20:22.089,-0.1200,0.2000,9.5200,0.1250,-0.1250,0.0625,0.0000,-0.1250,0.0000,134.3125,
2025-03-09 20:20:22.097,-0.1100,0.1700,9.5200,0.0000,0.1250,-0.0625,0.0000,-0.1250,0.0000,134.3125,
2025-03-09 20:20:22.115,-0.1100,0.1900,9.5400,0.0000,0.0625,-0.0625,0.0000,-0.1250,0.0000,133.9375,
2025-03-09 20:20:22.117,-0.1200,0.1700,9.5200,0.0000,0.0625,0.0000,0.0000,-0.1250,0.0000,133.9375,
2025-03-09 20:20:22.128,-0.1200,0.1600,9.5100,0.1875,-0.2500,-0.0625,0.0000,-0.1250,0.0000,133.9375,
2025-03-09 20:20:22.156,-0.1100,0.1800,9.5000,-0.1250,0.0625,0.0000,0.0000,-0.1250,0.0000,133.9375,
2025-03-09 20:20:22.156,-0.1100,0.1700,9.5300,0.0000,-0.0625,-0.0625,0.0000,-0.1875,0.0000,133.9375,
2025-03-09 20:20:22.157,-0.1000,0.1700,9.5000,0.1250,-0.1250,0.0625,0.0000,-0.1875,0.0000,133.5625,
2025-03-09 20:20:22.192,-0.0800,0.1700,9.5000,0.1250,-0.1250,0.0625,0.0000,-0.1875,0.0000,133.5625,
2025-03-09 20:20:22.214,-0.0900,0.1700,9.4900,0.0000,-0.0625,0.0000,0.0000,-0.1875,0.0000,133.5625,
2025-03-09 20:20:22.214,-0.1100,0.1600,9.5000,-0.4375,-0.3125,0.0000,0.0000,-0.1875,0.0000,133.5625,
2025-03-09 20:20:22.214,-0.1000,0.1700,9.5300,-0.1250,-0.3125,0.0000,0.0000,-0.1875,0.0000,133.5625,
2025-03-09 20:20:22.214,-0.1000,0.1600,9.5300,-0.1875,0.0000,0.0625,0.0000,-0.1875,0.0000,133.4375,
2025-03-09 20:20:22.214,-0.1000,0.1400,9.5000,-0.2500,-0.5000,0.1875,0.0000,-0.1875,0.0000,133.4375,
2025-03-09 20:20:22.233,-0.1100,0.2100,9.4900,-0.2500,-0.2500,-0.0625,0.0000,-0.1875,0.0000,133.4375,
2025-03-09 20:20:22.233,-0.1100,0.1900,9.4900,0.0000,-0.1875,-0.0625,0.0000,-0.1875,0.0000,133.4375,
2025-03-09 20:20:22.243,-0.1100,0.1700,9.5300,0.0000,-0.1250,0.1875,0.0000,-0.1875,0.0000,133.4375,
2025-03-09 20:20:22.266,-0.1000,0.1400,9.5100,0.0000,-0.1250,0.0000,0.0000,-0.1875,0.0000,133.1875,
2025-03-09 20:20:22.266,-0.0800,0.1600,9.5000,0.0000,0.0000,-0.1250,0.0000,-0.1875,0.0000,133.1875,
2025-03-09 20:20:22.274,-0.0800,0.1500,9.4900,0.0625,0.1250,0.1250,-0.0625,-0.1875,0.0000,133.1875,
2025-03-09 20:20:22.286,-0.1100,0.1900,9.5000,0.4375,0.5625,0.0625,-0.0625,-0.1875,0.0000,133.1875,
2025-03-09 20:20:22.305,-0.1000,0.1800,9.5000,0.2500,0.4375,0.0625,-0.0625,-0.2500,0.0000,133.1875,
2025-03-09 20:20:22.305,-0.1000,0.1700,9.5100,0.1875,0.3125,0.0625,-0.0625,-0.2500,0.0000,133.0625,
2025-03-09 20:20:22.316,-0.1100,0.1700,9.4800,0.1250,0.0625,0.0000,-0.0625,-0.2500,0.0000,133.0625,
2025-03-09 20:20:22.327,-0.1100,0.1600,9.4900,-0.1875,-0.0625,-0.1250,-0.0625,-0.2500,0.0000,133.0625,
2025-03-09 20:20:22.336,-0.0900,0.1600,9.4900,-0.1250,-0.1250,-0.1875,-0.0625,-0.2500,0.0000,133.0625,
2025-03-09 20:20:22.370,-0.1000,0.1800,9.5000,0.0625,-0.0625,0.0000,-0.0625,-0.2500,0.0000,133.0625,
2025-03-09 20:20:22.370,-0.1100,0.1800,9.5300,0.2500,0.1250,0.0000,-0.0625,-0.2500,0.0000,132.8125,
2025-03-09 20:20:22.370,-0.1100,0.1700,9.4800,0.2500,0.1250,0.0625,-0.0625,-0.2500,0.0000,132.8125,
2025-03-09 20:20:22.389,-0.1000,0.1500,9.5100,0.0000,0.0000,0.1250,-0.0625,-0.2500,0.0000,132.8125,
2025-03-09 20:20:22.389,-0.1300,0.1600,9.5100,0.0625,-0.0625,0.0625,-0.0625,-0.2500,0.0000,132.8125,
2025-03-09 20:20:22.412,-0.1100,0.1700,9.5200,-0.1250,-0.3125,-0.0625,-0.0625,-0.2500,0.0000,132.8125,
2025-03-09 20:20:22.412,-0.0900,0.1600,9.5200,-0.0625,-0.4375,0.0625,-0.0625,-0.2500,0.0000,132.7500,
2025-03-09 20:20:22.412,-0.0900,0.1800,9.5000,0.0625,-0.4375,-0.0625,-0.0625,-0.2500,0.0000,132.7500,
2025-03-09 20:20:22.424,-0.0900,0.1800,9.4900,-0.0625,-0.1875,-0.0625,-0.0625,-0.2500,0.0000,132.7500,
2025-03-09 20:20:22.441,-0.1100,0.1700,9.5000,0.0625,0.0000,0.0000,-0.0625,-0.2500,0.0000,132.7500,
2025-03-09 20:20:22.441,-0.1100,0.1900,9.5100,-0.0625,0.1250,0.0000,-0.0625,-0.2500,0.0000,132.7500,
2025-03-09 20:20:22.452,-0.1000,0.1600,9.5100,0.1250,0.2500,-0.0625,-0.0625,-0.2500,0.0000,132.6875,
2025-03-09 20:20:22.493,-0.1000,0.1500,9.5200,0.1250,0.2500,-0.0625,-0.0625,-0.2500,0.0000,132.6875,
2025-03-09 20:20:22.513,-0.0700,0.1600,9.4800,0.0625,0.4375,0.0000,-0.0625,-0.3125,0.0000,132.6875,
2025-03-09 20:20:22.513,-0.1000,0.1800,9.4600,0.0000,0.2500,0.0000,-0.0625,-0.3125,0.0000,132.6875,
2025-03-09 20:20:22.513,-0.1200,0.1700,9.5000,-0.1250,0.3125,0.0625,-0.0625,-0.3125,0.0000,132.6875,
2025-03-09 20:20:22.513,-0.1000,0.1600,9.5000,-0.1250,-0.1250,0.0000,-0.0625,-0.3125,0.0000,132.6250,
2025-03-09 20:20:22.513,-0.1000,0.1800,9.5000,-0.1250,0.0625,0.0625,-0.0625,-0.3125,0.0000,132.6250,
2025-03-09 20:20:22.535,-0.1100,0.1700,9.5200,-0.1250,-0.1250,0.0000,-0.1250,-0.3125,0.0000,132.6250,
2025-03-09 20:20:22.535,-0.1100,0.1800,9.5200,-0.0625,-0.0625,0.0625,-0.1250,-0.3125,0.0000,132.6250,
2025-03-09 20:20:22.544,-0.1200,0.1500,9.5200,0.0625,0.0625,-0.0625,-0.1250,-0.3125,0.0000,132.6250,
2025-03-09 20:20:22.564,-0.1100,0.1800,9.5000,0.0625,0.1250,0.0625,-0.1250,-0.3125,0.0000,132.5625,
2025-03-09 20:20:22.567,-0.1000,0.1700,9.5000,0.1250,0.0000,-0.0625,-0.1250,-0.3125,0.0000,132.5625,
2025-03-09 20:20:22.574,-0.1200,0.1600,9.5100,0.1250,0.0000,-0.0625,-0.1250,-0.3125,0.0000,132.5625,
2025-03-09 20:20:22.594,-0.1100,0.1700,9.4800,0.0000,0.0000,-0.0625,-0.1250,-0.3125,0.0000,132.5625,
2025-03-09 20:20:22.594,-0.1000,0.1600,9.5200,-0.0625,-0.1250,0.0000,-0.1250,-0.3125,0.0000,132.5625,
2025-03-09 20:20:22.608,-0.1200,0.1700,9.5000,0.1875,0.1250,-0.2500,-0.1250,-0.3125,0.0000,132.5625,
2025-03-09 20:20:22.614,-0.0900,0.1500,9.5100,-0.1875,0.2500,-0.1250,-0.1250,-0.3125,0.0000,132.5625,
2025-03-09 20:20:22.624,-0.1100,0.1500,9.4900,-0.0625,0.0000,-0.1250,-0.1250,-0.3125,0.0000,132.5625,
2025-03-09 20:20:22.635,-0.1100,0.1700,9.5100,0.0000,0.0000,-0.0625,-0.1250,-0.3125,0.0000,132.5625,
2025-03-09 20:20:22.645,-0.0900,0.1900,9.4900,0.1250,0.0000,-0.1250,-0.1250,-0.3125,0.0000,132.5625,
2025-03-09 20:20:22.656,-0.1100,0.1600,9.5500,0.0000,-0.1250,0.0000,-0.1250,-0.3125,0.0000,132.5625,
2025-03-09 20:20:22.667,-0.1000,0.1700,9.5100,0.0000,0.0625,0.0625,-0.1250,-0.3125,0.0000,132.3750,
2025-03-09 20:20:22.676,-0.1100,0.1600,9.5100,0.0625,-0.0625,0.1250,-0.1250,-0.3125,0.0000,132.3750,
2025-03-09 20:20:22.687,-0.1000,0.1600,9.5100,0.1250,-0.0625,0.0625,-0.1250,-0.3125,0.0000,132.3750,
2025-03-09 20:20:22.700,-0.1100,0.1500,9.5000,0.0000,-0.0625,0.0000,-0.1250,-0.3750,0.0000,132.3750,
2025-03-09 20:20:22.717,-0.1100,0.1800,9.5000,0.1250,-0.1875,-0.0625,-0.1250,-0.3750,0.0000,132.3750,
2025-03-09 20:20:22.717,-0.1100,0.1500,9.4900,0.0000,-0.2500,0.1250,-0.1250,-0.3750,0.0000,132.3750,
2025-03-09 20:20:22.737,-0.1100,0.1500,9.4800,0.1875,-0.1250,0.0000,-0.1250,-0.3750,0.0000,132.3750,
2025-03-09 20:20:22.737,-0.1100,0.1800,9.5300,0.1875,0.0000,0.0625,-0.1250,-0.3750,0.0000,132.3750,
2025-03-09 20:20:22.748,-0.1100,0.1600,9.5300,-0.0625,0.1250,0.0625,-0.1250,-0.3750,0.0000,132.3750,
2025-03-09 20:20:22.759,-0.1000,0.1600,9.5000,-0.0625,0.1250,0.0625,-0.1250,-0.3750,0.0000,132.3750,
2025-03-09 20:20:22.818,-0.1000,0.1600,9.5200,-0.1250,-0.0625,-0.0625,-0.1250,-0.3750,0.0000,132.3750,
2025-03-09 20:20:22.818,-0.0700,0.1300,9.4800,-0.1250,-0.1875,-0.0625,-0.1250,-0.3750,0.0000,132.3750,
2025-03-09 20:20:22.818,0.1100,0.1800,9.4900,-0.0625,-0.6875,-0.5000,-0.1250,-0.3750,0.0000,132.3750,
2025-03-09 20:20:22.818,0.4700,0.0700,9.5000,-0.0625,-0.8750,-6.0625,-0.1250,-0.3750,0.0000,132.4375,
2025-03-09 20:20:22.818,0.4700,0.0700,9.5000,-0.0625,-0.5000,-16.1250,-0.1250,-0.3750,0.0000,132.4375,
2025-03-09 20:20:22.818,0.0100,0.0800,9.4900,0.0000,0.1250,-16.9375,-0.1250,-0.3750,0.0000,132.5625,
2025-03-09 20:20:22.828,-0.0800,0.2200,9.5100,0.1250,0.3125,-12.8750,-0.1250,-0.3750,0.0000,132.8750,
2025-03-09 20:20:22.838,0.0500,0.2100,9.5000,0.1875,0.8125,-11.6250,-0.1250,-0.3750,0.0000,132.8750,
2025-03-09 20:20:22.848,-0.1600,0.1600,9.5200,0.0000,1.0000,-15.1250,-0.1250,-0.3750,0.0000,132.9375,
2025-03-09 20:20:22.858,-0.1600,0.1600,9.5200,0.0625,0.9375,-15.6250,-0.1250,-0.3750,0.0000,133.1250,
2025-03-09 20:20:22.869,-0.2800,0.1400,9.4900,-0.0625,-0.2500,-12.0000,-0.1875,-0.3750,0.0000,133.1250,
2025-03-09 20:20:22.878,-0.1800,0.2100,9.4900,-0.3750,-0.5000,-2.8125,-0.1875,-0.3750,0.0000,133.2500,
2025-03-09 20:20:22.890,-0.1200,0.1700,9.5100,0.1250,-0.1875,0.0000,-0.1875,-0.3750,0.0000,133.2500,
2025-03-09 20:20:22.899,-0.1100,0.1500,9.4900,0.0625,-0.0625,0.1250,-0.1875,-0.3750,0.0000,133.2500,
2025-03-09 20:20:22.920,-0.0900,0.1500,9.5000,0.0000,-0.1875,0.0625,-0.1875,-0.3750,0.0000,133.1875,
2025-03-09 20:20:22.929,-0.1000,0.2000,9.4900,0.0000,0.0000,-0.1250,-0.1875,-0.3750,0.0000,133.1875,
2025-03-09 20:20:22.939,-0.1100,0.1400,9.5100,-0.1250,-0.3750,0.1875,-0.1875,-0.3750,0.0000,133.1875,
2025-03-09 20:20:22.960,-0.1000,0.1800,9.5000,0.0625,-0.1250,0.0625,-0.1875,-0.3750,0.0000,133.1875,
2025-03-09 20:20:22.970,-0.1000,0.1800,9.5000,-0.0625,-0.1250,-0.0625,-0.1875,-0.3750,0.0000,133.1875,
2025-03-09 20:20:22.972,-0.1000,0.1700,9.5200,-0.3750,-0.8125,-0.0625,-0.1875,-0.3750,0.0000,132.9375,
2025-03-09 20:20:22.981,-0.1000,0.1400,9.5100,-0.1250,-0.6250,-0.0625,-0.1875,-0.3750,0.0000,132.9375,
2025-03-09 20:20:22.991,-0.0900,0.1600,9.5100,0.0625,-0.5000,0.0625,-0.1875,-0.3750,0.0000,132.9375,
2025-03-09 20:20:23.012,-0.0600,0.1700,9.5200,-0.1250,-0.2500,0.0625,-0.1875,-0.3750,0.0000,132.9375,
2025-03-09 20:20:23.022,0.1100,0.1400,9.5200,-0.1875,-0.5000,-0.3750,-0.1875,-0.3750,0.0000,132.8125,
2025-03-09 20:20:23.022,0.1400,0.1800,9.4800,0.1250,-0.4375,-1.6875,-0.1875,-0.3750,0.0000,132.8125,
2025-03-09 20:20:23.042,-1.0600,0.2700,9.4900,0.8125,-1.0000,-4.3750,-0.1875,-0.4375,0.0000,132.8750,
2025-03-09 20:20:23.114,-0.0700,0.1500,9.5000,-0.3125,0.2500,-0.0625,-0.1250,-0.4375,0.0000,132.8125,
2025-03-09 20:20:23.114,-0.1000,0.1700,9.5200,0.0000,0.0000,0.0000,-0.1250,-0.4375,0.0000,132.8125,
2025-03-09 20:20:23.114,-0.1100,0.1800,9.5100,0.0625,0.0000,0.0000,-0.1250,-0.4375,0.0000,132.8125,
2025-03-09 20:20:23.114,-0.1100,0.1800,9.5100,0.0000,0.5000,0.0625,-0.1250,-0.4375,0.0000,132.5625,
2025-03-09 20:20:23.133,-0.0900,0.1700,9.4900,-0.1875,0.1875,-0.0625,-0.1875,-0.4375,0.0000,132.5625,
2025-03-09 20:20:23.168,-0.1100,0.1400,9.5100,-0.1250,0.2500,0.0625,-0.1875,-0.4375,0.0000,132.5625,
2025-03-09 20:20:23.174,-0.1100,0.1700,9.5500,-0.1875,0.1875,0.0625,-0.1875,-0.4375,0.0000,132.5625,
2025-03-09 20:20:23.192,-0.1000,0.1800,9.5200,-0.2500,-0.2500,-0.0625,-0.1875,-0.4375,0.0000,132.5625,
2025-03-09 20:20:23.205,-0.0900,0.1600,9.5200,0.0625,-0.3125,0.0000,-0.1875,-0.4375,0.0000,132.5625,
2025-03-09 20:20:23.224,-0.0900,0.1500,9.4800,0.2500,-0.3125,-0.0625,-0.1875,-0.4375,0.0000,132.5625,
2025-03-09 20:20:23.234,-0.0900,0.1700,9.4600,0.2500,-0.2500,0.1250,-0.1875,-0.4375,0.0000,132.5625,
2025-03-09 20:20:23.254,-0.0800,0.1900,9.5100,0.0625,0.0625,-0.1250,-0.1875,-0.4375,0.0000,132.5625,
2025-03-09 20:20:23.269,-0.1100,0.1800,9.4800,0.0625,0.1875,0.0000,-0.1875,-0.4375,0.0000,132.5000,
2025-03-09 20:20:23.285,-0.1000,0.1500,9.4800,-0.1875,0.2500,0.0000,-0.1875,-0.4375,0.0000,132.5000,
2025-03-09 20:20:23.315,-0.1100,0.1600,9.5200,-0.0625,0.0625,0.1250,-0.1875,-0.4375,0.0000,132.5000,
2025-03-09 20:20:23.317,-0.1100,0.1500,9.5600,0.1875,0.2500,-0.1250,-0.1875,-0.4375,0.0000,132.5000,
2025-03-09 20:20:23.346,-0.1000,0.1300,9.5000,0.2500,0.3125,-0.1875,-0.1875,-0.4375,0.0000,132.5000,
2025-03-09 20:20:23.357,-0.0900,0.1500,9.5200,0.2500,0.3750,-0.2500,-0.1875,-0.4375,0.0000,132.5000,
2025-03-09 20:20:23.369,-0.1200,0.1700,9.5400,-0.1250,0.1875,0.0625,-0.1875,-0.4375,0.0000,132.5000,
2025-03-09 20:20:23.405,-0.0900,0.1600,9.4700,0.0000,-0.0625,0.0625,-0.1875,-0.4375,0.0000,132.5000,
2025-03-09 20:20:23.405,-0.1200,0.1800,9.5300,0.0000,-0.2500,-0.1875,-0.1875,-0.4375,0.0000,132.5000,
2025-03-09 20:20:23.414,-0.1000,0.1300,9.5100,0.1875,0.0000,-0.7500,-0.1875,-0.4375,0.0000,132.5000,
2025-03-09 20:20:23.435,-0.1100,0.1700,9.5000,0.0625,0.1875,-0.0625,-0.1875,-0.4375,0.0000,132.5000,
2025-03-09 20:20:23.465,-0.1000,0.1700,9.5200,0.1875,0.1875,0.0625,-0.1875,-0.4375,0.0000,132.5000,
2025-03-09 20:20:23.469,-0.1100,0.1700,9.5300,0.0625,0.1250,0.0625,-0.1875,-0.4375,0.0000,132.5000,
2025-03-09 20:20:23.496,-0.1200,0.1300,9.4900,0.0625,0.0000,0.0000,-0.1875,-0.4375,0.0000,132.5000,
2025-03-09 20:20:23.506,-0.1100,0.1900,9.5100,0.1250,0.0625,0.0625,-0.1875,-0.4375,0.0000,132.5000,
2025-03-09 20:20:23.520,-0.0900,0.1800,9.5100,0.0625,0.1250,-0.1250,-0.1875,-0.4375,0.0000,132.5000,
2025-03-09 20:20:23.537,-0.1100,0.1600,9.5000,0.0625,0.1250,-0.1250,-0.1875,-0.4375,0.0000,132.5000,
2025-03-09 20:20:23.558,-0.1000,0.1700,9.4800,0.0000,0.1875,-0.0625,-0.1875,-0.4375,0.0000,132.5000,
2025-03-09 20:20:23.569,-0.0900,0.1800,9.5200,-0.1875,0.1250,-0.0625,-0.1875,-0.4375,0.0000,132.5000,
2025-03-09 20:20:23.587,-0.1000,0.1600,9.4900,-0.3125,-0.1875,0.1875,-0.1875,-0.4375,0.0000,132.5000,
2025-03-09 20:20:23.608,-0.1200,0.1800,9.5000,-0.1875,0.2500,-0.0625,-0.1875,-0.4375,0.0000,132.5000,
2025-03-09 20:20:23.629,-0.1100,0.1500,9.5300,0.0625,-0.0625,0.0625,-0.1875,-0.4375,0.0000,132.5000,
2025-03-09 20:20:23.650,-0.0900,0.1500,9.5000,-0.1875,0.0000,0.0000,-0.1875,-0.4375,0.0000,132.5000,
2025-03-09 20:20:23.715,-0.1100,0.1500,9.5000,-0.0625,0.0000,0.0000,-0.1875,-0.4375,0.0000,132.5000,
2025-03-09 20:20:23.715,-0.0900,0.1800,9.5000,0.0000,-0.1875,-0.0625,-0.1875,-0.4375,0.0000,132.5000,
2025-03-09 20:20:23.715,-0.1000,0.1600,9.5000,-0.1875,-0.0625,0.0000,-0.1875,-0.4375,0.0000,132.5000,
2025-03-09 20:20:23.715,-0.0800,0.1600,9.4900,0.0625,0.1875,0.0625,-0.1875,-0.4375,0.0000,132.5000,
2025-03-09 20:20:23.721,-0.1100,0.1600,9.5100,0.0000,0.2500,0.0625,-0.1875,-0.4375,0.0000,132.5000,
2025-03-09 20:20:23.741,-0.1000,0.1700,9.5000,0.0625,0.0000,0.0625,-0.1875,-0.4375,0.0000,132.5000,
2025-03-09 20:20:23.741,-0.1100,0.1400,9.4900,0.0625,0.1875,0.0625,-0.1875,-0.4375,0.0000,132.5000,
2025-03-09 20:20:23.769,-0.1100,0.1400,9.5300,0.1250,0.1250,0.0625,-0.1875,-0.4375,0.0000,132.5000,
2025-03-09 20:20:23.775,-0.1000,0.1500,9.5000,0.2500,0.1250,0.1250,-0.1875,-0.4375,0.0000,132.5000,
2025-03-09 20:20:23.802,-0.1100,0.1500,9.5100,0.0625,0.1875,0.0000,-0.1875,-0.4375,0.0000,132.5000,
2025-03-09 20:20:23.803,-0.1100,0.1600,9.4900,0.1875,0.3750,-0.0625,-0.1875,-0.4375,0.0000,132.5000,
2025-03-09 20:20:23.825,-0.1300,0.1600,9.5000,0.1875,0.3125,0.1875,-0.1875,-0.4375,0.0000,132.5000,
2025-03-09 20:20:23.835,-0.1000,0.1600,9.4900,0.0000,0.3125,-0.1250,-0.1875,-0.4375,0.0000,132.5000,
2025-03-09 20:20:23.855,-0.1000,0.1300,9.4900,0.0625,0.1875,-0.0625,-0.1875,-0.4375,0.0000,132.5000,
2025-03-09 20:20:23.855,-0.1000,0.1900,9.5100,0.0000,0.0625,-0.0625,-0.1875,-0.4375,0.0000,132.5000,
2025-03-09 20:20:23.865,-0.1200,0.1500,9.5200,0.0000,0.1250,-0.0625,-0.1875,-0.4375,0.0000,132.5000,
2025-03-09 20:20:23.876,-0.1100,0.1400,9.4900,0.1875,0.3750,0.0625,-0.1875,-0.4375,0.0000,132.5000,
2025-03-09 20:20:23.886,-0.1200,0.1400,9.4800,-0.0625,0.3125,-0.1250,-0.1875,-0.4375,0.0000,132.5000,
2025-03-09 20:20:23.896,-0.1100,0.1500,9.5000,-0.2500,0.3750,-0.1875,-0.1875,-0.4375,0.0000,132.5000,
2025-03-09 20:20:23.916,-0.1200,0.1500,9.5100,0.0625,0.2500,-0.1250,-0.1875,-0.4375,0.0000,132.5000,
2025-03-09 20:20:23.916,-0.1100,0.1800,9.5000,0.1250,0.2500,0.0000,-0.1875,-0.4375,0.0000,132.5000,
2025-03-09 20:20:23.926,-0.1100,0.1600,9.5100,0.1250,0.1875,0.0000,-0.1875,-0.4375,0.0000,132.5000,
2025-03-09 20:20:23.936,-0.1100,0.1800,9.4900,0.0625,0.1250,-0.0625,-0.1875,-0.4375,0.0000,132.5000,
2025-03-09 20:20:23.946,-0.1100,0.1700,9.4900,0.1875,0.1250,-0.0625,-0.1875,-0.4375,0.0000,132.5000,
2025-03-09 20:20:23.956,-0.1100,0.1600,9.5100,0.0625,0.1250,0.0000,-0.1875,-0.4375,0.0000,132.5000,
2025-03-09 20:20:23.970,-0.1100,0.1400,9.5000,0.0000,0.3125,-0.0625,-0.1875,-0.4375,0.0000,132.5000,
2025-03-09 20:20:24.006,-0.1200,0.1600,9.5100,0.0000,0.2500,-0.1250,-0.1875,-0.4375,0.0000,132.5000,
2025-03-09 20:20:24.006,-0.1100,0.1500,9.5200,0.1250,0.0625,-0.1250,-0.1875,-0.4375,0.0000,132.5000,
2025-03-09 20:20:24.006,-0.1100,0.1600,9.5000,0.0625,0.0625,-0.0625,-0.1875,-0.4375,0.0000,132.5000,
2025-03-09 20:20:24.016,-0.1000,0.1600,9.4800,0.3125,-0.0625,0.0625,-0.1875,-0.4375,0.0000,132.5000,
2025-03-09 20:20:24.016,-0.1100,0.1600,9.5200,0.0625,0.0625,-0.1875,-0.1875,-0.4375,0.0000,132.5000,
2025-03-09 20:20:24.026,-0.1300,0.1600,9.5300,0.2500,0.1250,0.0000,-0.1875,-0.4375,0.0000,132.5000,
2025-03-09 20:20:24.036,-0.1100,0.1600,9.4900,0.2500,0.2500,-0.1250,-0.1875,-0.4375,0.0000,132.5000,
2025-03-09 20:20:24.046,-0.1100,0.1900,9.5300,0.1875,0.0625,-0.1875,-0.1875,-0.4375,0.0000,132.5000,
2025-03-09 20:20:24.070,-0.1300,0.1700,9.5000,0.1875,0.1250,-0.0625,-0.1875,-0.4375,0.0000,132.5000,
2025-03-09 20:20:24.070,-0.1000,0.1400,9.5400,0.0000,0.0625,-0.1875,-0.1875,-0.4375,0.0000,132.5000,
2025-03-09 20:20:24.078,-0.1100,0.1800,9.4900,0.0625,-0.0625,0.0625,-0.1875,-0.4375,0.0000,132.5000,
2025-03-09 20:20:24.090,-0.1100,0.1800,9.5000,0.1875,0.0000,-0.0625,-0.1875,-0.4375,0.0000,132.5000,
2025-03-09 20:20:24.097,-0.1500,0.1600,9.5200,0.0625,-0.0625,0.0000,-0.1875,-0.4375,0.0000,132.5000,
2025-03-09 20:20:24.108,-0.1100,0.1600,9.4900,0.0000,0.0000,-0.0625,-0.1875,-0.4375,0.0000,132.5000,
2025-03-09 20:20:24.125,-0.1300,0.1800,9.4900,0.0000,-0.2500,0.0000,-0.1875,-0.4375,0.0000,132.5000,
2025-03-09 20:20:24.129,-0.1100,0.1700,9.5200,0.0625,-0.1875,-0.0625,-0.1875,-0.4375,0.0000,132.5000,
2025-03-09 20:20:24.130,-0.1300,0.1800,9.5100,0.0000,-0.4375,0.0625,-0.1875,-0.4375,0.0000,132.5000,
2025-03-09 20:20:24.154,-0.1200,0.1600,9.5100,0.1250,-0.5000,0.0625,-0.1875,-0.4375,0.0000,132.5000,
2025-03-09 20:20:24.154,-0.1000,0.1600,9.5200,0.0000,-0.6250,0.1875,-0.1875,-0.4375,0.0000,132.5000,
2025-03-09 20:20:24.160,-0.1100,0.1500,9.5000,-0.3125,-0.5625,0.1250,-0.1875,-0.4375,0.0000,132.5000,
2025-03-09 20:20:24.180,-0.1100,0.1600,9.5000,-0.5000,-0.5000,0.1250,-0.1875,-0.4375,0.0000,132.5000,
2025-03-09 20:20:24.180,-0.1200,0.1400,9.4800,-0.4375,-0.2500,-0.0625,-0.1875,-0.4375,0.0000,132.5000,
2025-03-09 20:20:24.190,-0.1300,0.1600,9.5000,-0.1875,-0.2500,-0.0625,-0.1875,-0.4375,0.0000,132.5000,
2025-03-09 20:20:24.216,-0.1300,0.1400,9.5100,-0.1875,-0.3750,0.1250,-0.1875,-0.4375,0.0000,132.5000,
2025-03-09 20:20:24.216,-0.1000,0.1800,9.5100,-0.2500,-0.3750,-0.0625,-0.1875,-0.4375,0.0000,132.5000,
2025-03-09 20:20:24.222,-0.1000,0.1600,9.5000,-0.0625,-0.3750,-0.1250,-0.1875,-0.4375,0.0000,132.5000,
2025-03-09 20:20:24.263,-0.1100,0.1600,9.4900,0.0000,-0.4375,-0.2500,-0.1875,-0.4375,0.0000,132.5000,
2025-03-09 20:20:24.313,-0.1200,0.1700,9.5000,-0.1875,-0.9375,-0.2500,-0.1875,-0.4375,0.0000,132.5000,
2025-03-09 20:20:24.313,-0.1100,0.1500,9.5200,-0.1875,-1.1250,-0.0625,-0.1250,-0.4375,0.0000,132.5000,
2025-03-09 20:20:24.313,-0.1000,0.1800,9.5000,-0.1250,-1.3125,0.2500,-0.1250,-0.4375,0.0000,132.5000,
2025-03-09 20:20:24.313,-0.0900,0.1800,9.5100,-0.1250,-1.3125,0.2500,-0.1250,-0.4375,0.0000,132.5000,
2025-03-09 20:20:24.313,-0.1100,0.1400,9.4700,0.2500,-0.6875,0.2500,-0.1250,-0.4375,0.0000,132.5000,
2025-03-09 20:20:24.313,-0.0800,0.1300,9.4900,0.0625,-0.2500,0.1250,-0.1250,-0.4375,0.0000,132.5000,
2025-03-09 20:20:24.313,-0.0900,0.1500,9.5200,0.8125,1.1875,-0.1250,-0.1250,-0.4375,0.0000,132.5000,
2025-03-09 20:20:24.313,-0.3000,0.2800,9.5100,1.5000,1.3750,0.0625,-0.1250,-0.5000,0.0000,132.5000,
2025-03-09 20:20:24.323,-0.0100,0.1200,9.3900,-0.5000,-1.9375,0.0625,-0.1250,-0.5000,0.0000,132.5000,
2025-03-09 20:20:24.335,-0.1100,0.1700,9.4600,0.0000,-0.3750,-0.1250,-0.1250,-0.5000,0.0000,132.5000,
2025-03-09 20:20:24.344,-0.1100,0.1700,9.4900,0.1875,-0.0625,-0.0625,-0.1250,-0.5000,0.0000,132.5000,
2025-03-09 20:20:24.371,-0.1100,0.1700,9.5100,0.1250,-0.0625,-0.0625,-0.1250,-0.5000,0.0000,132.5000,
2025-03-09 20:20:24.374,-0.1100,0.1800,9.5000,0.0000,-0.1250,0.0000,-0.1250,-0.5000,0.0000,132.5000,
2025-03-09 20:20:24.374,-0.1000,0.1600,9.5000,0.0000,-0.2500,-0.1250,-0.1250,-0.5000,0.0000,132.5000,
2025-03-09 20:20:24.391,-0.1100,0.1700,9.4600,0.0000,-0.1250,-0.1250,-0.1250,-0.5000,0.0000,132.5000,
2025-03-09 20:20:24.391,-0.1100,0.1800,9.4900,-0.1250,0.0000,-0.0625,-0.1250,-0.5000,0.0000,132.5000,
2025-03-09 20:20:24.455,-0.0900,0.1700,9.4800,-0.1250,-0.0625,0.0000,-0.1250,-0.5000,0.0000,132.5000,
2025-03-09 20:20:24.455,-0.1100,0.1700,9.5700,0.0625,-0.0625,0.0000,-0.1250,-0.5000,0.0000,132.5000,
2025-03-09 20:20:24.455,-0.1100,0.1400,9.6000,0.0625,-0.3125,-0.1250,-0.1250,-0.5000,0.0000,132.5000,
2025-03-09 20:20:24.455,-0.1100,0.2000,9.5500,0.1875,-0.3125,0.0625,-0.1250,-0.5000,0.0000,132.5000,
2025-03-09 20:20:24.455,-0.1000,0.1800,9.5700,0.1875,-0.2500,-0.1875,-0.1250,-0.5000,0.0000,132.5000,
2025-03-09 20:20:24.464,-0.1100,0.1700,9.4200,0.0625,-0.3750,-0.0625,-0.1250,-0.5000,0.0000,132.5000,
2025-03-09 20:20:24.464,-0.1200,0.1700,9.4100,0.0625,-0.1875,-0.0625,-0.1250,-0.5000,0.0000,132.5000,
2025-03-09 20:20:24.492,-0.1000,0.1700,9.4700,0.1250,-0.2500,0.0000,-0.1875,-0.5000,0.0000,132.5000,
2025-03-09 20:20:24.492,-0.1100,0.1700,9.5500,0.0625,-0.2500,-0.0625,-0.1875,-0.5000,0.0000,132.5000,
2025-03-09 20:20:24.492,-0.1200,0.1600,9.5400,0.0625,-0.2500,-0.1250,-0.1875,-0.5000,0.0000,132.5000,
2025-03-09 20:20:24.503,-0.1100,0.1500,9.5100,0.0625,-0.3125,-0.0625,-0.1875,-0.5000,0.0000,132.5000,
2025-03-09 20:20:24.515,-0.1100,0.1700,9.4900,0.0000,-0.1875,-0.1250,-0.1875,-0.5000,0.0000,132.5000,
2025-03-09 20:20:24.524,-0.1000,0.1800,9.4600,0.1250,-0.2500,-0.0625,-0.1875,-0.5000,0.0000,132.5000,
2025-03-09 20:20:24.535,-0.0900,0.1800,9.4700,0.1875,-0.3750,0.0625,-0.1875,-0.5000,0.0000,132.5000,
2025-03-09 20:20:24.544,-0.1000,0.1600,9.5400,-0.0625,-0.1875,0.0000,-0.1875,-0.5000,0.0000,132.5000,
2025-03-09 20:20:24.554,-0.1100,0.1600,9.5700,0.0625,-0.1875,-0.0625,-0.1875,-0.5000,0.0000,132.5000,
2025-03-09 20:20:24.605,-0.1200,0.1700,9.5300,0.1250,-0.3750,0.0000,-0.1875,-0.5000,0.0000,132.5000,
2025-03-09 20:20:24.605,-0.0800,0.1700,9.4800,0.1250,-0.2500,0.0000,-0.1875,-0.5000,0.0000,132.5000,
2025-03-09 20:20:24.605,-0.1000,0.1600,9.4700,0.0625,-0.3125,0.0000,-0.1875,-0.5000,0.0000,132.5000,
2025-03-09 20:20:24.605,-0.1000,0.1800,9.5100,-0.0625,-0.1875,0.0000,-0.1875,-0.5000,0.0000,132.5000,
2025-03-09 20:20:24.605,-0.1000,0.1700,9.5000,0.0625,-0.1250,-0.0625,-0.1875,-0.5000,0.0000,132.5000,
2025-03-09 20:20:24.615,-0.1100,0.1700,9.5200,0.0625,-0.1250,-0.0625,-0.1875,-0.5000,0.0000,132.5000,
2025-03-09 20:20:24.625,-0.1000,0.1600,9.5000,0.2500,-0.1875,-0.1250,-0.1875,-0.5000,0.0000,132.5000,
2025-03-09 20:20:24.635,-0.0900,0.1600,9.4600,0.0000,0.0000,0.0000,-0.1875,-0.5000,0.0000,132.5000,
2025-03-09 20:20:24.648,-0.1000,0.1700,9.4800,0.0625,-0.1250,-0.0625,-0.1875,-0.5000,0.0000,132.5000,
2025-03-09 20:20:24.666,-0.1000,0.1700,9.5000,0.0625,0.0000,-0.1875,-0.1875,-0.5000,0.0000,132.5000,
2025-03-09 20:20:24.668,-0.0900,0.1500,9.5000,0.1250,-0.1875,0.0625,-0.1875,-0.5000,0.0000,132.5000,
2025-03-09 20:20:24.680,-0.1000,0.1600,9.5300,0.1250,-0.1875,-0.0625,-0.1875,-0.5625,0.0000,132.5000,
2025-03-09 20:20:24.696,-0.1100,0.1600,9.4700,-0.1250,-0.1875,0.0000,-0.1875,-0.5625,0.0000,132.5000,
2025-03-09 20:20:24.697,-0.0800,0.1500,9.4700,0.0000,-0.1250,0.0000,-0.1875,-0.5625,0.0000,132.5000,
2025-03-09 20:20:24.709,-0.1000,0.1700,9.5000,0.0000,-0.0625,-0.2500,-0.1875,-0.5625,0.0000,132.5000,
2025-03-09 20:20:24.717,-0.0900,0.1700,9.5000,0.0000,-0.0625,-0.0625,-0.1875,-0.5625,0.0000,132.5000,
2025-03-09 20:20:24.727,-0.1100,0.1600,9.5500,-0.0625,0.0000,-0.1875,-0.1875,-0.5625,0.0000,132.5000,
2025-03-09 20:20:24.737,-0.0900,0.1900,9.5000,-0.0625,-0.0625,-0.0625,-0.1875,-0.5625,0.0000,132.5000,
2025-03-09 20:20:24.757,-0.0900,0.1800,9.5200,0.0000,-0.0625,-0.1250,-0.1875,-0.5625,0.0000,132.5000,
2025-03-09 20:20:24.757,-0.1100,0.1700,9.4700,0.0625,-0.1250,0.0625,-0.1875,-0.5625,0.0000,132.5000,
2025-03-09 20:20:24.767,-0.0900,0.1600,9.4800,-0.0625,0.0000,-0.0625,-0.1875,-0.5625,0.0000,132.5000,
2025-03-09 20:20:24.778,-0.1000,0.1700,9.5300,0.0625,-0.1875,-0.1875,-0.1875,-0.5625,0.0000,132.5000,
2025-03-09 20:20:24.788,-0.1200,0.1600,9.4900,-0.1875,-0.0625,-0.1875,-0.1875,-0.5625,0.0000,132.5000,
2025-03-09 20:20:24.808,-0.0900,0.1800,9.5100,0.1250,-0.0625,-0.0625,-0.1875,-0.5625,0.0000,132.5000,
2025-03-09 20:20:24.818,-0.0900,0.1600,9.5100,0.0625,-0.2500,-0.1875,-0.1875,-0.5625,0.0000,132.5000,
2025-03-09 20:20:24.828,-0.1000,0.1700,9.4900,0.1250,-0.0625,-0.0625,-0.1875,-0.5625,0.0000,132.5000,
2025-03-09 20:20:24.838,-0.1000,0.1600,9.5300,0.0625,-0.0625,-0.1250,-0.1875,-0.5625,0.0000,132.5000,
2025-03-09 20:20:24.848,-0.0900,0.1800,9.5000,0.0000,-0.0625,0.0000,-0.1875,-0.5625,0.0000,132.5000,
2025-03-09 20:20:24.858,-0.0900,0.1700,9.4800,0.1250,-0.0625,0.0000,-0.1875,-0.5625,0.0000,132.5000,
2025-03-09 20:20:24.918,-0.0900,0.1700,9.4800,-0.0625,-0.1250,0.0000,-0.1875,-0.5625,0.0000,132.5000,
2025-03-09 20:20:24.918,-0.1000,0.1700,9.4900,0.0625,-0.2500,0.0000,-0.1875,-0.5625,0.0000,132.5000,
2025-03-09 20:20:24.918,-0.1000,0.1900,9.5000,0.0000,-0.3125,-0.0625,-0.1875,-0.5625,0.0000,132.5000,
2025-03-09 20:20:24.918,-0.1100,0.1500,9.5100,-0.0625,0.0000,0.0000,-0.1875,-0.5625,0.0000,132.5000,
2025-03-09 20:20:24.918,-0.1000,0.1800,9.5200,0.0625,0.0000,0.0000,-0.1875,-0.5625,0.0000,132.5000,
2025-03-09 20:20:24.938,-0.1100,0.1600,9.4800,0.1250,-0.0625,0.0000,-0.1875,-0.5625,0.0000,132.5000,
2025-03-09 20:20:24.950,-0.1100,0.1600,9.4900,0.1250,-0.0625,0.1875,-0.1875,-0.5625,0.0000,132.5000,
2025-03-09 20:20:24.969,-0.1200,0.1900,9.5200,0.0625,-0.0625,0.0000,-0.1875,-0.5625,0.0000,132.5000,
2025-03-09 20:20:24.980,-0.1000,0.1700,9.5000,0.0625,-0.1250,0.1250,-0.1875,-0.5625,0.0000,132.5000,
2025-03-09 20:20:25.000,-0.1100,0.1500,9.5000,0.1250,-0.0625,-0.0625,-0.1875,-0.5625,0.0000,132.5000,
2025-03-09 20:20:25.019,-0.1100,0.1900,9.5200,0.1250,0.0000,-0.0625,-0.1875,-0.5625,0.0000,132.5000,
2025-03-09 20:20:25.029,-0.0900,0.1600,9.5100,0.0625,0.0000,-0.0625,-0.2500,-0.5625,0.0000,132.5000,
2025-03-09 20:20:25.055,-0.0900,0.1900,9.4900,-0.0625,-0.1250,0.0000,-0.2500,-0.5625,0.0000,132.5000,
2025-03-09 20:20:25.069,-0.0900,0.1800,9.5100,0.0000,-0.1875,-0.0625,-0.2500,-0.5625,0.0000,132.5000,
2025-03-09 20:20:25.079,-0.1000,0.1400,9.5000,0.0000,-0.0625,0.0000,-0.2500,-0.5625,0.0000,132.5000,
2025-03-09 20:20:25.100,-0.1100,0.1700,9.5000,0.0000,0.0000,-0.1875,-0.2500,-0.5625,0.0000,132.5000,
2025-03-09 20:20:25.119,-0.0900,0.1800,9.5200,0.0000,0.0000,0.0000,-0.2500,-0.5625,0.0000,132.5000,
2025-03-09 20:20:25.129,-0.0900,0.1800,9.5300,-0.0625,-0.0625,0.0000,-0.2500,-0.5625,0.0000,132.5000,
2025-03-09 20:20:25.150,-0.0900,0.1600,9.4800,-0.0625,-0.0625,0.0625,-0.2500,-0.5625,0.0000,132.5000,
2025-03-09 20:20:25.190,-0.1100,0.2000,9.5100,0.0625,0.0000,-0.0625,-0.2500,-0.5625,0.0000,132.5000,
2025-03-09 20:20:25.210,-0.0900,0.1700,9.4800,-0.0625,0.1875,-0.1250,-0.2500,-0.6250,0.0000,132.5000,
2025-03-09 20:20:25.210,-0.1000,0.1800,9.5100,0.0000,-0.1250,-0.1250,-0.2500,-0.6250,0.0000,132.5000,
2025-03-09 20:20:25.220,-0.0900,0.1900,9.5000,-0.0625,-0.0625,0.0000,-0.2500,-0.6250,0.0000,132.5000,
2025-03-09 20:20:25.230,-0.1000,0.1700,9.5300,-0.0625,-0.1875,0.0625,-0.2500,-0.6250,0.0000,132.5000,
2025-03-09 20:20:25.250,-0.1000,0.1800,9.5000,0.0625,0.0000,0.0000,-0.2500,-0.6250,0.0000,132.5000,
2025-03-09 20:20:25.260,-0.1100,0.1800,9.5100,0.0000,-0.1250,-0.0625,-0.2500,-0.6250,0.0000,132.5000,
2025-03-09 20:20:25.280,-0.1100,0.1700,9.5300,-0.0625,0.1250,-0.0625,-0.2500,-0.6250,0.0000,132.5000,
2025-03-09 20:20:25.300,-0.0900,0.1400,9.5000,0.0000,-0.0625,0.0000,-0.2500,-0.6250,0.0000,132.5000,
2025-03-09 20:20:25.320,-0.1000,0.1700,9.5000,0.0625,-0.0625,-0.1250,-0.2500,-0.6250,0.0000,132.5000,
2025-03-09 20:20:25.330,-0.1000,0.2000,9.5300,-0.0625,0.0000,0.1250,-0.2500,-0.6250,0.0000,132.5000,
2025-03-09 20:20:25.351,-0.1000,0.1500,9.5000,-0.1250,-0.0625,-0.0625,-0.2500,-0.6250,0.0000,132.5000,
2025-03-09 20:20:25.361,-0.0900,0.1500,9.5000,-0.0625,0.0000,-0.1250,-0.2500,-0.6250,0.0000,132.5000,
2025-03-09 20:20:25.374,-0.1100,0.1900,9.5100,0.0000,-0.0625,-0.1875,-0.2500,-0.6250,0.0000,132.5000,
2025-03-09 20:20:25.400,-0.1200,0.1800,9.4900,-0.1875,0.0000,-0.1250,-0.2500,-0.6250,0.0000,132.5000,
2025-03-09 20:20:25.410,-0.1100,0.1600,9.5100,0.0625,0.0000,0.0000,-0.2500,-0.6250,0.0000,132.5000,
2025-03-09 20:20:25.430,-0.1100,0.1600,9.5400,-0.1250,-0.1250,-0.1250,-0.2500,-0.6250,0.0000,132.5000,
2025-03-09 20:20:25.452,-0.0900,0.1800,9.5000,-0.1250,-0.1250,0.0000,-0.2500,-0.6250,0.0000,132.5000,
2025-03-09 20:20:25.492,-0.0900,0.1700,9.5200,-0.1250,0.0625,-0.1875,-0.2500,-0.6250,0.0000,132.5000,
2025-03-09 20:20:25.502,-0.1100,0.1600,9.5100,0.0000,-0.0625,0.0000,-0.2500,-0.6250,0.0000,132.5000,
2025-03-09 20:20:25.502,-0.0800,0.1700,9.4900,0.0625,0.0000,-0.1250,-0.2500,-0.6250,0.0000,132.5000,
2025-03-09 20:20:25.522,-0.1000,0.1600,9.5200,0.0625,-0.0625,0.0625,-0.2500,-0.6250,0.0000,132.5000,
2025-03-09 20:20:25.532,-0.1100,0.1700,9.5200,-0.0625,0.0625,-0.0625,-0.2500,-0.6250,0.0000,132.5000,
2025-03-09 20:20:25.562,-0.1100,0.1900,9.4700,-0.1250,0.0000,0.1250,-0.2500,-0.6250,0.0000,132.5000,
2025-03-09 20:20:25.572,-0.0900,0.1700,9.5100,0.0625,-0.0625,-0.0625,-0.2500,-0.6250,0.0000,132.5000,
2025-03-09 20:20:25.575,-0.1000,0.1700,9.5300,0.0000,-0.0625,-0.1250,-0.2500,-0.6250,0.0000,132.5000,
2025-03-09 20:20:25.593,-0.1100,0.1800,9.5100,0.0625,0.0625,0.0625,-0.2500,-0.6250,0.0000,132.5000,
2025-03-09 20:20:25.612,-0.1100,0.1800,9.4900,0.0625,-0.0625,0.1250,-0.2500,-0.6250,0.0000,132.5000,
2025-03-09 20:20:25.633,-0.0900,0.1600,9.5200,0.0000,0.1875,-0.0625,-0.2500,-0.6250,0.0000,132.5000,
2025-03-09 20:20:25.653,-0.1100,0.1800,9.5100,0.0000,0.0000,0.1250,-0.2500,-0.6250,0.0000,132.5000,
2025-03-09 20:20:25.663,-0.0900,0.1600,9.5000,0.0625,0.0625,0.0625,-0.2500,-0.6250,0.0000,132.5000,
2025-03-09 20:20:25.675,-0.1100,0.1500,9.5000,0.0625,-0.1250,0.0625,-0.2500,-0.6250,0.0000,132.5000,
2025-03-09 20:20:25.687,-0.1000,0.1700,9.5000,0.0625,-0.0625,0.0625,-0.2500,-0.6250,0.0000,132.5000,
2025-03-09 20:20:25.697,-0.1100,0.1800,9.4900,0.1250,0.0000,0.0625,-0.2500,-0.6250,0.0000,132.5000,
2025-03-09 20:20:25.705,-0.1000,0.1700,9.4800,0.0000,0.1875,-0.0625,-0.2500,-0.6250,0.0000,132.5000,
2025-03-09 20:20:25.715,-0.0800,0.1600,9.5100,-0.0625,0.0000,-0.0625,-0.2500,-0.6250,0.0000,132.5000,
2025-03-09 20:20:25.727,-0.0900,0.1700,9.4900,0.0000,-0.1250,0.1875,-0.2500,-0.6250,0.0000,132.5000,
2025-03-09 20:20:25.747,-0.1000,0.1700,9.4800,0.0625,-0.0625,0.0625,-0.2500,-0.6250,0.0000,132.5000,
2025-03-09 20:20:25.756,-0.0900,0.1500,9.5100,0.0000,0.1875,0.0625,-0.2500,-0.6250,0.0000,132.5000,
2025-03-09 20:20:25.797,-0.1100,0.1700,9.5000,-0.0625,0.1875,-0.0625,-0.2500,-0.6250,0.0000,132.5000,
2025-03-09 20:20:25.797,-0.1100,0.1900,9.5200,0.0625,-0.1250,0.0000,-0.2500,-0.6250,0.0000,132.5000,
2025-03-09 20:20:25.797,-0.0900,0.1700,9.5000,-0.0625,0.1250,0.0000,-0.2500,-0.6250,0.0000,132.5000,
2025-03-09 20:20:25.797,-0.0900,0.1800,9.5100,0.1250,-0.0625,0.0625,-0.2500,-0.6250,0.0000,132.5000,
2025-03-09 20:20:25.807,-0.1100,0.1600,9.4900,0.3125,0.0000,0.0625,-0.2500,-0.6250,0.0000,132.5000,
2025-03-09 20:20:25.817,-0.0900,0.1700,9.5100,0.0000,0.0000,0.0625,-0.2500,-0.6250,0.0000,132.5000,
2025-03-09 20:20:25.827,-0.1000,0.1600,9.5000,0.1250,0.0625,0.0625,-0.2500,-0.6250,0.0000,132.5000,
2025-03-09 20:20:25.838,-0.1200,0.1700,9.5500,0.0625,0.0000,0.0625,-0.2500,-0.6250,0.0000,132.5000,
2025-03-09 20:20:25.847,-0.1200,0.1700,9.4800,0.0625,0.0000,0.1250,-0.2500,-0.6250,0.0000,132.5000,
2025-03-09 20:20:25.888,-0.1100,0.1700,9.5200,0.0000,0.1250,0.0625,-0.2500,-0.6250,0.0000,132.5000,
2025-03-09 20:20:25.888,-0.1300,0.1700,9.5100,-0.1250,0.0625,0.0625,-0.2500,-0.6250,0.0000,132.5000,
2025-03-09 20:20:25.888,-0.1100,0.1600,9.5000,0.0625,0.0625,0.0625,-0.2500,-0.6250,0.0000,132.5000,
2025-03-09 20:20:25.888,-0.1000,0.1800,9.4900,-0.0625,0.0625,0.0000,-0.2500,-0.6250,0.0000,132.5000,
2025-03-09 20:20:25.899,-0.1000,0.1700,9.4900,-0.1250,0.1250,0.0625,-0.2500,-0.6250,0.0000,132.5000,
2025-03-09 20:20:25.909,-0.1200,0.1500,9.5000,0.1250,-0.0625,0.1250,-0.2500,-0.6250,0.0000,132.5000,
2025-03-09 20:20:25.920,-0.0900,0.1700,9.5100,0.1250,0.0625,0.0625,-0.2500,-0.6250,0.0000,132.5000,
2025-03-09 20:20:25.929,-0.1000,0.1500,9.5100,0.1875,0.0625,-0.0625,-0.2500,-0.6250,0.0000,132.5000,
2025-03-09 20:20:25.929,-0.1000,0.1700,9.4900,-0.0625,0.0625,-0.1250,-0.2500,-0.6250,0.0000,132.5000,
2025-03-09 20:20:25.949,-0.1000,0.1600,9.4800,0.0000,-0.0625,0.0000,-0.2500,-0.6250,0.0000,132.5000,
2025-03-09 20:20:25.970,-0.1000,0.1800,9.4900,0.0000,0.0625,0.1250,-0.2500,-0.6250,0.0000,132.5000,
2025-03-09 20:20:25.970,-0.1000,0.1700,9.5100,0.0000,-0.0625,0.1250,-0.2500,-0.6250,0.0000,132.5000,
2025-03-09 20:20:25.980,-0.1000,0.1600,9.5100,0.1250,-0.0625,-0.0625,-0.2500,-0.6250,0.0000,132.5000,
2025-03-09 20:20:25.990,-0.1100,0.1700,9.4900,-0.0625,0.0000,0.0625,-0.2500,-0.6250,0.0000,132.5000,
2025-03-09 20:20:25.990,-0.1100,0.1500,9.5100,0.0625,0.0625,0.0625,-0.2500,-0.6250,0.0000,132.5000,
2025-03-09 20:20:26.010,-0.0900,0.1800,9.4900,0.0625,-0.1250,0.0000,-0.2500,-0.6250,0.0000,132.5000,
2025-03-09 20:20:26.010,-0.1000,0.1700,9.5200,0.1250,0.0000,-0.0625,-0.2500,-0.6250,0.0000,132.5000,
2025-03-09 20:20:26.020,-0.1000,0.1600,9.5100,0.0000,0.0000,0.1250,-0.2500,-0.6250,0.0000,132.5000,
2025-03-09 20:20:26.040,-0.1100,0.1700,9.5200,0.0625,-0.1250,0.0625,-0.2500,-0.6250,0.0000,132.5000,
2025-03-09 20:20:26.040,-0.1000,0.1900,9.5000,0.0000,0.0000,0.0625,-0.2500,-0.6250,0.0000,132.5000,
2025-03-09 20:20:26.050,-0.1200,0.1700,9.5400,0.0625,-0.0625,-0.0625,-0.2500,-0.6250,0.0000,132.5000,
2025-03-09 20:20:26.070,-0.1100,0.1700,9.4800,-0.0625,0.1250,-0.0625,-0.2500,-0.6250,0.0000,132.5000,
2025-03-09 20:20:26.110,-0.1100,0.1900,9.5100,-0.0625,0.0000,0.0625,-0.2500,-0.6250,0.0000,132.5000,
2025-03-09 20:20:26.110,-0.1000,0.1700,9.5300,0.0625,0.1875,-0.0625,-0.2500,-0.6250,0.0000,132.5000,
2025-03-09 20:20:26.110,-0.1100,0.1700,9.5000,-0.0625,0.1250,-0.0625,-0.2500,-0.6250,0.0000,132.5000,
2025-03-09 20:20:26.110,-0.0900,0.1500,9.5200,0.1250,0.0625,-0.1250,-0.2500,-0.6250,0.0000,132.5000,
2025-03-09 20:20:26.110,-0.0900,0.1700,9.5500,0.1875,0.0000,0.0000,-0.2500,-0.6250,0.0000,132.5000,
2025-03-09 20:20:26.130,-0.1100,0.1700,9.4700,0.0000,-0.0625,0.0625,-0.2500,-0.6250,0.0000,132.5000,
2025-03-09 20:20:26.130,-0.1000,0.1700,9.4800,-0.0625,-0.1250,-0.1250,-0.2500,-0.6250,0.0000,132.5000,
2025-03-09 20:20:26.140,-0.1200,0.1500,9.4900,0.0000,0.1250,-0.1250,-0.2500,-0.6250,0.0000,132.5000,
2025-03-09 20:20:26.160,-0.1100,0.1900,9.4900,0.1250,0.1250,0.1250,-0.2500,-0.6250,0.0000,132.5000,
2025-03-09 20:20:26.160,-0.1100,0.1700,9.5100,-0.0625,-0.0625,-0.1250,-0.2500,-0.6250,0.0000,132.5000,
2025-03-09 20:20:26.177,-0.1000,0.1700,9.5100,0.0000,0.1250,-0.0625,-0.2500,-0.6250,0.0000,132.5000,
2025-03-09 20:20:26.190,-0.1000,0.1600,9.5200,0.0000,0.0625,0.0625,-0.2500,-0.6250,0.0000,132.5000,
2025-03-09 20:20:26.190,-0.1000,0.1700,9.4700,0.1250,0.0625,-0.1250,-0.2500,-0.6250,0.0000,132.5000,
2025-03-09 20:20:26.230,-0.1000,0.1500,9.5100,0.0000,0.0000,-0.0625,-0.2500,-0.6250,0.0000,132.5000,
2025-03-09 20:20:26.230,-0.0800,0.1700,9.5000,0.1250,0.0000,0.0625,-0.2500,-0.6250,0.0000,132.5000,
2025-03-09 20:20:26.230,-0.1000,0.1900,9.5200,0.0625,-0.1250,-0.0625,-0.2500,-0.6250,0.0000,132.5000,
2025-03-09 20:20:26.251,-0.1000,0.1400,9.5300,0.1250,0.0000,-0.0625,-0.2500,-0.6250,0.0000,132.5000,
2025-03-09 20:20:26.251,-0.1000,0.1600,9.4900,0.0625,0.0000,-0.1875,-0.2500,-0.6250,0.0000,132.5000,
2025-03-09 20:20:26.251,-0.1100,0.1800,9.4900,0.1250,0.1250,-0.1875,-0.2500,-0.6250,0.0000,132.5000,
2025-03-09 20:20:26.260,-0.1100,0.1600,9.5100,0.0625,0.0000,-0.1250,-0.2500,-0.6250,0.0000,132.5000,
2025-03-09 20:20:26.281,-0.1200,0.1600,9.4900,0.0000,0.0000,0.1250,-0.2500,-0.6250,0.0000,132.5000,
2025-03-09 20:20:26.281,-0.1000,0.1900,9.4700,0.0000,0.1875,-0.1250,-0.2500,-0.6250,0.0000,132.5000,
2025-03-09 20:20:26.301,-0.1100,0.1500,9.4900,-0.0625,0.0625,0.0625,-0.2500,-0.6250,0.0000,132.5000,
2025-03-09 20:20:26.311,-0.1100,0.1600,9.5000,0.0625,0.0000,-0.1250,-0.2500,-0.6250,0.0000,132.5000,
2025-03-09 20:20:26.311,-0.1100,0.1600,9.5000,0.1250,0.1250,-0.1250,-0.2500,-0.6250,0.0000,132.5000,
2025-03-09 20:20:26.321,-0.1100,0.1600,9.5000,-0.0625,0.0625,-0.1250,-0.2500,-0.6250,0.0000,132.5000,
2025-03-09 20:20:26.341,-0.0900,0.1600,9.5200,0.0625,0.0000,0.1250,-0.2500,-0.6250,0.0000,132.5000,
2025-03-09 20:20:26.341,-0.1000,0.1600,9.5100,0.0625,0.0625,-0.1250,-0.2500,-0.6250,0.0000,132.5000,
2025-03-09 20:20:26.351,-0.1000,0.1800,9.5100,0.0625,0.1250,0.0625,-0.2500,-0.6250,0.0000,132.5000,
2025-03-09 20:20:26.416,-0.0900,0.1900,9.5100,0.0625,0.0000,0.1250,-0.2500,-0.6250,0.0000,132.5000,
2025-03-09 20:20:26.416,-0.0900,0.1800,9.5200,-0.0625,0.0625,-0.1875,-0.2500,-0.6250,0.0000,132.5000,
2025-03-09 20:20:26.416,-0.1200,0.1600,9.5000,0.0000,0.0000,-0.0625,-0.2500,-0.6250,0.0000,132.5000,
2025-03-09 20:20:26.416,-0.0900,0.1800,9.4800,0.0000,0.0625,0.0000,-0.2500,-0.6250,0.0000,132.5000,
2025-03-09 20:20:26.416,-0.1200,0.1700,9.4900,0.0000,-0.0625,0.0625,-0.2500,-0.6250,0.0000,132.5000,
2025-03-09 20:20:26.416,-0.1200,0.1600,9.5000,0.0625,0.0000,-0.1250,-0.2500,-0.6250,0.0000,132.5000,
2025-03-09 20:20:26.426,-0.1000,0.1600,9.5200,-0.0625,0.0625,0.0625,-0.2500,-0.6250,0.0000,132.5000,
2025-03-09 20:20:26.436,-0.1100,0.1800,9.5200,-0.1250,0.0625,-0.0625,-0.2500,-0.6250,0.0000,132.5000,
2025-03-09 20:20:26.446,-0.1100,0.1600,9.4700,0.0625,0.2500,-0.1250,-0.2500,-0.6250,0.0000,132.5000,
2025-03-09 20:20:26.466,-0.1100,0.1600,9.5000,0.0000,-0.0625,-0.1250,-0.2500,-0.6250,0.0000,132.5000,
2025-03-09 20:20:26.466,-0.1000,0.1800,9.5000,0.0625,-0.0625,-0.1250,-0.2500,-0.6250,0.0000,132.5000,
2025-03-09 20:20:26.478,-0.0800,0.1900,9.5100,-0.1250,-0.0625,0.0625,-0.2500,-0.6250,0.0000,132.5000,
2025-03-09 20:20:26.497,-0.1100,0.1600,9.5000,0.0000,0.1250,-0.0625,-0.2500,-0.6250,0.0000,132.5000,
2025-03-09 20:20:26.497,-0.1000,0.1600,9.5400,0.1250,0.1250,-0.0625,-0.2500,-0.6250,0.0000,132.5000,
2025-03-09 20:20:26.507,-0.1100,0.1800,9.4800,0.0000,0.1250,0.0000,-0.2500,-0.6250,0.0000,132.5000,
2025-03-09 20:20:26.517,-0.0800,0.1700,9.5000,0.1250,0.1250,-0.0625,-0.2500,-0.6250,0.0000,132.5000,
2025-03-09 20:20:26.527,-0.1000,0.1900,9.5000,0.1250,0.0000,-0.0625,-0.2500,-0.6250,0.0000,132.5000,
2025-03-09 20:20:26.559,-0.1200,0.1500,9.5000,0.0000,0.1875,0.0625,-0.2500,-0.6250,0.0000,132.5000,
2025-03-09 20:20:26.559,-0.0900,0.1600,9.4800,-0.0625,0.0625,-0.0625,-0.2500,-0.6250,0.0000,132.5000,
2025-03-09 20:20:26.567,-0.0900,0.1600,9.5200,-0.0625,-0.1875,0.0000,-0.2500,-0.6250,0.0000,132.5000,
2025-03-09 20:20:26.568,-0.1100,0.1800,9.4900,0.0625,-0.0625,-0.1250,-0.2500,-0.6250,0.0000,132.5000,
2025-03-09 20:20:26.578,-0.1000,0.1800,9.5100,-0.0625,0.0000,0.0625,-0.2500,-0.6250,0.0000,132.5000,
2025-03-09 20:20:26.590,-0.1000,0.1600,9.5500,0.0000,0.0625,-0.1250,-0.2500,-0.6250,0.0000,132.5000,
2025-03-09 20:20:26.599,-0.1000,0.1700,9.4700,0.1250,-0.1250,0.0625,-0.2500,-0.6250,0.0000,132.5000,
2025-03-09 20:20:26.609,-0.1000,0.1600,9.5100,0.1250,0.0000,0.0000,-0.2500,-0.6250,0.0000,132.5000,
2025-03-09 20:20:26.620,-0.1100,0.1700,9.4900,0.0000,-0.1250,-0.0625,-0.2500,-0.6250,0.0000,132.5000,
2025-03-09 20:20:26.629,-0.0900,0.1900,9.5100,-0.0625,-0.1250,-0.1250,-0.2500,-0.6250,0.0000,132.5000,
2025-03-09 20:20:26.649,-0.1000,0.1800,9.5200,0.0625,-0.1250,-0.0625,-0.2500,-0.6250,0.0000,132.5000,
2025-03-09 20:20:26.650,-0.1000,0.1700,9.5100,0.0000,-0.1250,-0.1250,-0.2500,-0.6250,0.0000,132.5000,
2025-03-09 20:20:26.660,-0.1000,0.1500,9.4900,0.0625,0.0000,0.1250,-0.2500,-0.6250,0.0000,132.5000,
2025-03-09 20:20:26.713,-0.1000,0.1900,9.5100,0.0000,-0.1250,0.0000,-0.2500,-0.6250,0.0000,132.5000,
2025-03-09 20:20:26.713,-0.1100,0.1700,9.5200,0.0625,-0.0625,-0.0625,-0.2500,-0.6250,0.0000,132.5000,
2025-03-09 20:20:26.713,-0.1000,0.1700,9.5500,0.0625,-0.1875,-0.1250,-0.2500,-0.6250,0.0000,132.5000,
2025-03-09 20:20:26.713,-0.0900,0.1700,9.4800,0.1875,-0.1875,-0.0625,-0.2500,-0.6250,0.0000,132.5000,
2025-03-09 20:20:26.713,-0.1200,0.1500,9.5200,0.1250,-0.0625,-0.0625,-0.2500,-0.6250,0.0000,132.5000,
2025-03-09 20:20:26.713,-0.0900,0.1600,9.5000,0.0625,-0.0625,-0.1250,-0.2500,-0.6250,0.0000,132.5000,
2025-03-09 20:20:26.733,-0.1100,0.1600,9.5000,-0.0625,0.0625,-0.0625,-0.2500,-0.6250,0.0000,132.5000,
2025-03-09 20:20:26.741,-0.1000,0.1800,9.5000,-0.0625,0.1250,0.0000,-0.2500,-0.6250,0.0000,132.5000,
2025-03-09 20:20:26.751,-0.1100,0.1500,9.4800,0.0000,-0.0625,0.0000,-0.2500,-0.6250,0.0000,132.5000,
2025-03-09 20:20:26.762,-0.1100,0.1800,9.5000,-0.0625,0.0000,-0.1875,-0.2500,-0.6250,0.0000,132.5000,
2025-03-09 20:20:26.762,-0.1000,0.1700,9.5200,0.1250,0.0000,-0.1250,-0.2500,-0.6250,0.0000,132.5000,
2025-03-09 20:20:26.792,-0.1100,0.1600,9.5000,0.0625,-0.0625,0.1250,-0.2500,-0.6250,0.0000,132.5000,
2025-03-09 20:20:26.813,-0.1200,0.1600,9.4700,0.0000,0.0000,-0.0625,-0.2500,-0.6250,0.0000,132.5000,
2025-03-09 20:20:26.813,-0.1100,0.1700,9.4900,0.0000,0.0000,-0.1250,-0.2500,-0.6250,0.0000,132.5000,
2025-03-09 20:20:26.824,-0.1100,0.1500,9.5200,0.0625,-0.0625,-0.1250,-0.2500,-0.6250,0.0000,132.5000,
2025-03-09 20:20:26.850,-0.0800,0.1500,9.5000,0.1250,-0.1250,-0.0625,-0.2500,-0.6250,0.0000,132.5000,
2025-03-09 20:20:26.853,-0.1000,0.1500,9.5000,0.1250,0.0000,0.0000,-0.2500,-0.6250,0.0000,132.5000,
2025-03-09 20:20:26.879,-0.1000,0.1700,9.5000,0.0625,0.1875,-0.1250,-0.2500,-0.6250,0.0000,132.5000,
2025-03-09 20:20:26.884,-0.0900,0.1400,9.5000,0.0625,-0.0625,0.0625,-0.2500,-0.6250,0.0000,132.5000,
2025-03-09 20:20:26.915,-0.0900,0.1700,9.5000,-0.0625,-0.0625,-0.0625,-0.2500,-0.6250,0.0000,132.5000,
2025-03-09 20:20:26.925,-0.1000,0.1700,9.5000,0.0625,-0.1875,-0.1250,-0.2500,-0.6250,0.0000,132.5000,
2025-03-09 20:20:26.944,-0.1000,0.1600,9.5100,0.0625,0.0625,-0.1875,-0.2500,-0.6250,0.0000,132.5000,
2025-03-09 20:20:26.954,-0.1100,0.2100,9.5000,-0.0625,-0.0625,-0.1250,-0.2500,-0.6250,0.0000,132.5000,
2025-03-09 20:20:27.005,-0.1100,0.1900,9.5200,0.0000,0.0000,-0.0625,-0.2500,-0.6250,0.0000,132.5000,
2025-03-09 20:20:27.005,-0.1000,0.1800,9.5100,0.0625,0.0625,-0.1875,-0.2500,-0.6250,0.0000,132.5000,
2025-03-09 20:20:27.005,-0.0700,0.1600,9.5000,0.0625,0.1250,-0.1875,-0.2500,-0.6250,0.0000,132.5000,
2025-03-09 20:20:27.025,-0.1000,0.1700,9.5200,-0.0625,0.0625,0.0625,-0.2500,-0.6250,0.0000,132.5000,
2025-03-09 20:20:27.035,-0.0900,0.1900,9.5000,0.1250,0.0000,-0.0625,-0.2500,-0.6250,0.0000,132.5000,
2025-03-09 20:20:27.065,-0.1100,0.1700,9.5100,0.0625,0.0000,-0.0625,-0.2500,-0.6250,0.0000,132.5000,
2025-03-09 20:20:27.079,-0.1000,0.1700,9.5300,0.1250,-0.1875,0.0625,-0.2500,-0.6250,0.0000,132.5000,
2025-03-09 20:20:27.095,-0.1100,0.1800,9.5400,-0.1250,-0.1875,0.0000,-0.2500,-0.6250,0.0000,132.5000,
2025-03-09 20:20:27.108,-0.1000,0.1600,9.4900,0.0625,0.1250,0.0000,-0.2500,-0.6250,0.0000,132.5000,
2025-03-09 20:20:27.128,-0.1000,0.1600,9.5100,0.0000,0.2500,-0.1250,-0.2500,-0.6250,0.0000,132.5000,
2025-03-09 20:20:27.138,-0.1100,0.1700,9.5200,-0.0625,0.0000,0.1250,-0.2500,-0.6250,0.0000,132.5000,
2025-03-09 20:20:27.159,-0.1100,0.1600,9.4700,-0.0625,0.0000,0.0000,-0.2500,-0.6250,0.0000,132.5000,
2025-03-09 20:20:27.179,-0.1000,0.1600,9.5500,0.0000,0.0625,0.0000,-0.2500,-0.6250,0.0000,132.5000,
2025-03-09 20:20:27.189,-0.1200,0.1500,9.5100,0.0000,-0.0625,-0.0625,-0.2500,-0.6250,0.0000,132.5000,
2025-03-09 20:20:27.209,-0.1000,0.1800,9.4900,-0.1250,0.0000,0.0000,-0.2500,-0.6250,0.0000,132.5000,
2025-03-09 20:20:27.219,-0.0900,0.1700,9.5000,-0.1875,0.0625,-0.1250,-0.2500,-0.6250,0.0000,132.5000,
2025-03-09 20:20:27.240,-0.1200,0.1600,9.5000,0.0625,-0.0625,0.0625,-0.2500,-0.6250,0.0000,132.5000,
2025-03-09 20:20:27.259,-0.1300,0.1700,9.4900,0.1250,0.0000,0.0625,-0.2500,-0.6250,0.0000,132.5000,
2025-03-09 20:20:27.311,-0.1000,0.2000,9.5100,0.0625,0.0625,-0.0625,-0.2500,-0.6250,0.0000,132.5000,
2025-03-09 20:20:27.311,-0.1100,0.1700,9.4900,0.0000,0.0000,0.0000,-0.2500,-0.6250,0.0000,132.5000,
2025-03-09 20:20:27.311,-0.1100,0.1500,9.4900,0.0625,-0.2500,0.0000,-0.2500,-0.6250,0.0000,132.5000,
2025-03-09 20:20:27.331,-0.1100,0.1800,9.5100,0.1250,-0.0625,0.0000,-0.2500,-0.6250,0.0000,132.5000,
2025-03-09 20:20:27.341,-0.1000,0.1600,9.5000,-0.1250,0.0000,0.0625,-0.2500,-0.6250,0.0000,132.5000,
2025-03-09 20:20:27.361,-0.0900,0.1600,9.4900,0.0000,0.0000,0.0000,-0.2500,-0.6250,0.0000,132.5000,
2025-03-09 20:20:27.375,-0.1000,0.1600,9.4900,0.0625,-0.1250,0.1250,-0.2500,-0.6250,0.0000,132.5000,
2025-03-09 20:20:27.394,-0.0900,0.1500,9.5100,-0.0625,-0.1250,-0.0625,-0.2500,-0.6250,0.0000,132.5000,
2025-03-09 20:20:27.412,-0.0900,0.1800,9.5000,-0.0625,-0.1250,0.0625,-0.2500,-0.6250,0.0000,132.5000,
2025-03-09 20:20:27.423,-0.1000,0.1600,9.4900,0.0000,-0.1250,0.0000,-0.2500,-0.6250,0.0000,132.5000,
2025-03-09 20:20:27.432,-0.1000,0.1800,9.5200,0.0625,0.0000,0.0000,-0.2500,-0.6250,0.0000,132.5000,
2025-03-09 20:20:27.466,-0.1000,0.1600,9.5000,-0.1875,0.0625,0.0000,-0.2500,-0.6250,0.0000,132.5000,
2025-03-09 20:20:27.485,-0.0900,0.1700,9.5000,0.1250,-0.1250,0.1875,-0.2500,-0.6250,0.0000,132.5000,
2025-03-09 20:20:27.496,-0.1000,0.1700,9.5000,0.0625,0.0625,-0.0625,-0.2500,-0.6250,0.0000,132.5000,
2025-03-09 20:20:27.508,-0.0900,0.1400,9.5000,-0.0625,0.0625,0.1250,-0.2500,-0.6250,0.0000,132.5000,
2025-03-09 20:20:27.517,-0.0800,0.1800,9.5100,-0.0625,-0.0625,0.1875,-0.2500,-0.6250,0.0000,132.5000,
2025-03-09 20:20:27.536,-0.1100,0.1600,9.5000,-0.0625,0.0000,0.0625,-0.2500,-0.6250,0.0000,132.5000,
2025-03-09 20:20:27.557,-0.1100,0.1800,9.4800,-0.0625,-0.0625,0.0000,-0.2500,-0.6250,0.0000,132.5000,
2025-03-09 20:20:27.608,-0.1000,0.1500,9.5100,0.0000,0.0625,0.0625,-0.2500,-0.6250,0.0000,132.5000,
2025-03-09 20:20:27.608,-0.1000,0.1700,9.5200,-0.0625,-0.1250,0.0625,-0.2500,-0.6250,0.0000,132.5000,
2025-03-09 20:20:27.608,-0.1000,0.1600,9.5100,-0.1250,0.0000,-0.0625,-0.2500,-0.6250,0.0000,132.5000,
2025-03-09 20:20:27.608,-0.0900,0.1800,9.4700,-0.0625,0.0000,-0.0625,-0.2500,-0.6250,0.0000,132.5000,
2025-03-09 20:20:27.617,-0.1000,0.1800,9.5000,-0.1250,0.0000,-0.1875,-0.2500,-0.6250,0.0000,132.5000,
2025-03-09 20:20:27.627,-0.1100,0.1800,9.5000,0.0000,0.2500,-0.0625,-0.2500,-0.6250,0.0000,132.5000,
2025-03-09 20:20:27.638,-0.1100,0.1600,9.5100,-0.0625,0.1250,0.0000,-0.2500,-0.6250,0.0000,132.5000,
2025-03-09 20:20:27.649,-0.1000,0.1500,9.5000,0.0625,0.0625,-0.0625,-0.2500,-0.6250,0.0000,132.5000,
2025-03-09 20:20:27.658,-0.1100,0.1700,9.4800,-0.1875,0.0625,-0.1250,-0.2500,-0.6250,0.0000,132.5000,
2025-03-09 20:20:27.669,-0.1100,0.1800,9.5000,-0.0625,-0.0625,0.0000,-0.2500,-0.6250,0.0000,132.5000,
2025-03-09 20:20:27.678,-0.1100,0.1700,9.5000,0.0000,0.0625,-0.1250,-0.2500,-0.6250,0.0000,132.5000,
2025-03-09 20:20:27.692,-0.1000,0.1400,9.5000,-0.1250,0.1250,0.0625,-0.2500,-0.6250,0.0000,132.5000,
2025-03-09 20:20:27.700,-0.1100,0.1700,9.5100,0.0000,0.0000,0.0625,-0.2500,-0.6250,0.0000,132.5000,
2025-03-09 20:20:27.709,-0.1000,0.1600,9.4800,-0.1250,0.0000,0.0625,-0.2500,-0.6250,0.0000,132.5000,
2025-03-09 20:20:27.720,-0.1000,0.1700,9.4900,0.1875,-0.0625,0.1250,-0.2500,-0.6250,0.0000,132.5000,
2025-03-09 20:20:27.724,-0.1100,0.1600,9.5000,-0.0625,0.0000,-0.1250,-0.2500,-0.6250,0.0000,132.5000,
2025-03-09 20:20:27.751,-0.1000,0.1800,9.5100,0.0000,0.1250,-0.0625,-0.2500,-0.6250,0.0000,132.5000,
2025-03-09 20:20:27.751,-0.1000,0.1500,9.5200,-0.1250,0.0000,-0.0625,-0.2500,-0.6250,0.0000,132.5000,
2025-03-09 20:20:27.761,-0.1100,0.1800,9.4800,0.0000,0.0000,0.0000,-0.2500,-0.6250,0.0000,132.5000,
2025-03-09 20:20:27.771,-0.0900,0.1700,9.4900,0.0000,0.0000,-0.0625,-0.2500,-0.6250,0.0000,132.5000,
2025-03-09 20:20:27.782,-0.1000,0.1700,9.5000,-0.1250,0.1250,0.0000,-0.2500,-0.6250,0.0000,132.5000,
2025-03-09 20:20:27.782,-0.1100,0.1600,9.5000,0.0000,0.0625,0.0625,-0.2500,-0.6250,0.0000,132.5000,
2025-03-09 20:20:27.794,-0.1000,0.1700,9.5000,-0.0625,0.0000,-0.1250,-0.2500,-0.6250,0.0000,132.5000,
2025-03-09 20:20:27.801,-0.1000,0.1700,9.5000,-0.1250,0.1250,-0.1250,-0.2500,-0.6250,0.0000,132.5000,
2025-03-09 20:20:27.821,-0.1300,0.1600,9.5100,0.0000,0.1875,0.0000,-0.2500,-0.6250,0.0000,132.5000,
2025-03-09 20:20:27.821,-0.1000,0.1700,9.5200,-0.0625,0.0625,-0.0625,-0.2500,-0.6250,0.0000,132.5000,
2025-03-09 20:20:27.841,-0.1000,0.1900,9.5000,-0.0625,0.0000,-0.1250,-0.2500,-0.6250,0.0000,132.5000,
2025-03-09 20:20:27.841,-0.1100,0.1700,9.5200,-0.0625,0.1250,-0.0625,-0.2500,-0.6250,0.0000,132.5000,
2025-03-09 20:20:27.854,-0.1100,0.1600,9.4900,0.0000,-0.1250,-0.1875,-0.2500,-0.6250,0.0000,132.5000,
2025-03-09 20:20:27.905,-0.1000,0.1700,9.5100,0.0000,0.0625,-0.0625,-0.2500,-0.6250,0.0000,132.5000,
2025-03-09 20:20:27.905,-0.1000,0.1600,9.5000,0.0625,0.0625,-0.0625,-0.2500,-0.6250,0.0000,132.5000,
2025-03-09 20:20:27.905,-0.0900,0.1600,9.4900,-0.0625,-0.0625,-0.1250,-0.2500,-0.6250,0.0000,132.5000,
2025-03-09 20:20:27.905,-0.1000,0.1800,9.5100,0.0625,-0.0625,0.0000,-0.2500,-0.6250,0.0000,132.5000,
2025-03-09 20:20:27.905,-0.1000,0.1800,9.4900,-0.0625,-0.1250,-0.1250,-0.2500,-0.6250,0.0000,132.5000,
2025-03-09 20:20:27.916,-0.1000,0.1800,9.4900,-0.0625,0.0625,0.0000,-0.2500,-0.6250,0.0000,132.5000,
2025-03-09 20:20:27.925,-0.0900,0.1600,9.5200,-0.0625,-0.2500,-0.0625,-0.2500,-0.6250,0.0000,132.5000,
2025-03-09 20:20:27.935,-0.1000,0.1800,9.5100,-0.1875,0.0000,0.1250,-0.2500,-0.6250,0.0000,132.5000,
2025-03-09 20:20:27.945,-0.0900,0.1900,9.5200,0.0000,0.0000,0.0000,-0.2500,-0.6250,0.0000,132.5000,
2025-03-09 20:20:27.955,-0.0900,0.1700,9.5000,0.1250,0.3750,-0.0625,-0.2500,-0.6250,0.0000,132.5000,
2025-03-09 20:20:27.969,-0.1000,0.1400,9.5000,0.0000,-0.0625,0.0000,-0.2500,-0.6250,0.0000,132.5000,
2025-03-09 20:20:27.976,-0.1000,0.1500,9.4900,-0.0625,0.0000,-0.0625,-0.2500,-0.6250,0.0000,132.5000,
2025-03-09 20:20:27.988,-0.1100,0.1600,9.5300,-0.0625,0.0000,-0.0625,-0.2500,-0.6250,0.0000,132.5000,
2025-03-09 20:20:27.998,-0.1100,0.1700,9.5100,0.0625,-0.1250,-0.0625,-0.2500,-0.6250,0.0000,132.5000,
2025-03-09 20:20:28.007,-0.1000,0.1700,9.4700,0.0000,0.0000,-0.1250,-0.2500,-0.6250,0.0000,132.5000,
2025-03-09 20:20:28.018,-0.1100,0.1700,9.4900,0.0000,0.0000,-0.1875,-0.2500,-0.6250,0.0000,132.5000,
2025-03-09 20:20:28.028,-0.1100,0.1600,9.5100,-0.1875,0.1250,0.0000,-0.2500,-0.6250,0.0000,132.5000,
2025-03-09 20:20:28.038,-0.1000,0.1600,9.5000,0.0000,0.1250,0.0625,-0.2500,-0.6250,0.0000,132.5000,
2025-03-09 20:20:28.049,-0.0900,0.1400,9.4800,0.1875,0.0625,0.0625,-0.2500,-0.6250,0.0000,132.5000,
2025-03-09 20:20:28.049,-0.1200,0.1500,9.4800,-0.0625,0.0625,0.0000,-0.2500,-0.6250,0.0000,132.5000,
2025-03-09 20:20:28.060,-0.1000,0.1800,9.5300,-0.0625,-0.0625,-0.0625,-0.2500,-0.6250,0.0000,132.5000,
2025-03-09 20:20:28.101,-0.1100,0.1800,9.4800,0.1250,-0.1875,-0.0625,-0.2500,-0.6250,0.0000,132.5000,
2025-03-09 20:20:28.101,-0.0900,0.1700,9.5200,0.1875,-0.1250,-0.0625,-0.2500,-0.6250,0.0000,132.5000,
2025-03-09 20:20:28.101,-0.1100,0.1700,9.4900,-0.1250,0.1250,0.0000,-0.2500,-0.6250,0.0000,132.5000,
2025-03-09 20:20:28.101,-0.1100,0.1600,9.4900,-0.0625,0.0000,-0.0625,-0.2500,-0.6250,0.0000,132.5000,
2025-03-09 20:20:28.114,-0.0900,0.1600,9.4800,-0.1250,0.1250,0.0625,-0.2500,-0.6250,0.0000,132.5000,
2025-03-09 20:20:28.130,-0.0800,0.1800,9.5100,-0.3750,0.1250,-0.1250,-0.2500,-0.6250,0.0000,132.5000,
2025-03-09 20:20:28.146,-0.1000,0.1800,9.5000,0.0000,0.0625,-0.0625,-0.2500,-0.6250,0.0000,132.5000,
2025-03-09 20:20:28.146,-0.1000,0.1400,9.5000,0.0625,-0.0625,0.0625,-0.2500,-0.6250,0.0000,132.5000,
2025-03-09 20:20:28.151,-0.1100,0.1700,9.4900,0.0000,0.0625,-0.0625,-0.2500,-0.6250,0.0000,132.5000,
2025-03-09 20:20:28.201,-0.1100,0.1400,9.4800,0.0000,0.1875,0.0000,-0.2500,-0.6250,0.0000,132.5000,
2025-03-09 20:20:28.201,-0.1200,0.1700,9.5300,0.0625,-0.0625,0.1250,-0.2500,-0.6250,0.0000,132.5000,
2025-03-09 20:20:28.201,-0.1000,0.1700,9.5200,-0.0625,0.0000,0.1250,-0.2500,-0.6250,0.0000,132.5000,
2025-03-09 20:20:28.201,-0.1100,0.1600,9.5400,0.0625,0.0625,0.0000,-0.2500,-0.6250,0.0000,132.5000,
2025-03-09 20:20:28.201,-0.1000,0.1700,9.5100,0.0000,0.0000,0.0625,-0.2500,-0.6250,0.0000,132.5000,
2025-03-09 20:20:28.221,-0.1100,0.1600,9.4900,0.0000,0.1250,-0.0625,-0.2500,-0.6250,0.0000,132.5000,
2025-03-09 20:20:28.231,-0.1000,0.1800,9.5300,0.1250,0.0000,-0.1250,-0.2500,-0.6250,0.0000,132.5000,
2025-03-09 20:20:28.231,-0.1100,0.1600,9.5000,-0.1875,0.0000,-0.1250,-0.2500,-0.6250,0.0000,132.5000,
2025-03-09 20:20:28.241,-0.1100,0.1700,9.4800,-0.3125,-0.1875,0.1250,-0.2500,-0.6250,0.0000,132.5000,
2025-03-09 20:20:28.272,-0.1100,0.1600,9.5300,-0.3125,-0.3125,0.1250,-0.2500,-0.6250,0.0000,132.5000,
2025-03-09 20:20:28.272,-0.1100,0.1700,9.5100,-0.1250,-0.0625,0.1250,-0.2500,-0.6250,0.0000,132.5000,
2025-03-09 20:20:28.280,-0.1000,0.1900,9.5200,-0.3125,-0.0625,0.0625,-0.2500,-0.6250,0.0000,132.5000,
2025-03-09 20:20:28.293,-0.1000,0.1600,9.5300,-0.2500,-0.2500,0.1875,-0.2500,-0.6250,0.0000,132.5000,
2025-03-09 20:20:28.293,-0.1000,0.1500,9.5200,0.0000,-0.1250,0.5000,-0.2500,-0.6250,0.0000,132.5000,
2025-03-09 20:20:28.303,-0.1300,0.2000,9.5000,-0.0625,-0.1250,0.8750,-0.2500,-0.6250,0.0000,132.5000,
2025-03-09 20:20:28.345,-0.0100,0.0800,9.4900,-0.1875,0.0625,2.1250,-0.2500,-0.6250,0.0000,132.5000,
2025-03-09 20:20:28.345,-0.0800,0.1600,9.4900,-0.1875,-0.0625,2.8125,-0.2500,-0.6250,0.0000,132.5000,
2025-03-09 20:20:28.345,-0.1100,0.1600,9.5300,0.3125,0.1250,0.4375,-0.2500,-0.6250,0.0000,132.5000,
2025-03-09 20:20:28.345,-0.1900,0.2000,9.5100,0.1250,0.3125,0.2500,-0.2500,-0.6250,0.0000,132.5000,
2025-03-09 20:20:28.354,-0.1000,0.1800,9.5200,0.0625,0.0625,1.3750,-0.2500,-0.6250,0.0000,132.4375,
2025-03-09 20:20:28.364,-0.0900,0.1600,9.4900,-0.1875,0.0000,4.5000,-0.2500,-0.6250,0.0000,132.4375,
2025-03-09 20:20:28.382,-0.1300,0.2100,9.5100,-0.1875,-0.1875,5.3750,-0.2500,-0.6250,0.0000,132.3750,
2025-03-09 20:20:28.385,-0.1400,0.1400,9.5000,-0.2500,-0.4375,7.5000,-0.2500,-0.6250,0.0000,132.3750,
2025-03-09 20:20:28.394,-0.0500,0.1400,9.4900,-0.0625,-0.5625,9.9375,-0.2500,-0.6250,0.0000,132.3125,
2025-03-09 20:20:28.418,-0.0400,0.1100,9.5000,-0.0625,-0.5000,9.5625,-0.2500,-0.6250,0.0000,132.1250,
2025-03-09 20:20:28.420,0.0100,0.0800,9.5000,-0.0625,-0.1250,6.8125,-0.2500,-0.6250,0.0000,132.0625,
2025-03-09 20:20:28.430,-0.1100,0.1500,9.5300,0.1250,0.1875,1.6875,-0.2500,-0.6250,0.0000,132.0000,
2025-03-09 20:20:28.440,-0.0800,0.1400,9.5100,0.0625,0.0000,0.0000,-0.2500,-0.6250,0.0000,132.0000,
2025-03-09 20:20:28.451,-0.1100,0.1700,9.4900,-0.0625,0.0000,0.1250,-0.2500,-0.6250,0.0000,132.0000,
2025-03-09 20:20:28.451,-0.1000,0.1500,9.5000,0.0000,0.0625,0.1875,-0.2500,-0.6250,0.0000,132.0000,
2025-03-09 20:20:28.513,-0.1100,0.1700,9.5000,-0.1250,0.0625,0.0625,-0.2500,-0.6250,0.0000,132.0000,
2025-03-09 20:20:28.515,-0.1900,0.1600,9.5100,-0.0625,0.1250,0.5625,-0.2500,-0.6250,0.0000,132.0000,
2025-03-09 20:20:28.515,-0.1900,0.1600,9.5100,-0.1875,-0.1875,4.6875,-0.2500,-0.6250,0.0000,132.0000,
2025-03-09 20:20:28.515,-0.1300,0.0800,9.5200,-0.1875,-0.4375,7.0000,-0.2500,-0.6250,0.0000,132.0000,
2025-03-09 20:20:28.515,-0.1100,0.0600,9.4900,-0.1250,0.0625,4.4375,-0.2500,-0.6250,0.0000,131.8750,
2025-03-09 20:20:28.515,-0.0400,-0.1000,9.4800,0.1875,0.4375,4.9375,-0.2500,-0.6250,0.0000,131.8125,
2025-03-09 20:20:28.533,-0.0100,-0.1500,9.5100,0.0000,0.0000,7.1875,-0.2500,-0.6250,0.0000,131.7500,
2025-03-09 20:20:28.533,-0.0100,-0.1500,9.5100,0.0625,-0.1875,5.1250,-0.2500,-0.6250,0.0000,131.7500,
2025-03-09 20:20:28.543,-0.2000,0.0100,9.5100,0.0625,-0.1875,5.1250,-0.2500,-0.6250,0.0000,131.6875,
2025-03-09 20:20:28.564,-0.1700,0.3000,9.4600,0.2500,0.0625,5.1250,-0.2500,-0.6250,0.0000,131.6250,
2025-03-09 20:20:28.564,-0.1300,0.4000,9.5200,0.1875,0.5000,9.1250,-0.2500,-0.6250,0.0000,131.5625,
2025-03-09 20:20:28.573,-0.1100,0.2500,9.5100,0.3750,0.5625,9.1875,-0.2500,-0.6250,0.0000,131.5000,
2025-03-09 20:20:28.604,-0.1100,0.2500,9.5100,0.2500,0.5625,9.6250,-0.2500,-0.6250,0.0000,131.4375,
2025-03-09 20:20:28.604,-0.1400,0.2300,9.5000,0.2500,0.5625,9.6250,-0.2500,-0.6250,0.0000,131.3125,
2025-03-09 20:20:28.604,-0.0700,0.2400,9.4700,0.6250,0.5000,5.7500,-0.2500,-0.6250,0.0000,131.2500,
2025-03-09 20:20:28.614,-0.1300,0.1700,9.5000,0.3125,0.5625,4.5625,-0.2500,-0.6250,0.0000,131.1875,
2025-03-09 20:20:28.624,-0.1400,0.1700,9.5100,0.1875,0.1875,6.1875,-0.2500,-0.6250,0.0000,131.1250,
2025-03-09 20:20:28.634,-0.1400,0.1700,9.5100,0.1875,0.1875,6.1875,-0.2500,-0.6250,0.0000,131.0625,
2025-03-09 20:20:28.655,-0.1800,0.1200,9.5000,0.0625,-0.0625,7.5625,-0.2500,-0.6250,0.0000,131.0000,
2025-03-09 20:20:28.655,-0.1500,0.1400,9.4800,0.1875,-0.3125,10.9375,-0.2500,-0.6250,0.0000,130.8750,
2025-03-09 20:20:28.665,-0.1400,0.1100,9.5100,0.1875,-0.3750,11.8750,-0.2500,-0.6250,0.0000,130.8125,
2025-03-09 20:20:28.682,-0.1600,-0.0200,9.5100,0.1250,-0.5000,13.3125,-0.2500,-0.6250,0.0000,130.6875,
2025-03-09 20:20:28.686,-0.1600,-0.0200,9.5100,0.1250,-0.5000,13.3125,-0.2500,-0.6250,0.0000,130.5625,
2025-03-09 20:20:28.697,-0.1500,-0.0300,9.5300,0.3125,-0.1250,14.1250,-0.2500,-0.6250,0.0000,130.4375,
2025-03-09 20:20:28.718,-0.1500,0.1400,9.4800,-0.2500,-0.4375,16.5000,-0.2500,-0.6250,0.0000,130.2500,
2025-03-09 20:20:28.718,-0.1700,0.1500,9.4900,-0.2500,-0.0625,16.8125,-0.2500,-0.6250,0.0000,130.1250,
2025-03-09 20:20:28.728,-0.2500,0.0700,9.5000,-0.3125,-0.0625,17.4375,-0.2500,-0.6250,0.0000,129.9375,
2025-03-09 20:20:28.758,-0.1700,0.3900,9.4900,0.1875,-0.1875,18.5000,-0.2500,-0.6250,0.0000,129.6250,
2025-03-09 20:20:28.758,-0.0500,0.3300,9.4800,-0.2500,0.1250,20.0000,-0.2500,-0.6250,0.0000,129.4375,
2025-03-09 20:20:28.812,-0.1000,0.2600,9.5000,0.3125,0.2500,19.8750,-0.2500,-0.6250,0.0000,129.1875,
2025-03-09 20:20:28.812,-0.0900,0.2700,9.5300,0.1875,0.1875,21.5000,-0.2500,-0.6875,0.0000,128.8125,
2025-03-09 20:20:28.812,-0.2800,0.2900,9.4800,-0.0625,-0.4375,25.8125,-0.2500,-0.6875,0.0000,128.5625,
2025-03-09 20:20:28.812,-0.2100,0.0500,9.4800,-0.3125,-0.5625,32.1250,-0.2500,-0.6875,0.0000,128.2500,
2025-03-09 20:20:28.820,-0.1300,0.1700,9.5200,-0.2500,-0.6250,30.1875,-0.2500,-0.6875,0.0000,127.9375,
2025-03-09 20:20:28.830,-0.1500,0.1700,9.5000,-0.0625,-0.4375,30.8750,-0.2500,-0.6875,0.0000,127.3750,
2025-03-09 20:20:28.840,-0.0100,0.2000,9.5100,-0.1250,-0.3750,31.5000,-0.2500,-0.6875,0.0000,127.0625,
2025-03-09 20:20:28.860,-0.0300,0.1700,9.5200,0.0000,-0.3125,29.2500,-0.1875,-0.6875,0.0000,126.7500,
2025-03-09 20:20:28.870,-0.3500,0.1400,9.5000,-0.4375,-0.4375,32.6250,-0.1875,-0.6875,0.0000,126.5000,
2025-03-09 20:20:28.890,0.0600,0.2800,9.5100,-0.1875,-0.9375,35.2500,-0.1875,-0.6875,0.0000,125.8125,
2025-03-09 20:20:28.890,0.0100,0.1700,9.5300,-0.1250,-0.8125,37.5000,-0.1875,-0.6875,0.0000,125.3750,
2025-03-09 20:20:28.900,-0.0700,0.1700,9.5500,-0.0625,-0.4375,39.3125,-0.1875,-0.6875,0.0000,125.0000,
2025-03-09 20:20:28.920,-0.1100,0.1500,9.4900,-0.0625,-1.1875,47.9375,-0.1875,-0.6875,0.0000,124.6250,
2025-03-09 20:20:28.930,-0.3000,0.1400,9.4800,-0.0625,-1.1250,46.9375,-0.1250,-0.6875,0.0000,123.6875,
2025-03-09 20:20:28.950,-0.4500,0.1800,9.5300,-0.2500,-1.0625,47.8125,-0.1250,-0.6875,0.0000,123.1875,
2025-03-09 20:20:29.000,0.1200,-0.0700,9.4200,-0.5000,-1.8750,61.3750,-0.1250,-0.6875,0.0000,122.6250,
2025-03-09 20:20:29.000,0.0200,0.0100,9.5200,-0.1250,-1.5625,56.0000,-0.0625,-0.6875,0.0000,121.4375,
2025-03-09 20:20:29.000,0.0100,0.2300,9.5200,-0.3750,-1.5625,52.5000,0.0000,-0.6875,0.0000,120.3750,
2025-03-09 20:20:29.012,0.2700,-0.4400,9.4600,-0.3125,-1.5625,61.8750,0.0000,-0.6875,0.0000,119.8125,
2025-03-09 20:20:29.021,-0.2900,-0.2500,9.5000,-0.3125,-1.6875,58.6250,0.0000,-0.6875,0.0000,119.1250,
2025-03-09 20:20:29.051,0.0400,0.1000,9.4600,-0.1250,-1.0000,50.0625,0.0000,-0.6875,0.0000,118.0625,
2025-03-09 20:20:29.051,-0.2400,0.3500,9.5500,0.0625,-0.7500,49.0000,0.0000,-0.6875,0.0000,117.4375,
2025-03-09 20:20:29.061,-0.1100,-0.1100,9.4900,0.0625,-0.8125,41.6875,0.0000,-0.6875,0.0000,116.9375,
2025-03-09 20:20:29.084,-0.2200,0.2200,9.4800,0.0625,-1.0625,45.0000,0.0625,-0.6875,0.0000,116.1875,
2025-03-09 20:20:29.121,-0.0500,0.1700,9.4600,-0.0625,-1.2500,50.1250,0.0625,-0.6875,0.0000,115.2500,
2025-03-09 20:20:29.121,-0.1500,0.0300,9.5000,-0.1250,-1.3125,52.8125,0.0625,-0.6875,0.0000,114.7500,
2025-03-09 20:20:29.121,-0.2500,0.0400,9.5200,0.5000,-1.4375,57.9375,0.0625,-0.6875,0.0000,114.2500,
2025-03-09 20:20:29.131,-0.1600,0.0100,9.4900,-0.0625,-1.3750,59.2500,0.1250,-0.6875,0.0000,113.0625,
2025-03-09 20:20:29.141,-0.0800,0.4800,9.5200,0.1875,-1.2500,55.5000,0.1250,-0.6875,0.0000,112.5000,
2025-03-09 20:20:29.161,-0.0100,0.4300,9.4800,0.0625,-0.6250,51.1250,0.1875,-0.6875,0.0000,112.0000,
2025-03-09 20:20:29.182,-0.1900,0.0200,9.5100,0.5000,-0.2500,45.5000,0.1875,-0.6875,0.0000,111.1250,
2025-03-09 20:20:29.192,-0.1700,0.2200,9.5200,-0.2500,-1.0000,53.0000,0.1875,-0.6875,0.0000,110.1250,
2025-03-09 20:20:29.203,-0.0500,0.1100,9.5400,-0.8750,-1.8750,61.1875,0.1875,-0.6875,0.0000,109.5000,
2025-03-09 20:20:29.223,-0.1400,0.3400,9.5000,-0.4375,-2.1250,74.1875,0.2500,-0.6875,0.0000,108.8125,
2025-03-09 20:20:29.233,-0.4100,0.2200,9.5200,-0.5000,-2.2500,84.5000,0.2500,-0.6875,0.0000,107.1875,
2025-03-09 20:20:29.242,-0.3600,0.1200,9.4900,0.5000,-1.1875,89.3750,0.3125,-0.6875,0.0000,106.3125,
2025-03-09 20:20:29.253,0.0000,-0.0200,9.5600,0.2500,-1.0000,88.0000,0.3125,-0.6875,0.0000,105.5000,
2025-03-09 20:20:29.284,0.3300,0.1000,9.5000,1.1250,-0.3750,84.1875,0.3125,-0.6875,0.0000,103.8125,
2025-03-09 20:20:29.293,-0.2200,0.6600,9.5300,1.0625,0.0625,64.1875,0.3750,-0.6875,0.0000,102.5625,
2025-03-09 20:20:29.317,0.1900,-0.1000,9.5000,0.7500,-0.4375,64.3125,0.3750,-0.6875,0.0000,101.9375,
2025-03-09 20:20:29.323,0.0000,-0.2200,9.4200,-0.0625,-1.1250,63.0625,0.3750,-0.6875,0.0000,100.7500,
2025-03-09 20:20:29.343,-0.4900,-0.5800,9.5100,0.2500,-1.3125,77.9375,0.4375,-0.6875,0.0000,99.3750,
2025-03-09 20:20:29.353,-0.2200,0.0400,9.4400,-0.1875,-1.3750,85.8125,0.4375,-0.6875,0.0000,98.5625,
2025-03-09 20:20:29.421,0.1700,0.1000,9.4900,0.5625,-0.6250,81.7500,0.5000,-0.6250,0.0000,96.8750,
2025-03-09 20:20:29.421,-0.3200,0.0000,9.5600,1.1875,0.0000,71.6250,0.5000,-0.6875,0.0000,95.5000,
2025-03-09 20:20:29.421,-0.6400,-0.1400,9.5300,1.2500,-0.0625,76.0000,0.5000,-0.6875,0.0000,94.7500,
2025-03-09 20:20:29.441,-0.5200,0.3700,9.4900,0.9375,-0.8125,90.6250,0.5625,-0.6875,0.0000,93.0625,
2025-03-09 20:20:29.441,0.0000,0.3500,9.5400,1.1875,-0.8750,102.5625,0.5625,-0.6875,0.0000,91.1875,
2025-03-09 20:20:29.462,-0.1700,0.8300,9.4900,0.7500,-1.1875,103.5000,0.6250,-0.6875,0.0000,90.1875,
2025-03-09 20:20:29.473,0.7900,0.6600,9.5000,1.3750,-0.3750,86.7500,0.6250,-0.6875,0.0000,88.3750,
2025-03-09 20:20:29.496,0.0700,-0.0800,9.4800,3.8750,1.8125,54.9375,0.6250,-0.7500,0.0000,87.1875,
2025-03-09 20:20:29.504,-0.1300,0.0700,9.4700,3.2500,1.8125,49.5000,0.6250,-0.7500,0.0000,86.6875,
2025-03-09 20:20:29.523,0.0400,-0.1100,9.5000,0.4375,-0.1250,46.8750,0.6250,-0.7500,0.0000,85.8125,
2025-03-09 20:20:29.533,-0.3100,0.0300,9.5000,0.8125,0.1250,45.2500,0.6250,-0.7500,0.0000,85.3750,
2025-03-09 20:20:29.553,-0.2900,0.1000,9.5000,1.1250,0.1250,48.6875,0.6250,-0.7500,0.0000,84.8750,
2025-03-09 20:20:29.553,-0.0900,-0.0200,9.5000,0.7500,-0.1875,53.6250,0.6250,-0.7500,0.0000,84.3750,
2025-03-09 20:20:29.563,-0.6200,0.2100,9.5300,0.1250,-0.5000,57.2500,0.6250,-0.7500,0.0000,83.8125,
2025-03-09 20:20:29.581,-0.3600,0.3000,9.4700,0.3125,-0.6875,67.5000,0.6875,-0.7500,0.0000,83.1250,
2025-03-09 20:20:29.597,-0.1400,0.2100,9.4900,-0.1875,-1.2500,82.5000,0.6875,-0.7500,0.0000,81.6250,
2025-03-09 20:20:29.613,-0.0200,0.1700,9.4900,-0.3125,-1.5000,83.1250,0.7500,-0.7500,0.0000,80.8125,
2025-03-09 20:20:29.613,-0.0600,0.1500,9.5000,-0.2500,-1.1875,82.9375,0.7500,-0.6875,0.0000,80.0000,
2025-03-09 20:20:29.623,0.0100,0.0800,9.4900,-0.6875,-1.3750,84.6250,0.7500,-0.6875,0.0000,79.1875,
2025-03-09 20:20:29.654,-0.6400,0.4200,9.5100,-0.6250,-1.5625,86.2500,0.8125,-0.6875,0.0000,78.3750,
2025-03-09 20:20:29.664,-0.1200,0.1600,9.5200,-0.8125,-1.6875,91.8125,0.8125,-0.6875,0.0000,77.5625,
2025-03-09 20:20:29.664,0.3400,0.1500,9.5100,-0.3750,-1.4375,94.0625,0.8750,-0.6250,0.0000,76.6250,
2025-03-09 20:20:29.715,0.3900,0.1000,9.5100,0.0000,-1.1875,87.5000,0.8750,-0.6250,0.0000,75.7500,
2025-03-09 20:20:29.715,-0.2200,-0.0300,9.4800,0.4375,-0.8750,83.3125,0.8750,-0.6250,0.0000,74.9375,
2025-03-09 20:20:29.715,-0.1200,-0.0900,9.4800,-0.0625,-1.1875,88.3125,0.9375,-0.6250,0.0000,74.1250,
2025-03-09 20:20:29.715,-0.2300,0.0700,9.5700,-1.0625,-1.8750,93.7500,0.9375,-0.5625,0.0000,73.2500,
2025-03-09 20:20:29.715,-0.0100,0.2200,9.4900,-0.6250,-1.7500,98.4375,1.0000,-0.5625,0.0000,72.3125,
2025-03-09 20:20:29.715,0.2600,0.1800,9.4600,-0.6250,-1.5625,99.1875,1.0000,-0.5625,0.0000,71.3750,
2025-03-09 20:20:29.728,0.5000,0.0000,9.5000,-0.6250,-1.4375,92.5000,1.0000,-0.5000,0.0000,70.4375,
2025-03-09 20:20:29.735,0.0900,0.0900,9.5300,-0.3125,-1.0000,82.6875,1.0625,-0.5000,0.0000,69.6875,
2025-03-09 20:20:29.745,-0.2700,0.0200,9.5100,0.1875,-0.8750,78.1875,1.0625,-0.5000,0.0000,68.9375,
2025-03-09 20:20:29.767,-0.0600,-0.3700,9.5500,-0.2500,-1.0000,82.1250,1.0625,-0.4375,0.0000,68.1250,
2025-03-09 20:20:29.767,-0.4700,0.2200,9.4700,-0.6250,-1.3750,89.7500,1.0625,-0.4375,0.0000,67.2500,
2025-03-09 20:20:29.778,-0.1300,0.2100,9.5400,-0.8125,-1.7500,98.0625,1.1250,-0.4375,0.0000,66.3125,
2025-03-09 20:20:29.795,0.3900,0.0500,9.4100,-0.5625,-1.6875,97.6875,1.1250,-0.3750,0.0000,65.3750,
2025-03-09 20:20:29.797,0.1000,0.5100,9.5600,-0.6250,-1.5625,92.5000,1.1875,-0.3750,0.0000,64.4375,
2025-03-09 20:20:29.808,-0.2800,0.7400,9.5200,-1.4375,-2.0000,86.5000,1.1875,-0.3125,0.0000,63.6250,
2025-03-09 20:20:29.826,-0.2300,0.2700,9.5100,-1.1875,-1.6875,85.2500,1.1875,-0.3125,0.0000,62.8125,
2025-03-09 20:20:29.828,-0.0900,0.4800,9.4600,-0.2500,-1.1875,85.0625,1.2500,-0.3125,0.0000,62.0000,
2025-03-09 20:20:29.838,-0.6700,0.2500,9.6000,-0.4375,-1.3750,85.1250,1.2500,-0.2500,0.0000,61.1250,
2025-03-09 20:20:29.859,0.0000,-0.1500,9.5500,0.5625,-1.2500,91.8125,1.2500,-0.2500,0.0000,60.3125,
2025-03-09 20:20:29.859,-0.1100,0.4200,9.4900,0.3750,-1.2500,97.5625,1.2500,-0.2500,0.0000,59.3750,
2025-03-09 20:20:29.869,0.2700,0.1700,9.4700,1.0625,-1.0625,102.8125,1.3125,-0.2500,0.0000,58.3750,
2025-03-09 20:20:29.880,0.1400,0.3300,9.5300,0.7500,-1.0625,98.2500,1.3125,-0.1875,0.0000,57.4375,
2025-03-09 20:20:29.886,-0.0100,0.7900,9.5500,0.6875,-1.0000,86.8750,1.3125,-0.1875,0.0000,56.5625,
2025-03-09 20:20:29.890,-0.0900,0.2800,9.4900,0.7500,-0.6875,70.1250,1.3125,-0.1875,0.0000,55.9375,
2025-03-09 20:20:29.921,-0.1500,0.1400,9.5000,0.5000,-0.3125,63.6250,1.3125,-0.1875,0.0000,55.3125,
2025-03-09 20:20:29.921,0.0000,-0.0100,9.4600,0.2500,-0.6250,63.3125,1.3125,-0.1875,0.0000,54.6875,
2025-03-09 20:20:29.921,-0.1100,-0.2800,9.4800,0.0625,-0.8750,70.0625,1.3125,-0.1250,0.0000,54.0000,
2025-03-09 20:20:29.944,0.0100,-0.3300,9.5100,0.3750,-0.6875,82.0000,1.3750,-0.1250,0.0000,53.2500,
2025-03-09 20:20:29.944,-0.1700,0.0000,9.5300,-0.3125,-1.3125,88.8125,1.3750,-0.1250,0.0000,52.4375,
2025-03-09 20:20:29.957,0.0000,0.1100,9.5200,0.0000,-1.3125,97.0000,1.3750,-0.0625,0.0000,51.5000,
2025-03-09 20:20:29.962,0.2300,0.0600,9.4700,-0.1875,-1.5000,100.6875,1.3750,-0.0625,0.0000,50.5000,
2025-03-09 20:20:30.013,0.2600,0.2100,9.5300,-0.4375,-1.4375,99.1250,1.4375,-0.0625,0.0000,49.5625,
2025-03-09 20:20:30.013,0.2700,0.4400,9.5000,-0.1250,-1.4375,92.9375,1.4375,0.0000,0.0000,48.6875,
2025-03-09 20:20:30.023,0.1900,0.7200,9.5100,-0.3750,-1.2500,83.5625,1.4375,0.0000,0.0000,47.8750,
2025-03-09 20:20:30.023,0.0200,0.3900,9.4800,-0.1250,-1.0625,70.0000,1.4375,0.0000,0.0000,47.1875,
2025-03-09 20:20:30.023,-0.0400,0.5400,9.4900,-0.1250,-0.6875,57.2500,1.4375,0.0000,0.0000,46.6875,
2025-03-09 20:20:30.034,-0.2000,0.2200,9.4900,0.1875,-0.5000,48.4375,1.4375,0.0000,0.0000,46.1875,
2025-03-09 20:20:30.044,-0.1400,-0.0500,9.5300,0.1875,-0.5000,45.6250,1.4375,0.0000,0.0000,45.7500,
2025-03-09 20:20:30.087,-0.3300,0.0400,9.4700,-0.5000,-0.5625,46.9375,1.4375,0.0000,0.0000,45.4375,
2025-03-09 20:20:30.087,-0.2900,0.0500,9.5300,-0.6250,-1.1250,52.7500,1.4375,0.0000,0.0000,44.9375,
2025-03-09 20:20:30.087,-0.2900,0.2500,9.4600,-0.6250,-1.1250,60.8750,1.5000,0.0625,0.0000,44.3125,
2025-03-09 20:20:30.087,-0.0200,0.2100,9.4700,-0.4375,-1.1875,65.8125,1.5000,0.0625,0.0000,43.6875,
2025-03-09 20:20:30.087,-0.0600,0.6400,9.5100,-0.5000,-1.4375,65.9375,1.5000,0.0625,0.0000,43.0625,
2025-03-09 20:20:30.097,0.1300,0.6700,9.5000,-1.0000,-1.3125,63.9375,1.5000,0.1250,0.0000,42.5625,
2025-03-09 20:20:30.107,0.1800,0.5100,9.5300,-0.0625,-0.8125,53.8750,1.5000,0.1250,0.0000,42.0625,
2025-03-09 20:20:30.127,0.0000,0.4700,9.4800,0.0000,-0.5625,40.1250,1.5000,0.1250,0.0000,41.6875,
2025-03-09 20:20:30.127,-0.0100,0.5100,9.5500,0.5000,-0.5625,27.8750,1.5000,0.1250,0.0000,41.3750,
2025-03-09 20:20:30.136,-0.1100,0.2300,9.5400,0.5000,-0.2500,20.1875,1.5000,0.1250,0.0000,41.1875,
2025-03-09 20:20:30.159,-0.1200,0.2100,9.4800,0.1875,0.0000,14.3125,1.5000,0.1250,0.0000,41.1875,
2025-03-09 20:20:30.159,-0.1100,0.1500,9.5100,0.0000,0.0000,13.0625,1.5000,0.1250,0.0000,41.1875,
2025-03-09 20:20:30.168,-0.1000,0.2200,9.5000,0.0625,-0.1875,7.9375,1.5000,0.1250,0.0000,40.9375,
2025-03-09 20:20:30.178,-0.1100,0.1800,9.4900,0.0625,0.0000,2.2500,1.5000,0.1250,0.0000,40.9375,
2025-03-09 20:20:30.189,-0.1300,0.2100,9.5200,-0.0625,0.1250,0.3750,1.5000,0.1250,0.0000,40.9375,
2025-03-09 20:20:30.199,-0.2300,0.2000,9.5200,0.0000,-0.0625,1.8750,1.5000,0.1250,0.0000,40.9375,
2025-03-09 20:20:30.209,0.0000,0.2000,9.4700,-0.1875,-0.4375,7.2500,1.4375,0.1250,0.0000,40.9375,
2025-03-09 20:20:30.219,-0.0800,0.2000,9.5000,-0.1250,-0.1875,3.5625,1.3750,0.0625,0.0000,40.8125,
2025-03-09 20:20:30.229,-0.1100,0.2000,9.5000,0.0625,-0.0625,0.1875,1.3750,0.0625,0.0000,40.8125,
2025-03-09 20:20:30.239,-0.1100,0.1900,9.5200,0.0625,-0.1875,-0.1250,1.3125,0.0625,0.0000,40.8125,
2025-03-09 20:20:30.249,-0.1100,0.2100,9.5000,0.1875,0.0625,-0.0625,1.3125,0.0000,0.0000,40.8750,
2025-03-09 20:20:30.259,-0.1000,0.2000,9.5100,0.3750,0.2500,-0.1250,1.3125,0.0000,0.0000,40.8750,
2025-03-09 20:20:30.279,-0.1000,0.2000,9.5200,0.2500,0.1875,-0.0625,1.2500,0.0000,0.0000,40.8750,
2025-03-09 20:20:30.313,-0.1000,0.2000,9.4900,0.2500,0.1875,0.0625,1.2500,0.0000,0.0000,40.8750,
2025-03-09 20:20:30.313,-0.1000,0.2200,9.5000,-0.0625,0.0625,0.1875,1.1875,0.0000,0.0000,40.8750,
2025-03-09 20:20:30.313,-0.1100,0.2200,9.5000,0.0000,-0.1250,0.1250,1.1875,0.0000,0.0000,40.9375,
2025-03-09 20:20:30.313,-0.2600,0.4100,9.5200,0.0625,0.0000,1.3125,1.1250,0.0000,0.0000,40.8750,
2025-03-09 20:20:30.313,0.0200,0.0000,9.4800,0.0000,-0.5625,8.1250,1.1250,0.0000,0.0000,40.8125,
2025-03-09 20:20:30.331,-0.0700,0.1300,9.5200,0.0000,-0.1250,7.0000,1.1250,-0.0625,0.0000,40.7500,
2025-03-09 20:20:30.331,-0.0900,0.1900,9.5000,0.0625,-0.0625,1.6875,1.1250,-0.0625,0.0000,40.7500,
2025-03-09 20:20:30.346,-0.1100,0.2000,9.5400,-0.1250,-0.0625,0.0625,1.1250,-0.0625,0.0000,40.7500,
2025-03-09 20:20:30.362,-0.1000,0.1900,9.5500,-0.1250,-0.2500,-0.2500,1.0625,-0.0625,0.0000,40.7500,
2025-03-09 20:20:30.362,-0.0900,0.1800,9.5200,-0.1250,-0.0625,-0.5000,1.0625,-0.0625,0.0000,40.7500,
2025-03-09 20:20:30.382,0.0200,0.0800,9.4800,-0.1875,-0.2500,-1.4375,1.0625,-0.0625,0.0000,40.8125,
2025-03-09 20:20:30.392,0.0000,0.0000,9.4300,-0.1875,0.0000,-7.0000,1.0000,-0.0625,0.0000,40.8750,
2025-03-09 20:20:30.392,-0.3000,0.3700,9.6000,-0.6250,-0.2500,-15.3125,1.0000,-0.0625,0.0000,40.8750,
2025-03-09 20:20:30.402,-0.2000,0.4300,9.5000,-0.3125,-0.2500,-17.3125,1.0000,-0.1250,0.0000,41.1250,
2025-03-09 20:20:30.425,-0.0800,0.1000,9.5300,-0.3125,0.0625,-5.8750,0.9375,-0.1250,0.0000,41.3750,
2025-03-09 20:20:30.429,-0.0800,0.1800,9.4900,-3.2500,-1.1875,0.2500,0.9375,-0.1250,0.0000,41.3750,
2025-03-09 20:20:30.439,-0.1100,0.2000,9.5000,-2.0625,-0.9375,0.1875,0.9375,-0.1250,0.0000,41.3750,
2025-03-09 20:20:30.450,-0.0800,0.2000,9.5100,-0.3125,-0.1250,0.0625,0.9375,-0.1250,0.0000,41.3750,
2025-03-09 20:20:30.450,-0.1100,0.1800,9.4800,-0.1250,-0.0625,0.0000,0.8750,-0.1250,0.0000,41.3750,
2025-03-09 20:20:30.470,-0.0900,0.2100,9.5000,-0.1875,0.0625,0.0000,0.8750,-0.1250,0.0000,41.3750,
2025-03-09 20:20:30.493,-0.0900,0.2000,9.5200,-0.1250,-0.0625,0.1250,0.8750,-0.1250,0.0000,41.3750,
2025-03-09 20:20:30.493,-0.0900,0.1900,9.5100,-0.0625,-0.1250,-0.0625,0.8750,-0.1250,0.0000,41.3750,
2025-03-09 20:20:30.500,-0.1100,0.1900,9.5000,0.0000,0.0000,0.1250,0.8750,-0.1875,0.0000,41.3750,
2025-03-09 20:20:30.514,-0.1100,0.1900,9.4900,0.0000,-0.1250,-0.0625,0.8125,-0.1875,0.0000,41.4375,
2025-03-09 20:20:30.514,-0.1000,0.1800,9.5100,-0.1875,-0.1250,-0.0625,0.8125,-0.1875,0.0000,41.4375,
2025-03-09 20:20:30.522,-0.1100,0.2000,9.5200,-0.0625,0.0625,0.0000,0.8125,-0.1875,0.0000,41.4375,
2025-03-09 20:20:30.543,-0.0900,0.2000,9.5200,-0.0625,0.1875,0.0000,0.8125,-0.1875,0.0000,41.4375,
2025-03-09 20:20:30.573,-0.1100,0.2100,9.5000,0.0000,0.0625,0.0000,0.7500,-0.2500,0.0000,41.6250,
2025-03-09 20:20:30.573,-0.0900,0.1900,9.4800,-0.0625,0.0000,0.0000,0.7500,-0.2500,0.0000,41.6250,
2025-03-09 20:20:30.604,-0.1000,0.2100,9.4900,-0.0625,-0.0625,0.0625,0.7500,-0.2500,0.0000,41.6250,
2025-03-09 20:20:30.614,-0.1000,0.2000,9.5200,-0.0625,0.0625,0.0625,0.7500,-0.2500,0.0000,41.6250,
2025-03-09 20:20:30.614,-0.1000,0.2000,9.5200,-0.1250,-0.0625,-0.1250,0.7500,-0.2500,0.0000,41.6250,
2025-03-09 20:20:30.614,-0.1000,0.2000,9.5000,0.0000,-0.1250,0.0000,0.6875,-0.2500,0.0000,41.6250,
2025-03-09 20:20:30.614,-0.1000,0.2000,9.4700,-0.0625,0.1250,-0.1250,0.6875,-0.2500,0.0000,41.6250,
2025-03-09 20:20:30.624,-0.0800,0.2000,9.4900,-0.2500,0.1250,0.0000,0.6875,-0.2500,0.0000,41.6250,
2025-03-09 20:20:30.644,-0.1000,0.2100,9.5300,-0.2500,0.0625,0.1250,0.6875,-0.3125,0.0000,41.6250,
2025-03-09 20:20:30.664,-0.1000,0.1900,9.5200,-0.0625,0.0625,0.0000,0.6250,-0.3125,0.0000,41.8125,
2025-03-09 20:20:30.688,-0.0800,0.2200,9.4900,-0.0625,0.1250,0.0000,0.6250,-0.3125,0.0000,41.8125,
2025-03-09 20:20:30.688,-0.1100,0.1900,9.5100,0.0000,0.0000,-0.0625,0.6250,-0.3125,0.0000,41.8125,
2025-03-09 20:20:30.688,-0.1100,0.1800,9.5100,-0.1875,0.1250,-0.0625,0.6250,-0.3125,0.0000,41.8125,
2025-03-09 20:20:30.706,-0.1000,0.2000,9.5100,-0.0625,0.0625,0.0625,0.6250,-0.3125,0.0000,41.8125,
2025-03-09 20:20:30.725,-0.0900,0.2200,9.4700,0.0000,0.0625,0.0625,0.5625,-0.3750,0.0000,41.8125,
2025-03-09 20:20:30.756,-0.0900,0.2100,9.4800,-0.0625,0.0000,0.0625,0.5625,-0.3750,0.0000,41.8125,
2025-03-09 20:20:30.756,-0.0900,0.2100,9.5200,0.0000,0.0625,0.0625,0.5625,-0.3750,0.0000,41.9375,
2025-03-09 20:20:30.777,-0.1100,0.2000,9.5000,0.0625,0.0625,0.1875,0.5625,-0.3750,0.0000,41.9375,
2025-03-09 20:20:30.798,-0.1100,0.1800,9.5000,0.0625,0.0000,0.1875,0.5000,-0.3750,0.0000,41.9375,
2025-03-09 20:20:30.808,-0.0800,0.2100,9.5100,0.0000,0.1250,0.0625,0.5000,-0.3750,0.0000,42.0625,
2025-03-09 20:20:30.829,-0.0900,0.2000,9.5100,0.0000,-0.0625,0.0625,0.5000,-0.4375,0.0000,42.0625,
2025-03-09 20:20:30.848,-0.1100,0.1900,9.5300,-0.1250,0.0625,0.0625,0.5000,-0.4375,0.0000,42.0625,
2025-03-09 20:20:30.859,-0.0900,0.1700,9.4900,-0.1250,0.0000,0.0000,0.5000,-0.4375,0.0000,42.0625,
2025-03-09 20:20:30.908,-0.0700,0.2000,9.5400,0.0000,0.0625,-0.0625,0.4375,-0.4375,0.0000,42.0625,
2025-03-09 20:20:30.908,-0.1100,0.2100,9.5200,-0.1250,0.0625,-0.0625,0.4375,-0.4375,0.0000,42.0625,
2025-03-09 20:20:30.908,-0.1000,0.1900,9.5100,-0.1250,-0.0625,0.0625,0.4375,-0.4375,0.0000,42.0625,
2025-03-09 20:20:30.929,-0.1100,0.2200,9.4900,0.1250,0.0625,0.1250,0.4375,-0.4375,0.0000,42.0625,
2025-03-09 20:20:30.949,-0.1000,0.2000,9.5300,0.0000,0.0625,0.1250,0.3750,-0.5000,0.0000,42.0625,
2025-03-09 20:20:30.959,-0.0900,0.2000,9.5100,0.0625,0.0000,-0.0625,0.3750,-0.5000,0.0000,42.0625,
2025-03-09 20:20:30.979,-0.1100,0.2000,9.4800,-0.0625,0.0000,-0.0625,0.3750,-0.5000,0.0000,42.0625,
2025-03-09 20:20:30.990,-0.0800,0.1900,9.5400,0.0000,0.0625,0.0625,0.3750,-0.5000,0.0000,42.0625,
2025-03-09 20:20:31.011,-0.1100,0.1800,9.5200,-0.1250,0.1250,0.0625,0.3750,-0.5000,0.0000,42.1250,
2025-03-09 20:20:31.031,-0.1100,0.2000,9.4700,0.0000,0.1250,-0.1875,0.3750,-0.5000,0.0000,42.1250,
2025-03-09 20:20:31.051,-0.0900,0.2100,9.5300,0.0625,0.0000,-0.0625,0.3125,-0.5000,0.0000,42.1250,
2025-03-09 20:20:31.067,-0.1100,0.2000,9.5100,-0.0625,0.0625,-0.0625,0.3125,-0.5000,0.0000,42.1250,
2025-03-09 20:20:31.082,-0.1100,0.1900,9.4700,0.0000,0.1250,0.0625,0.3125,-0.5625,0.0000,42.1250,
2025-03-09 20:20:31.096,-0.1000,0.2000,9.5200,-0.0625,0.0625,0.0000,0.3125,-0.5625,0.0000,42.1250,
2025-03-09 20:20:31.115,-0.0900,0.2100,9.5200,-0.1250,0.0000,-0.0625,0.3125,-0.5625,0.0000,42.1875,
2025-03-09 20:20:31.126,-0.1000,0.1800,9.5000,0.0000,0.0625,-0.0625,0.3125,-0.5625,0.0000,42.1875,
2025-03-09 20:20:31.144,-0.0900,0.2200,9.4900,0.1250,-0.1250,0.0000,0.2500,-0.5625,0.0000,42.1875,
2025-03-09 20:20:31.156,-0.1000,0.2000,9.5200,0.0625,-0.0625,-0.0625,0.2500,-0.5625,0.0000,42.3125,
2025-03-09 20:20:31.215,-0.0900,0.2000,9.5200,-0.1875,0.1875,0.0000,0.2500,-0.5625,0.0000,42.3125,
2025-03-09 20:20:31.215,-0.0800,0.1900,9.5000,0.0000,-0.0625,0.0000,0.2500,-0.5625,0.0000,42.3125,
2025-03-09 20:20:31.215,-0.1000,0.1800,9.4700,-0.0625,0.0625,-0.0625,0.2500,-0.5625,0.0000,42.3125,
2025-03-09 20:20:31.224,-0.0900,0.2000,9.5000,0.0000,-0.1250,0.0000,0.2500,-0.5625,0.0000,42.3125,
2025-03-09 20:20:31.247,-0.0700,0.1700,9.4900,0.1875,-0.0625,0.1250,0.2500,-0.6250,0.0000,42.3125,
2025-03-09 20:20:31.267,-0.1000,0.1800,9.5000,0.0625,-0.1250,0.0000,0.2500,-0.6250,0.0000,42.3125,
2025-03-09 20:20:31.276,-0.1000,0.2000,9.5000,-0.4375,-0.1250,-0.0625,0.1875,-0.6250,0.0000,42.3125,
2025-03-09 20:20:31.309,-0.1100,0.2000,9.5000,-0.5625,-0.4375,-0.1250,0.1875,-0.6250,0.0000,42.3125,
2025-03-09 20:20:31.309,-0.0800,0.1700,9.5000,-0.7500,-0.6250,0.0625,0.1875,-0.6250,0.0000,42.3750,
2025-03-09 20:20:31.328,-0.1200,0.2100,9.5300,0.6250,0.5000,0.0625,0.1875,-0.6250,0.0000,42.3750,
2025-03-09 20:20:31.348,-0.1000,0.2200,9.5000,0.6250,0.4375,0.0625,0.1875,-0.6250,0.0000,42.3750,
2025-03-09 20:20:31.358,-0.1100,0.2100,9.5200,-0.2500,-0.3750,0.0625,0.1875,-0.6250,0.0000,42.3750,
2025-03-09 20:20:31.381,-0.1000,0.1900,9.5000,-0.3125,0.0000,-0.1875,0.1875,-0.6250,0.0000,42.3750,
2025-03-09 20:20:31.389,0.1500,0.4900,9.5400,0.0000,0.0000,-8.1250,0.1875,-0.6875,0.0000,42.5000,
2025-03-09 20:20:31.409,0.1300,0.3600,9.5300,0.2500,0.3125,-21.4375,0.1875,-0.6875,0.0000,42.6875,
2025-03-09 20:20:31.409,0.0100,0.2200,9.5300,0.5000,1.2500,-39.6875,0.1875,-0.6875,0.0000,43.1250,
2025-03-09 20:20:31.431,-0.0900,0.3000,9.4500,1.8125,1.6250,-50.0625,0.1250,-0.6875,0.0000,43.5625,
2025-03-09 20:20:31.441,-0.0500,0.0900,9.4200,1.0000,1.0625,-47.8125,0.1250,-0.7500,0.0000,44.5625,
2025-03-09 20:20:31.451,0.0400,-0.1100,9.4800,-0.2500,0.2500,-44.6250,0.1250,-0.7500,0.0000,45.0625,
2025-03-09 20:20:31.471,0.0200,0.2300,9.5100,-0.0625,0.7500,-46.6250,0.0625,-0.7500,0.0000,45.5000,
2025-03-09 20:20:31.491,-0.0700,-0.0500,9.4800,0.0000,0.7500,-49.9375,0.0625,-0.7500,0.0000,46.0000,
2025-03-09 20:20:31.513,0.0800,0.0800,9.4600,-0.6250,0.3750,-51.9375,0.0625,-0.7500,0.0000,46.5000,
2025-03-09 20:20:31.513,-0.1300,-0.3500,9.4900,-0.5625,0.3750,-52.3750,0.0625,-0.6875,0.0000,47.0000,
2025-03-09 20:20:31.513,-0.0400,0.0000,9.5400,-0.8750,0.4375,-52.1250,0.0625,-0.6875,0.0000,47.7500,
2025-03-09 20:20:31.513,0.2200,-0.1200,9.5000,-0.7500,0.5000,-52.8750,0.0625,-0.6875,0.0000,48.2500,
2025-03-09 20:20:31.532,0.3600,0.0200,9.4800,-0.5625,0.5000,-61.0000,0.0625,-0.6875,0.0000,48.8125,
2025-03-09 20:20:31.532,0.4300,0.4500,9.5300,-0.5625,1.0000,-70.0625,0.0000,-0.6875,0.0000,49.5000,
2025-03-09 20:20:31.543,-0.0700,0.3700,9.5900,0.2500,1.5000,-78.8750,0.0000,-0.6875,0.0000,50.2500,
2025-03-09 20:20:31.563,0.0500,0.5300,9.5100,1.6250,1.9375,-85.5000,0.0000,-0.6875,0.0000,51.1250,
2025-03-09 20:20:31.563,-0.5800,0.4600,9.5300,1.6250,2.2500,-91.1250,0.0000,-0.6875,0.0000,52.0000,
2025-03-09 20:20:31.576,-0.2700,0.4900,9.5000,2.2500,2.2500,-92.4375,-0.0625,-0.7500,0.0000,52.8750,
2025-03-09 20:20:31.595,0.0800,0.1600,9.4200,2.3750,2.1875,-92.7500,-0.0625,-0.7500,0.0000,53.8125,
2025-03-09 20:20:31.595,-0.0300,0.4200,9.4800,2.1250,2.2500,-98.7500,-0.1250,-0.7500,0.0000,54.7500,
2025-03-09 20:20:31.604,0.2000,0.0900,9.4500,1.4375,1.8125,-102.9375,-0.1250,-0.8125,0.0000,55.8125,
2025-03-09 20:20:31.614,0.1100,0.4000,9.5200,1.1875,2.0000,-111.5000,-0.1875,-0.8125,0.0000,56.8750,
2025-03-09 20:20:31.624,-0.0800,0.5000,9.4800,0.7500,2.0625,-119.5000,-0.1875,-0.8125,0.0000,58.0625,
2025-03-09 20:20:31.635,-0.3000,0.5800,9.5000,0.5625,2.2500,-124.0625,-0.2500,-0.8125,0.0000,59.2500,
2025-03-09 20:20:31.645,-0.3600,0.4300,9.4200,0.5000,2.0000,-126.5000,-0.3125,-0.8125,0.0000,60.5000,
2025-03-09 20:20:31.655,-0.3800,0.2600,9.5600,0.0625,1.9375,-130.1250,-0.3125,-0.7500,0.0000,61.9375,
2025-03-09 20:20:31.665,0.0300,0.3400,9.5000,0.4375,2.0000,-133.6875,-0.3750,-0.7500,0.0000,63.1875,
2025-03-09 20:20:31.685,0.3500,-0.1400,9.4300,0.3750,2.4375,-135.8750,-0.4375,-0.7500,0.0000,64.5000,
2025-03-09 20:20:31.686,0.4100,-0.4700,9.5000,1.1250,2.5000,-136.9375,-0.4375,-0.7500,0.0000,65.8750,
2025-03-09 20:20:31.696,0.3800,-0.6200,9.4700,0.4375,2.0625,-134.6250,-0.5000,-0.7500,0.0000,67.1250,
2025-03-09 20:20:31.716,0.0900,-0.3000,9.4800,-0.1250,1.8750,-128.5625,-0.5000,-0.7500,0.0000,68.3750,
2025-03-09 20:20:31.716,-0.1100,-0.1200,9.5500,-0.0625,1.5000,-117.7500,-0.5625,-0.7500,0.0000,69.5625,
2025-03-09 20:20:31.728,-0.9500,1.6600,9.5300,1.0000,1.8125,-110.6250,-0.5625,-0.7500,0.0000,70.6250,
2025-03-09 20:20:31.735,-0.8100,1.6400,9.4800,1.3750,0.5625,-92.0000,-0.6250,-0.7500,0.0000,71.5000,
2025-03-09 20:20:31.745,-0.5300,0.4800,9.4200,1.2500,0.2500,-90.3750,-0.6250,-0.7500,0.0000,72.3750,
2025-03-09 20:20:31.755,-0.2600,0.6400,9.4800,-0.1250,0.4375,-103.3750,-0.6250,-0.7500,0.0000,73.4375,
2025-03-09 20:20:31.816,-0.1200,0.2500,9.3700,-1.0000,0.6250,-123.0625,-0.6250,-0.6875,0.0000,74.6250,
2025-03-09 20:20:31.816,0.5200,0.1800,9.3800,-2.0625,1.1875,-141.5000,-0.6875,-0.6875,0.0000,76.0000,
2025-03-09 20:20:31.816,-0.4300,-0.1200,9.4500,0.0000,1.1250,-133.3750,-0.6875,-0.6250,0.0000,77.2500,
2025-03-09 20:20:31.816,-0.2200,0.3500,9.5300,-1.0625,0.3750,-131.1875,-0.6875,-0.6250,0.0000,78.5625,
2025-03-09 20:20:31.816,-0.5100,-0.4800,9.3900,-2.2500,-0.3125,-133.3750,-0.7500,-0.5625,0.0000,79.9375,
2025-03-09 20:20:31.816,0.1600,-2.6000,9.4900,-5.5000,0.6250,-145.1875,-0.7500,-0.5000,0.0000,81.3125,
2025-03-09 20:20:31.829,-0.8400,2.6600,9.6600,-3.3750,2.1250,-154.2500,-0.7500,-0.4375,0.0000,82.8125,
2025-03-09 20:20:31.836,0.8500,-0.8000,9.4900,-0.6875,0.8750,-120.5000,-0.8125,-0.4375,0.0000,84.0000,
2025-03-09 20:20:31.847,-0.2700,1.2700,9.6300,-1.2500,0.6250,-114.6250,-0.8125,-0.3750,0.0000,85.1250,
2025-03-09 20:20:31.867,0.3800,-0.4300,9.4800,-0.2500,1.5000,-115.9375,-0.8125,-0.3750,0.0000,86.3125,
2025-03-09 20:20:31.867,-0.2200,0.9000,9.5300,-1.3750,0.8750,-119.0000,-0.8750,-0.3750,0.0000,87.4375,
2025-03-09 20:20:31.877,0.1100,-0.1600,9.3600,-1.4375,0.8750,-122.6875,-0.8750,-0.3125,0.0000,88.6250,
2025-03-09 20:20:31.898,-0.5100,0.2200,9.5400,-1.7500,0.9375,-126.7500,-0.8750,-0.3125,0.0000,89.8750,
2025-03-09 20:20:31.898,-0.6200,0.2500,9.4800,-1.1250,1.2500,-119.3750,-0.8750,-0.2500,0.0000,91.0000,
2025-03-09 20:20:31.908,-0.1000,0.2700,9.4900,-1.0625,1.0000,-122.5000,-0.9375,-0.2500,0.0000,92.1875,
2025-03-09 20:20:31.918,-0.2800,0.2600,9.5200,-1.1250,1.3750,-129.9375,-0.9375,-0.1875,0.0000,93.4375,
2025-03-09 20:20:31.929,0.1300,-0.0100,9.4200,-0.4375,1.8750,-134.2500,-0.9375,-0.1875,0.0000,94.7500,
2025-03-09 20:20:31.938,0.5400,-0.4000,9.5100,-0.5625,2.0625,-129.3750,-1.0000,-0.1250,0.0000,96.0000,
2025-03-09 20:20:31.969,0.3900,0.4600,9.5200,-1.0625,1.5625,-125.8125,-1.0000,-0.1250,0.0000,97.2500,
2025-03-09 20:20:31.969,-0.3700,-0.1600,9.5800,-1.5000,1.1250,-129.3750,-1.0000,-0.0625,0.0000,98.5000,
2025-03-09 20:20:31.969,-0.1100,0.3300,9.4900,-1.0000,2.1250,-138.3125,-1.0625,-0.0625,0.0000,99.8125,
2025-03-09 20:20:31.979,0.1600,0.0500,9.5000,0.2500,2.8750,-142.8125,-1.0625,0.0000,0.0000,101.1875,
2025-03-09 20:20:31.991,0.1300,-0.1200,9.5200,-0.8125,1.4375,-137.0625,-1.0625,0.0000,0.0000,102.5000,
2025-03-09 20:20:31.999,0.2200,0.1700,9.5000,-1.5000,0.9375,-132.6875,-1.1250,0.0000,0.0000,103.8125,
2025-03-09 20:20:32.009,0.2200,0.4400,9.4900,-0.5000,2.1250,-137.6875,-1.1250,0.0000,0.0000,105.1250,
2025-03-09 20:20:32.019,0.3400,0.1200,9.5200,-0.8750,2.0000,-137.6875,-1.1250,0.0625,0.0000,106.5000,
2025-03-09 20:20:32.019,-0.1600,0.3400,9.5100,-0.4375,2.5000,-142.3750,-1.1250,0.0625,0.0000,107.8750,
2025-03-09 20:20:32.049,-0.1700,0.0100,9.5200,0.0625,3.0000,-144.3125,-1.1875,0.1250,0.0000,109.2500,
2025-03-09 20:20:32.049,-0.3400,-0.2400,9.4900,-0.8125,1.5000,-133.8750,-1.1875,0.1250,0.0000,110.5625,
2025-03-09 20:20:32.049,-0.3700,-0.0800,9.5600,-1.0625,1.6250,-121.6250,-1.1875,0.1875,0.0000,111.7500,
2025-03-09 20:20:32.069,-0.2500,0.1600,9.5100,-0.1875,1.6875,-114.8750,-1.1875,0.1875,0.0000,112.8125,
2025-03-09 20:20:32.111,-0.1800,-0.5600,9.4200,-0.5625,1.3125,-108.5625,-1.2500,0.2500,0.0000,113.8750,
2025-03-09 20:20:32.111,-0.3100,0.0900,9.4700,0.3125,2.5625,-106.6250,-1.2500,0.2500,0.0000,114.9375,
2025-03-09 20:20:32.111,-0.0800,0.2800,9.5300,1.0000,2.9375,-102.3750,-1.2500,0.2500,0.0000,115.9375,
2025-03-09 20:20:32.111,0.2400,0.2900,9.5200,0.5625,2.1875,-94.8750,-1.3125,0.3125,0.0000,116.8125,
2025-03-09 20:20:32.111,0.0400,0.3000,9.4700,-0.2500,1.6250,-93.3750,-1.3125,0.3125,0.0000,117.7500,
2025-03-09 20:20:32.130,0.1100,0.7500,9.5000,0.6875,2.5625,-102.8750,-1.3125,0.3125,0.0000,118.7500,
2025-03-09 20:20:32.140,-0.4600,-0.0600,9.5400,0.2500,1.7500,-100.2500,-1.3125,0.3750,0.0000,119.6875,
2025-03-09 20:20:32.140,-0.3300,0.0900,9.5500,-0.1250,1.5000,-90.3750,-1.3125,0.3750,0.0000,120.5625,
2025-03-09 20:20:32.170,-0.3500,-0.5000,9.4300,-0.0625,0.5000,-77.9375,-1.3125,0.3750,0.0000,121.3125,
2025-03-09 20:20:32.170,-0.2500,-0.1100,9.4500,-0.3750,0.8125,-69.1875,-1.3125,0.3750,0.0000,121.3125,
2025-03-09 20:20:32.178,-0.2800,0.2300,9.5400,0.2500,1.4375,-64.6875,-1.3125,0.4375,0.0000,122.6250,
2025-03-09 20:20:32.192,-0.1100,0.0000,9.5000,0.2500,1.3750,-59.0000,-1.3750,0.4375,0.0000,123.1875,
2025-03-09 20:20:32.197,-0.0800,0.2600,9.5200,0.4375,0.8750,-58.1250,-1.3750,0.4375,0.0000,123.7500,
2025-03-09 20:20:32.201,0.0200,0.2700,9.5000,0.3125,1.4375,-60.0625,-1.3750,0.4375,0.0000,123.7500,
2025-03-09 20:20:32.222,0.2900,0.3600,9.4700,0.2500,1.6250,-67.6875,-1.3750,0.4375,0.0000,124.3125,
2025-03-09 20:20:32.222,-0.0400,-0.0900,9.4900,0.5625,1.5000,-74.4375,-1.3750,0.5000,0.0000,125.6875,
2025-03-09 20:20:32.232,-0.0300,0.2300,9.5200,0.8125,2.1250,-79.0000,-1.3750,0.5000,0.0000,126.4375,
2025-03-09 20:20:32.252,-0.4200,0.0700,9.5100,0.6250,1.7500,-78.6875,-1.3750,0.5000,0.0000,127.1875,
2025-03-09 20:20:32.252,-0.2300,-0.0700,9.4800,0.0000,0.8750,-73.1875,-1.3750,0.5000,0.0000,127.1875,
2025-03-09 20:20:32.268,-0.2500,-0.2000,9.5100,-0.0625,0.4375,-70.7500,-1.3750,0.5000,0.0000,127.8750,
2025-03-09 20:20:32.281,-0.2900,-0.0300,9.4400,-0.2500,0.4375,-65.1250,-1.3750,0.5625,0.0000,129.1875,
2025-03-09 20:20:32.282,-0.3200,0.1000,9.5200,-0.5000,0.3750,-56.6250,-1.3750,0.5625,0.0000,129.6875,
2025-03-09 20:20:32.292,-0.1700,0.1300,9.5100,-0.0625,0.5000,-50.9375,-1.3750,0.5625,0.0000,130.1875,
2025-03-09 20:20:32.312,-0.2100,0.1100,9.5000,-0.3750,0.3750,-46.3125,-1.3750,0.5625,0.0000,130.1875,
2025-03-09 20:20:32.312,-0.1100,0.1200,9.5200,-0.1875,0.5000,-44.7500,-1.3750,0.5625,0.0000,130.6250,
2025-03-09 20:20:32.332,0.0000,0.1700,9.4700,-0.1250,0.1250,-42.3125,-1.3750,0.5625,0.0000,131.4375,
2025-03-09 20:20:32.342,-0.2200,0.1300,9.4900,-0.3750,0.4375,-39.1875,-1.3750,0.5625,0.0000,131.8125,
2025-03-09 20:20:32.342,-0.1700,0.2200,9.5100,-0.3125,0.5000,-37.3750,-1.3125,0.5625,0.0000,132.1875,
2025-03-09 20:20:32.352,-0.1200,0.2400,9.4700,-0.3125,0.3750,-32.5000,-1.3125,0.5625,0.0000,132.1875,
2025-03-09 20:20:32.413,-0.1700,0.3200,9.5300,-0.1875,0.6250,-31.2500,-1.3125,0.5625,0.0000,132.3750,
2025-03-09 20:20:32.413,-0.1500,0.3200,9.5000,-0.5625,0.6250,-25.3750,-1.3125,0.5000,0.0000,132.9375,
2025-03-09 20:20:32.417,-0.1000,0.2400,9.5200,-0.6250,0.2500,-19.6250,-1.3125,0.5000,0.0000,133.1250,
2025-03-09 20:20:32.417,-0.1200,0.2400,9.5200,-0.2500,0.4375,-22.5625,-1.3125,0.5000,0.0000,133.3125,
2025-03-09 20:20:32.417,-0.1200,0.2400,9.5200,-0.3125,0.2500,-21.4375,-1.3125,0.5000,0.0000,133.3125,
2025-03-09 20:20:32.417,-0.1000,0.1700,9.5000,-0.5000,0.0625,-16.6250,-1.3125,0.4375,0.0000,133.5000,
2025-03-09 20:20:32.434,-0.1800,0.2300,9.5100,-0.3125,-0.3125,-16.1250,-1.3125,0.4375,0.0000,133.8125,
2025-03-09 20:20:32.435,-0.0800,0.1600,9.5000,-0.0625,-0.5000,-11.1250,-1.3125,0.4375,0.0000,133.9375,
2025-03-09 20:20:32.445,-0.0700,0.1000,9.4900,-0.1875,-0.6250,-6.7500,-1.2500,0.4375,0.0000,134.0000,
2025-03-09 20:20:32.466,-0.0700,0.1000,9.4900,-0.0625,-0.5000,-6.2500,-1.2500,0.4375,0.0000,134.0000,
2025-03-09 20:20:32.467,-0.1100,0.2200,9.5100,-0.1875,-0.6875,-2.5000,-1.2500,0.3750,0.0000,134.0000,
2025-03-09 20:20:32.478,-0.0900,0.1300,9.4700,0.0000,-0.3125,-0.6250,-1.2500,0.3750,0.0000,134.0625,
2025-03-09 20:20:32.497,-0.0200,0.1200,9.5300,-0.0625,0.7500,-10.8750,-1.2500,0.3750,0.0000,134.0625,
2025-03-09 20:20:32.507,-0.0200,0.1200,9.5300,0.0000,0.3750,-12.1250,-1.2500,0.3125,0.0000,134.1875,
2025-03-09 20:20:32.527,-0.1000,0.1700,9.5300,0.0000,0.3750,-12.1250,-1.2500,0.3125,0.0000,134.1875,
2025-03-09 20:20:32.527,-0.1100,0.1600,9.4800,0.1875,-0.1875,-12.0625,-1.2500,0.3125,0.0000,134.3125,
2025-03-09 20:20:32.537,-0.1500,0.3000,9.5000,0.0625,-0.0625,-10.6250,-1.1875,0.3125,0.0000,134.3750,
2025-03-09 20:20:32.547,-0.1500,0.2800,9.5000,0.0625,-0.2500,-7.8125,-1.1875,0.3125,0.0000,134.5000,
2025-03-09 20:20:32.557,-0.1500,0.2800,9.5000,0.0625,-0.2500,-7.8125,-1.1875,0.2500,0.0000,134.5625,
2025-03-09 20:20:32.567,-0.1400,0.2900,9.5000,0.0000,0.0625,-0.7500,-1.1875,0.2500,0.0000,134.3750,
2025-03-09 20:20:32.597,-0.0900,0.1700,9.5100,0.1250,0.3750,0.0625,-1.1875,0.2500,0.0000,134.3750,
2025-03-09 20:20:32.597,-0.1000,0.1800,9.4900,0.1250,0.5625,0.1875,-1.1875,0.2500,0.0000,134.3750,
2025-03-09 20:20:32.597,-0.0800,0.1800,9.5300,0.0000,0.3750,-0.0625,-1.1875,0.1875,0.0000,134.3750,
2025-03-09 20:20:32.617,-0.0800,0.1800,9.5300,-0.0625,0.1875,0.0000,-1.1875,0.1875,0.0000,134.3750,
2025-03-09 20:20:32.617,-0.0900,0.1600,9.5300,-0.0625,0.0000,-0.0625,-1.1875,0.1875,0.0000,134.3125,
2025-03-09 20:20:32.627,-0.0800,0.1300,9.5000,0.0000,-0.0625,-0.2500,-1.1875,0.1875,0.0000,134.3125,
2025-03-09 20:20:32.637,-0.1500,0.2700,9.5000,-0.1250,-0.1250,-1.3750,-1.1875,0.1875,0.0000,134.3125,
2025-03-09 20:20:32.647,-0.1100,0.1700,9.5000,-0.0625,-0.2500,-1.9375,-1.1875,0.1875,0.0000,134.3125,
2025-03-09 20:20:32.667,-0.0900,0.1500,9.4800,-0.1250,-0.0625,0.1250,-1.1250,0.1250,0.0000,134.3125,
2025-03-09 20:20:32.710,-0.1000,0.1600,9.4900,-0.1250,0.1250,0.1875,-1.1250,0.1250,0.0000,134.3125,
2025-03-09 20:20:32.710,-0.0800,0.1700,9.5000,0.0000,0.1875,0.1250,-1.1250,0.1250,0.0000,134.3125,
2025-03-09 20:20:32.728,-0.1000,0.1800,9.5200,0.0000,0.0625,0.0625,-1.1250,0.0625,0.0000,134.1250,
2025-03-09 20:20:32.738,-0.0800,0.1700,9.5000,-0.0625,-0.1250,0.1250,-1.1250,0.0625,0.0000,134.1250,
2025-03-09 20:20:32.758,-0.0800,0.1900,9.5000,-0.0625,-0.1250,0.0625,-1.1250,0.0625,0.0000,134.1250,
2025-03-09 20:20:32.768,-0.1100,0.1700,9.5000,0.0000,-0.0625,0.0000,-1.1250,0.0625,0.0000,134.0000,
2025-03-09 20:20:32.788,-0.1100,0.1600,9.5200,0.0625,-0.0625,0.0625,-1.1250,0.0625,0.0000,134.0000,
2025-03-09 20:20:32.809,-0.1100,0.1600,9.5200,0.0000,0.2500,0.0000,-1.1250,0.0000,0.0000,134.0000,
2025-03-09 20:20:32.830,-0.1000,0.1800,9.4600,0.0000,0.0625,0.0625,-1.0625,0.0000,0.0000,133.7500,
2025-03-09 20:20:32.840,-0.1000,0.1700,9.4900,0.1250,0.1250,0.0625,-1.0625,0.0000,0.0000,133.7500,
2025-03-09 20:20:32.853,-0.0800,0.1800,9.5000,0.0625,0.1250,-0.0625,-1.0625,0.0000,0.0000,133.7500,
2025-03-09 20:20:32.871,-0.1000,0.1800,9.5300,-0.1250,0.0000,-0.1250,-1.0625,0.0000,0.0000,133.5625,
2025-03-09 20:20:32.883,-0.1100,0.1500,9.5000,0.0000,0.2500,-0.0625,-1.0625,0.0000,0.0000,133.5625,
2025-03-09 20:20:32.914,-0.0900,0.1900,9.5000,0.0625,0.1250,0.1250,-1.0625,0.0000,0.0000,133.5625,
2025-03-09 20:20:32.914,-0.1100,0.1800,9.5200,0.0000,0.3125,0.0000,-1.0625,0.0000,0.0000,133.5000,
2025-03-09 20:20:32.944,-0.1000,0.1700,9.5000,-0.1250,0.1875,-0.1250,-1.0625,0.0000,0.0000,133.5000,
2025-03-09 20:20:32.953,-0.0900,0.1800,9.5000,-0.0625,0.1250,-0.0625,-1.0625,0.0000,0.0000,133.5000,
2025-03-09 20:20:32.963,-0.1000,0.1600,9.5200,0.0000,0.1875,-0.0625,-1.0625,0.0000,0.0000,133.4375,
2025-03-09 20:20:33.015,-0.1100,0.1500,9.4900,-0.0625,0.0625,0.0625,-1.0625,-0.0625,0.0000,133.4375,
2025-03-09 20:20:33.015,-0.1100,0.1500,9.5000,-0.1250,0.0000,0.1250,-1.0625,-0.0625,0.0000,133.4375,
2025-03-09 20:20:33.015,-0.1100,0.1800,9.5000,0.0625,0.0000,0.1250,-1.0625,-0.0625,0.0000,133.3750,
2025-03-09 20:20:33.036,-0.0900,0.1700,9.5000,0.0000,0.5000,-0.1875,-1.0000,-0.0625,0.0000,133.3750,
2025-03-09 20:20:33.067,-0.0900,0.1700,9.5300,0.1250,0.5000,0.0625,-1.0000,-0.0625,0.0000,133.3750,
2025-03-09 20:20:33.072,-0.1000,0.1500,9.5100,0.2500,1.0000,0.1875,-1.0000,-0.0625,0.0000,133.3750,
2025-03-09 20:20:33.094,-0.1200,0.1800,9.4900,0.4375,1.4375,0.5000,-1.0625,-0.0625,0.0000,133.3750,
2025-03-09 20:20:33.107,-0.1100,0.1700,9.5300,0.5000,1.6875,0.6250,-1.0625,-0.1250,0.0000,133.3750,
2025-03-09 20:20:33.128,-0.1200,0.1800,9.5200,0.8125,1.8125,0.7500,-1.0625,-0.1250,0.0000,133.3750,
2025-03-09 20:20:33.128,-0.1300,0.1900,9.5200,0.7500,2.1250,1.2500,-1.1250,-0.1250,0.0000,133.3125,
2025-03-09 20:20:33.138,-0.1100,0.1200,9.5200,1.0625,2.7500,3.1250,-1.1250,-0.1250,0.0000,133.3125,
2025-03-09 20:20:33.160,-0.1200,0.2700,9.4700,1.1875,3.1875,6.1250,-1.1875,-0.1875,0.0000,133.1875,
2025-03-09 20:20:33.160,-0.1100,0.2100,9.5000,1.0000,2.8750,1.8125,-1.1875,-0.1875,0.0000,133.1250,
2025-03-09 20:20:33.194,-0.1200,0.1600,9.6000,1.2500,3.5000,0.9375,-1.2500,-0.1875,0.0000,133.1250,
2025-03-09 20:20:33.194,-0.1400,0.1700,9.5900,1.8750,4.8125,1.0625,-1.3125,-0.2500,0.0000,133.1250,
2025-03-09 20:20:33.211,-0.1600,0.2100,9.5900,3.8125,9.3750,0.5625,-1.4375,-0.3125,0.0000,133.0625,
2025-03-09 20:20:33.211,-0.1900,0.2200,9.5300,3.8125,11.4375,0.0000,-1.5625,-0.3750,0.0000,133.0000,
2025-03-09 20:20:33.221,-0.2200,0.2600,9.3700,3.0000,11.5625,0.0000,-1.6250,-0.3750,0.0000,133.0000,
2025-03-09 20:20:33.251,-0.3000,0.1800,9.5000,2.3750,10.6875,-0.1250,-1.7500,-0.4375,0.0000,133.0000,
2025-03-09 20:20:33.252,-0.1800,0.1100,10.0700,1.9375,27.6875,1.8750,-2.1875,-0.4375,0.0000,133.0000,
2025-03-09 20:20:33.324,-0.2800,0.2700,9.9500,1.4375,40.5625,4.0625,-2.5625,-0.5000,0.0000,132.8750,
2025-03-09 20:20:33.324,-0.4000,0.2800,9.8500,1.3125,50.7500,5.7500,-3.0625,-0.5000,0.0000,132.8125,
2025-03-09 20:20:33.324,-0.4600,0.2900,9.9900,-0.0625,68.8750,5.9375,-4.3125,-0.5000,0.0000,132.6875,
2025-03-09 20:20:33.344,-0.5000,0.0500,10.1400,-0.5000,83.1875,7.0000,-5.0625,-0.5000,0.0000,132.6250,
2025-03-09 20:20:33.344,-0.9700,0.4700,10.1100,-0.6250,100.3750,8.5625,-6.0625,-0.5000,0.0000,132.5000,
2025-03-09 20:20:33.344,-0.4700,0.3500,10.0000,-0.8750,115.9375,8.0625,-7.1875,-0.5000,0.0000,132.4375,
2025-03-09 20:20:33.344,-1.0300,0.4300,9.6200,-0.2500,126.9375,2.1875,-8.4375,-0.5000,0.0000,132.3750,
2025-03-09 20:20:33.365,-1.7400,0.2500,9.2100,0.1250,132.1875,-6.2500,-10.9375,-0.5000,0.0000,132.5000,
2025-03-09 20:20:33.365,-1.8800,0.2200,9.0100,0.3750,128.0000,-7.1250,-12.1875,-0.5000,0.0000,132.5000,
2025-03-09 20:20:33.375,-2.1600,0.2200,8.8200,0.6875,120.3125,-7.4375,-13.3750,-0.5000,0.0000,132.5625,
2025-03-09 20:20:33.394,-2.4400,0.2500,8.7500,1.2500,109.9375,-7.4375,-14.4375,-0.5000,0.0000,132.6250,
2025-03-09 20:20:33.405,-2.6600,0.3100,8.8700,1.5000,87.4375,-8.5625,-16.2500,-0.4375,0.0000,132.8125,
2025-03-09 20:20:33.415,-2.6900,0.3100,8.9100,2.0625,79.7500,-9.1875,-17.0000,-0.4375,0.0000,132.8750,
2025-03-09 20:20:33.429,-2.9600,0.0900,9.3600,2.1875,76.1875,-10.2500,-17.7500,-0.4375,0.0000,132.9375,
2025-03-09 20:20:33.440,-2.7300,0.5200,9.6400,2.0000,79.3750,-8.1250,-18.5000,-0.4375,0.0000,133.0000,
2025-03-09 20:20:33.454,-3.2700,0.2300,9.2900,2.1875,102.9375,-8.9375,-20.3750,-0.4375,0.0000,133.1875,
2025-03-09 20:20:33.466,-3.3100,0.4300,9.1100,1.7500,111.6250,-11.1250,-21.5000,-0.4375,0.0000,133.2500,
2025-03-09 20:20:33.483,-3.4400,0.4700,8.8200,3.6250,114.3750,-13.2500,-22.5625,-0.4375,0.0000,133.3750,
2025-03-09 20:20:33.484,-3.6300,0.2300,8.5500,6.2500,112.3125,-18.0000,-23.6875,-0.4375,0.0000,133.5625,
2025-03-09 20:20:33.495,-4.1000,0.3300,8.4400,6.5000,107.3125,-20.4375,-24.6875,-0.3750,0.0000,133.7500,
2025-03-09 20:20:33.515,-4.2500,0.2400,8.4500,7.3125,95.2500,-22.3750,-26.6250,-0.3125,0.0000,134.0625,
2025-03-09 20:20:33.535,-4.4700,0.0800,8.4300,8.1250,90.6250,-22.1875,-27.5000,-0.3125,0.0000,134.3125,
2025-03-09 20:20:33.535,-4.5500,0.0100,8.5400,8.0625,87.8750,-23.1875,-28.3750,-0.2500,0.0000,134.5625,
2025-03-09 20:20:33.556,-4.6600,-0.0600,8.5100,7.8750,87.8750,-24.6250,-29.1875,-0.1875,0.0000,134.8125,
2025-03-09 20:20:33.556,-4.6100,0.1100,8.5900,8.6875,91.6875,-22.7500,-30.0625,-0.1875,0.0000,135.0625,
2025-03-09 20:20:33.607,-5.0000,-0.5600,8.3600,11.6250,98.3125,-18.2500,-31.0625,-0.1875,0.0000,135.2500,
2025-03-09 20:20:33.617,-5.2100,-0.3100,8.2700,5.4375,104.8125,-15.3750,-32.0625,-0.1250,0.0000,135.3750,
2025-03-09 20:20:33.617,-5.1200,-0.2300,8.0800,0.0625,107.2500,-8.1250,-33.0625,-0.1250,0.0000,135.5000,
2025-03-09 20:20:33.617,-5.3100,-0.4000,7.8100,-3.9375,106.2500,-6.1250,-34.1250,0.0000,0.0000,135.5000,
2025-03-09 20:20:33.617,-5.5800,0.0500,7.6700,-5.3750,100.6250,-5.1875,-35.1250,0.0000,0.0000,135.5625,
2025-03-09 20:20:33.617,-5.6500,0.0800,7.6500,-5.7500,93.6875,-5.6875,-36.0000,0.1250,0.0000,135.5000,
2025-03-09 20:20:33.627,-5.6700,0.1500,7.6700,-6.4375,88.9375,-6.7500,-36.8750,0.1875,0.0000,135.5625,
2025-03-09 20:20:33.638,-5.8700,0.0100,7.6500,-8.6250,87.1250,-7.8125,-37.6875,0.3750,0.0000,135.6250,
2025-03-09 20:20:33.647,-5.9900,0.0100,7.5900,-9.8750,86.0000,-8.5000,-38.5625,0.5000,0.0000,135.6875,
2025-03-09 20:20:33.666,-5.9900,-0.0100,7.6100,-11.4375,85.3750,-8.2500,-39.3750,0.6875,0.0000,135.6875,
2025-03-09 20:20:33.668,-6.0700,-0.1500,7.6100,-12.8125,86.4375,-9.4375,-40.1875,0.9375,0.0000,135.7500,
2025-03-09 20:20:33.678,-6.2900,-0.3400,7.5600,-13.3125,91.1250,-8.6875,-41.0625,1.1250,0.0000,135.8125,
2025-03-09 20:20:33.698,-6.4300,-0.5200,7.4500,-15.2500,97.1875,-3.6875,-42.0000,1.3125,0.0000,135.8125,
2025-03-09 20:20:33.698,-6.7700,-0.3700,7.2600,-17.9375,103.5625,5.2500,-43.0000,1.5000,0.0000,135.6875,
2025-03-09 20:20:33.708,-7.2000,-0.9700,6.4700,-24.1875,110.8125,12.6250,-44.1250,1.6250,0.0000,135.5000,
2025-03-09 20:20:33.719,-6.7800,-0.4000,6.4400,-36.4375,115.1250,16.6875,-45.1875,1.8750,0.0000,135.0000,
2025-03-09 20:20:33.729,-6.7800,-0.0200,6.6300,-46.3750,111.8125,19.8750,-46.3125,2.1250,0.0000,134.6250,
2025-03-09 20:20:33.739,-6.9400,-0.1100,6.3900,-45.7500,102.0625,18.9375,-47.3125,2.4375,0.0000,134.2500,
2025-03-09 20:20:33.749,-7.1100,0.0400,6.8000,-46.9375,92.7500,16.1250,-48.1875,2.7500,0.0000,133.9375,
2025-03-09 20:20:33.759,-7.4400,-0.0800,6.5200,-42.0625,87.5625,11.1875,-49.0625,3.1250,0.0000,133.6250,
2025-03-09 20:20:33.765,-7.3300,-0.2400,6.3100,-28.9375,86.9375,4.8125,-49.8750,3.3750,0.0000,133.3750,
2025-03-09 20:20:33.781,-7.4600,-0.2000,6.5400,-24.6250,88.6875,2.4375,-50.7500,3.6875,0.0000,133.2500,
2025-03-09 20:20:33.790,-7.4100,-0.3500,6.3200,-12.6250,91.3750,1.5625,-51.6250,3.8125,0.0000,133.1875,
2025-03-09 20:20:33.798,-7.6000,-0.4200,6.2700,-7.3750,95.4375,-0.3125,-52.5625,4.0000,0.0000,133.1875,
2025-03-09 20:20:33.815,-7.2900,-0.4000,6.0100,-4.2500,95.6875,-0.1875,-53.5000,4.1250,0.0000,133.1875,
2025-03-09 20:20:33.815,-7.5100,-0.3300,5.7400,1.0625,90.8125,-3.7500,-54.3750,4.2500,0.0000,133.2500,
2025-03-09 20:20:33.822,-7.8600,-0.3200,5.3000,8.1875,83.0000,-8.4375,-55.1875,4.3750,0.0000,133.3750,
2025-03-09 20:20:33.848,-8.0300,-0.3800,5.2900,8.3125,77.2500,-10.8125,-55.8750,4.5000,0.0000,133.5625,
2025-03-09 20:20:33.848,-8.2200,-0.4700,5.4300,6.5625,75.6875,-11.0000,-56.6250,4.6875,0.0000,133.7500,
2025-03-09 20:20:33.852,-8.2400,-0.4900,5.2800,5.6875,78.3125,-10.0625,-57.3750,4.8750,0.0000,133.8750,
2025-03-09 20:20:33.914,-8.6600,-0.5400,4.9800,4.5000,81.3750,-9.1250,-58.1250,5.1250,0.0000,133.8750,
2025-03-09 20:20:33.914,-8.4200,-0.4400,4.8400,2.5625,82.0000,-7.8125,-58.9375,5.3125,0.0000,134.0000,
2025-03-09 20:20:33.914,-8.0300,-0.1400,5.1000,0.0000,80.6250,-6.1250,-59.6875,5.5625,0.0000,134.0625,
2025-03-09 20:20:33.923,-8.2700,-0.1800,4.7800,2.6250,77.8750,-7.0625,-60.4375,5.7500,0.0000,134.1875,
2025-03-09 20:20:33.923,-8.2100,-0.5100,4.9500,1.0625,75.3125,-6.2500,-61.1875,6.0000,0.0000,134.2500,
2025-03-09 20:20:33.924,-8.5400,-0.9400,4.8600,0.9375,74.9375,-4.1875,-61.8750,6.1875,0.0000,134.0625,
2025-03-09 20:20:33.934,-8.4100,-0.9200,4.5500,2.5000,75.6250,-0.9375,-62.6250,6.3750,0.0000,134.1250,
2025-03-09 20:20:33.934,-8.6000,-0.6900,4.4600,0.8125,76.5000,1.6250,-63.3125,6.5000,0.0000,134.1250,
2025-03-09 20:20:33.968,-8.7100,-0.5700,4.0900,0.6250,73.3750,2.3125,-64.0625,6.6250,0.0000,134.1250,
2025-03-09 20:20:33.968,-8.8700,-0.5600,4.1000,0.8750,67.3125,4.1875,-64.6875,6.6875,0.0000,134.1250,
2025-03-09 20:20:33.968,-8.8200,-0.4100,3.6900,-0.1250,63.3125,5.7500,-65.3125,6.6875,0.0000,133.9375,
2025-03-09 20:20:33.996,-8.8800,-0.5600,4.0300,0.5000,63.6250,5.5000,-65.9375,6.7500,0.0000,133.9375,
2025-03-09 20:20:33.996,-8.7900,-0.3800,3.9100,-1.7500,63.3125,6.2500,-66.5625,6.8125,0.0000,133.8750,
2025-03-09 20:20:33.998,-8.8900,-0.2800,4.0000,-6.0625,63.5000,5.0625,-67.1875,6.8750,0.0000,133.8125,
2025-03-09 20:20:34.006,-9.2100,-0.1500,4.0200,-8.0000,66.8125,3.3750,-67.8125,7.0625,0.0000,133.7500,
2025-03-09 20:20:34.017,-9.1400,-0.3500,3.9300,-2.1250,74.2500,-0.0625,-68.5000,7.3125,0.0000,133.6250,
2025-03-09 20:20:34.028,-9.0800,-0.4000,3.3400,-0.2500,80.1250,-1.5000,-69.3125,7.6250,0.0000,133.6875,
2025-03-09 20:20:34.037,-8.7800,-0.3700,3.1500,-1.5625,81.1875,-0.0625,-70.0625,7.9375,0.0000,133.6875,
2025-03-09 20:20:34.058,-8.5900,-0.5700,3.0200,-1.4375,76.8125,0.1875,-70.8125,8.2500,0.0000,133.7500,
2025-03-09 20:20:34.058,-8.6800,-0.5300,2.8400,-2.0625,67.9375,2.5625,-71.4375,8.5000,0.0000,133.6875,
2025-03-09 20:20:34.069,-8.9900,-0.1600,3.0100,-0.0625,58.4375,1.8125,-72.0000,8.6875,0.0000,133.6875,
2025-03-09 20:20:34.080,-9.2900,-0.4200,3.0300,5.6250,53.5625,-2.7500,-72.5625,9.0000,0.0000,133.8125,
2025-03-09 20:20:34.090,-9.4000,-0.4600,3.1200,5.5625,51.8125,-1.2500,-73.0000,9.1875,0.0000,133.8750,
2025-03-09 20:20:34.099,-9.5100,-0.3400,2.9800,7.5625,55.3750,-1.1875,-73.5625,9.5000,0.0000,133.9375,
2025-03-09 20:20:34.109,-9.6100,-0.3400,2.6600,8.4375,59.1875,-1.3125,-74.1250,9.7500,0.0000,134.0625,
2025-03-09 20:20:34.119,-9.5100,-0.3900,2.4300,8.6250,59.2500,0.5000,-74.6875,10.0625,0.0000,134.0000,
2025-03-09 20:20:34.129,-9.1500,-0.4900,2.1300,11.6875,59.6250,-1.8125,-74.6875,10.0625,0.0000,134.0000,
2025-03-09 20:20:34.140,-8.9600,-0.8000,1.9600,13.0625,57.4375,-3.9375,-75.8125,10.8125,0.0000,134.2500,
2025-03-09 20:20:34.140,-8.7200,-0.8600,2.0400,11.8750,51.0000,-1.1875,-76.2500,11.1250,0.0000,134.3750,
2025-03-09 20:20:34.150,-9.1400,-0.5200,2.0600,6.0000,46.0000,-0.3750,-76.6875,11.3750,0.0000,134.4375,
2025-03-09 20:20:34.172,-9.3600,-0.6300,2.2000,3.1875,37.0000,0.4375,-76.6875,11.3750,0.0000,134.4375,
2025-03-09 20:20:34.202,-9.8300,-0.6600,2.1400,3.6875,30.5625,-1.7500,-77.0625,11.6875,0.0000,134.4375,
2025-03-09 20:20:34.202,-10.1900,-0.5700,2.0700,5.0000,28.0000,-2.6250,-77.6250,12.3125,0.0000,134.5625,
2025-03-09 20:20:34.212,-9.6400,-0.7300,2.1400,8.1875,29.0000,-0.1250,-77.8750,12.5000,0.0000,134.6875,
2025-03-09 20:20:34.212,-9.6200,-0.8100,1.7600,7.6875,30.6875,5.2500,-78.1875,12.5000,0.0000,134.6875,
2025-03-09 20:20:34.223,-9.5600,-0.6900,1.8100,5.7500,29.5000,9.2500,-78.1875,12.5000,0.0000,134.6875,
2025-03-09 20:20:34.223,-9.4900,-0.3700,1.9900,4.6875,26.1875,11.9375,-78.5000,12.3125,0.0000,134.6250,
2025-03-09 20:20:34.234,-9.4100,-0.5100,1.8500,5.7500,23.3125,13.3750,-79.0000,11.5000,0.0000,134.5000,
2025-03-09 20:20:34.247,-9.6100,-0.5000,1.7400,3.5625,22.3750,14.5000,-79.2500,11.0000,0.0000,134.3750,
2025-03-09 20:20:34.254,-9.4200,-0.5600,1.7500,0.3750,20.1875,17.6875,-79.4375,10.3750,0.0000,134.2500,
2025-03-09 20:20:34.265,-9.5100,-0.3500,1.8200,-2.3125,17.3750,17.7500,-79.4375,10.3750,0.0000,134.2500,
2025-03-09 20:20:34.275,-9.5100,-0.3500,1.8200,-2.6875,12.8125,17.6250,-79.6250,9.6250,0.0000,133.9375,
2025-03-09 20:20:34.297,-9.4100,0.0700,2.1100,-0.1250,8.6250,18.0000,-79.8750,7.9375,0.0000,133.5625,
2025-03-09 20:20:34.297,-9.4600,0.0000,1.9900,4.8125,10.1875,14.8125,-80.0000,7.1875,0.0000,133.4375,
2025-03-09 20:20:34.305,-9.5100,-0.1100,1.8800,5.8125,14.6875,11.5000,-80.1875,6.5625,0.0000,133.3750,
2025-03-09 20:20:34.320,-9.4700,-0.0400,1.6600,3.8750,17.6250,10.1250,-80.1875,6.5625,0.0000,133.3750,
2025-03-09 20:20:34.330,-9.5300,-0.0500,1.4700,2.3750,17.1875,7.6875,-80.3750,6.0625,0.0000,133.2500,
2025-03-09 20:20:34.337,-9.5600,-0.1700,1.4000,-0.2500,13.6250,5.5625,-80.6875,5.5000,0.0000,133.1250,
2025-03-09 20:20:34.347,-9.5700,-0.0700,1.7400,-3.1250,9.8125,5.1875,-80.7500,5.2500,0.0000,133.0625,
2025-03-09 20:20:34.367,-9.6500,-0.1900,1.5600,-2.4375,8.3125,4.6875,-80.8750,5.0625,0.0000,133.0000,
2025-03-09 20:20:34.368,-9.6500,-0.1900,1.5600,-3.1875,8.1250,4.5625,-80.8750,5.0625,0.0000,133.0000,
2025-03-09 20:20:34.389,-9.6100,-0.2100,1.4800,-3.9375,6.8750,5.1875,-80.9375,4.8125,0.0000,132.8750,
2025-03-09 20:20:34.389,-9.5000,0.0400,1.6900,-4.3125,4.0625,5.0625,-81.0625,4.3125,0.0000,132.7500,
2025-03-09 20:20:34.399,-9.5300,0.0000,1.8000,-2.8750,2.0000,3.2500,-81.0625,4.1250,0.0000,132.6875,
2025-03-09 20:20:34.410,-9.6000,-0.0200,1.7600,0.0000,2.8125,-0.0625,-81.0625,4.1250,0.0000,132.6875,
2025-03-09 20:20:34.419,-9.6000,-0.0200,1.7600,1.1875,5.9375,-2.1250,-81.0625,4.1250,0.0000,132.6875,
2025-03-09 20:20:34.429,-9.5500,-0.1200,1.6700,0.8750,7.4375,-2.8750,-81.1250,4.2500,0.0000,132.5625,
2025-03-09 20:20:34.442,-9.5900,-0.2700,1.5300,0.3125,6.7500,-3.0000,-81.1875,4.5000,0.0000,132.6250,
2025-03-09 20:20:34.446,-9.6400,-0.2200,1.4900,-1.0000,4.6875,-1.4375,-81.2500,4.6875,0.0000,132.6875,
2025-03-09 20:20:34.456,-9.6000,-0.1300,1.5400,-1.3750,2.3750,-0.3750,-81.3125,4.8750,0.0000,132.6875,
2025-03-09 20:20:34.518,-9.6000,-0.1300,1.5400,-1.6875,0.7500,-0.0625,-81.3125,4.8750,0.0000,132.6250,
2025-03-09 20:20:34.518,-9.6000,-0.0800,1.6400,-1.0625,0.2500,-0.8750,-81.3125,4.8750,0.0000,132.6250,
2025-03-09 20:20:34.538,-9.5500,-0.1700,1.6700,-0.3750,0.5000,-1.6250,-81.3125,4.9375,0.0000,132.6250,
2025-03-09 20:20:34.538,-9.6200,-0.1700,1.6900,-0.0625,0.0625,-1.5625,-81.3125,5.0625,0.0000,132.6250,
2025-03-09 20:20:34.538,-9.6500,-0.2300,1.5600,1.5625,0.5625,-1.6875,-81.3125,5.1875,0.0000,132.6875,
2025-03-09 20:20:34.538,-9.6500,-0.2300,1.5600,1.5625,0.5625,-1.6875,-81.2500,5.2500,0.0000,132.6875,
2025-03-09 20:20:34.538,-9.6300,-0.2100,1.5800,1.3750,1.3750,-0.8125,-81.3125,5.3125,0.0000,132.5625,
2025-03-09 20:20:34.538,-9.5900,-0.1700,1.5000,0.8125,0.0000,1.0000,-81.3125,5.3125,0.0000,132.6250,
2025-03-09 20:20:34.558,-9.6100,-0.1700,1.4700,0.3750,-1.8125,2.1875,-81.3125,5.2500,0.0000,132.6250,
2025-03-09 20:20:34.558,-9.5600,-0.2000,1.4500,-0.3750,-3.7500,2.7500,-81.3125,5.1250,0.0000,132.5625,
2025-03-09 20:20:34.568,-9.5600,-0.2000,1.4500,-1.3750,-6.6250,3.1875,-81.2500,4.9375,0.0000,132.5625,
2025-03-09 20:20:34.578,-9.6400,-0.1700,1.4900,-1.3750,-6.6250,3.1875,-81.1875,4.6875,0.0000,132.5000,
2025-03-09 20:20:34.589,-9.5900,-0.0700,1.8200,-3.2500,-9.6250,4.3750,-81.1250,4.4375,0.0000,132.4375,
2025-03-09 20:20:34.606,-9.6100,-0.0200,1.8000,-2.5000,-6.5625,3.5625,-81.0000,4.1250,0.0000,132.3750,
2025-03-09 20:20:34.619,-9.5200,-0.0800,1.6900,1.1250,-0.0625,0.5000,-80.9375,3.7500,0.0000,132.2500,
2025-03-09 20:20:34.629,-9.5300,-0.1500,1.4900,0.4375,-2.0625,-0.1250,-80.9375,3.7500,0.0000,132.1875,
2025-03-09 20:20:34.659,-9.6200,-0.2500,1.5200,-1.2500,-9.2500,0.1250,-80.8125,3.7500,0.0000,132.1875,
2025-03-09 20:20:34.659,-9.7000,-0.2200,1.6200,-2.8125,-12.0000,1.5000,-80.6250,3.6250,0.0000,132.1250,
2025-03-09 20:20:34.679,-9.6100,-0.1000,1.7400,-3.3125,-13.6875,2.9375,-80.5000,3.4375,0.0000,132.0625,
2025-03-09 20:20:34.689,-9.5100,-0.1100,1.7600,-1.6875,-14.8125,2.8750,-80.3750,3.2500,0.0000,132.0000,
2025-03-09 20:20:34.699,-9.5200,-0.0500,1.6100,-1.3125,-17.2500,2.3125,-80.2500,3.0625,0.0000,131.9375,
2025-03-09 20:20:34.718,-9.5500,-0.1400,1.6200,-1.3750,-20.7500,1.4375,-79.8750,2.7500,0.0000,131.8750,
2025-03-09 20:20:34.720,-9.5500,-0.1600,1.7300,-2.1875,-25.4375,1.4375,-79.6250,2.6250,0.0000,131.8750,
2025-03-09 20:20:34.740,-9.5700,-0.1300,1.8500,-3.0000,-31.7500,2.8750,-79.3125,2.5000,0.0000,131.8125,
2025-03-09 20:20:34.750,-9.5700,-0.1200,1.9900,-2.8750,-31.8750,3.9375,-79.0000,2.3125,0.0000,131.7500,
2025-03-09 20:20:34.770,-9.5000,-0.1500,1.9500,-2.5625,-32.5625,5.3125,-78.3750,1.8125,0.0000,131.6250,
2025-03-09 20:20:34.800,-9.4900,-0.0500,1.9500,-2.4375,-34.0000,6.0625,-78.0625,1.5000,0.0000,131.4375,
2025-03-09 20:20:34.810,-9.4100,-0.0800,1.9700,-0.7500,-42.9375,5.6875,-77.6875,1.1875,0.0000,131.3750,
2025-03-09 20:20:34.810,-9.2900,-0.0100,2.3800,0.8750,-55.1875,5.6250,-76.8125,0.6250,0.0000,131.1875,
2025-03-09 20:20:34.832,-9.6400,-0.1700,2.0200,2.6250,-60.8125,4.5000,-75.6875,0.1875,0.0000,131.0625,
2025-03-09 20:20:34.832,-9.8200,-0.5400,1.6500,1.5000,-73.1250,10.5000,-75.0625,0.0000,0.0000,131.0625,
2025-03-09 20:20:34.863,-9.2500,0.1800,3.0600,1.0625,-78.7500,14.5625,-73.6250,-0.8125,0.0000,130.8125,
2025-03-09 20:20:34.872,-8.9600,0.2900,3.3100,3.0625,-76.8125,12.2500,-72.1250,-1.5625,0.0000,130.5625,
2025-03-09 20:20:34.902,-8.8000,0.4800,3.4700,6.5000,-76.6250,2.4375,-71.3750,-1.8125,0.0000,130.5625,
2025-03-09 20:20:34.902,-8.6700,0.4100,3.0500,10.1875,-96.5625,-10.0000,-69.8125,-1.7500,0.0000,130.6875,
2025-03-09 20:20:34.932,-9.2100,-0.4600,3.4800,7.7500,-110.4375,-9.9375,-67.8125,-1.3125,0.0000,130.9375,
2025-03-09 20:20:34.932,-8.8900,0.0000,4.0700,-1.6875,-122.1250,9.6250,-66.6875,-1.2500,0.0000,130.9375,
2025-03-09 20:20:34.954,-8.4500,0.0300,4.5200,2.0625,-122.1250,10.1250,-64.3125,-1.5625,0.0000,130.7500,
2025-03-09 20:20:34.974,-7.6900,0.4500,4.9500,5.8750,-124.1250,7.5625,-61.9375,-1.8125,0.0000,130.5625,
2025-03-09 20:20:34.984,-8.1100,0.2700,4.8600,11.5000,-133.6875,-3.3125,-60.6875,-1.8750,0.0000,130.6250,
2025-03-09 20:20:35.014,-8.6000,-0.1200,4.7200,3.5625,-140.5000,-0.6875,-58.0625,-1.8125,0.0000,130.8750,
2025-03-09 20:20:35.028,-7.7800,0.2100,5.6100,-5.4375,-139.1250,5.8125,-55.3750,-1.7500,0.0000,130.8125,
2025-03-09 20:20:35.035,-7.5300,0.1800,6.1200,-14.1250,-135.3125,7.3750,-54.0000,-1.6875,0.0000,130.6875,
2025-03-09 20:20:35.057,-7.0300,0.5200,6.3200,-12.3125,-129.5000,0.2500,-51.4375,-1.5000,0.0000,130.4375,
2025-03-09 20:20:35.116,-7.0400,0.3000,6.7800,-8.0625,-130.5000,-7.3750,-48.9375,-1.1250,0.0000,130.3750,
2025-03-09 20:20:35.116,-6.9100,0.4400,6.8200,-7.3125,-128.1875,-15.4375,-47.6875,-0.8750,0.0000,130.5000,
2025-03-09 20:20:35.116,-6.7800,-0.2500,7.2600,-11.4375,-102.9375,-21.1250,-45.4375,-0.1875,0.0000,130.8125,
2025-03-09 20:20:35.126,-6.5700,-0.3400,6.8600,-7.9375,-100.4375,-15.6250,-43.5000,0.2500,0.0000,131.0625,
2025-03-09 20:20:35.146,-6.3500,-0.4900,6.6900,-3.0000,-107.0000,-9.0625,-42.4375,0.3750,0.0000,131.1250,
2025-03-09 20:20:35.169,-6.2200,0.1100,7.4200,-5.2500,-129.9375,2.9375,-40.0000,0.4375,0.0000,131.1250,
2025-03-09 20:20:35.177,-5.6000,0.1300,8.3000,-3.8750,-124.5625,13.6250,-37.5625,0.3750,0.0000,130.8750,
2025-03-09 20:20:35.187,-5.2600,0.3000,9.0500,-3.8750,-124.5625,13.6250,-36.3125,0.3125,0.0000,130.6875,
2025-03-09 20:20:35.210,-5.0200,0.3300,8.4300,12.0000,-91.6875,-3.0000,-34.3125,0.0625,0.0000,130.6875,
2025-03-09 20:20:35.228,-5.3300,-0.1800,7.9000,9.8125,-84.3750,-6.5000,-32.6875,0.0000,0.0000,130.8750,
2025-03-09 20:20:35.238,-5.1200,-0.1100,8.0100,7.7500,-89.2500,-1.1875,-31.8125,-0.0625,0.0000,130.9375,
2025-03-09 20:20:35.258,-4.6300,0.0800,8.3700,5.4375,-101.5625,8.2500,-29.8750,-0.2500,0.0000,130.8125,
2025-03-09 20:20:35.278,-4.3000,0.2000,8.5800,3.1250,-105.0000,9.5000,-27.8750,-0.4375,0.0000,130.6875,
2025-03-09 20:20:35.290,-4.0500,0.2600,8.7700,2.9375,-103.0000,7.1875,-26.8750,-0.5000,0.0000,130.6250,
2025-03-09 20:20:35.308,-3.9000,0.2500,8.7700,2.6875,-100.4375,4.7500,-24.9375,-0.5625,0.0000,130.5625,
2025-03-09 20:20:35.329,-3.4000,0.3000,9.3300,2.9375,-95.6875,1.1875,-23.0000,-0.6250,0.0000,130.5000,
2025-03-09 20:20:35.339,-3.3400,0.2900,9.3300,2.6875,-86.5000,-0.3125,-22.1875,-0.6250,0.0000,130.5000,
2025-03-09 20:20:35.348,-3.2900,0.2300,9.2800,2.6875,-78.0000,-1.0000,-21.4375,-0.6875,0.0000,130.5625,
2025-03-09 20:20:35.370,-3.0900,0.2600,9.0500,2.2500,-70.7500,-0.6250,-20.0625,-0.6875,0.0000,130.5625,
2025-03-09 20:20:35.380,-3.1000,0.1200,8.9300,2.7500,-72.8750,-0.0625,-19.3125,-0.7500,0.0000,130.5625,
2025-03-09 20:20:35.400,-2.9000,0.1500,9.0200,3.1250,-76.3750,1.9375,-18.6250,-0.7500,0.0000,130.5625,
2025-03-09 20:20:35.400,-2.8500,0.0900,9.0300,2.5000,-78.7500,4.8750,-17.8125,-0.8125,0.0000,130.5000,
2025-03-09 20:20:35.410,-2.6500,0.2200,9.1600,1.9375,-80.2500,8.3125,-17.0625,-0.8125,0.0000,130.4375,
2025-03-09 20:20:35.433,-2.2300,0.4200,9.3900,1.0625,-77.6875,6.3750,-15.5625,-0.8750,0.0000,130.3125,
2025-03-09 20:20:35.433,-2.2100,0.3300,9.3400,0.6250,-75.6250,3.8750,-14.8125,-0.9375,0.0000,130.3125,
2025-03-09 20:20:35.448,-2.0800,0.3600,9.3100,0.0625,-74.2500,2.9375,-14.0625,-0.9375,0.0000,130.2500,
2025-03-09 20:20:35.468,-1.9400,0.2000,9.3700,-0.3750,-74.8750,1.8750,-12.6250,-0.9375,0.0000,130.2500,
2025-03-09 20:20:35.468,-1.8100,0.2100,9.3200,1.0000,-75.3750,3.7500,-11.8750,-0.9375,0.0000,130.1875,
2025-03-09 20:20:35.500,-1.7000,0.2800,9.4800,0.5625,-74.9375,5.4375,-11.1875,-0.9375,0.0000,130.1875,
2025-03-09 20:20:35.500,-1.4200,0.3600,9.5700,0.0000,-68.8125,4.3750,-10.5000,-0.9375,0.0000,130.1250,
2025-03-09 20:20:35.509,-1.4200,0.2900,9.4700,0.4375,-64.8125,2.6250,-9.8750,-0.9375,0.0000,130.1250,
2025-03-09 20:20:35.520,-1.2800,0.2600,9.7700,-0.1875,-60.7500,4.0625,-9.3125,-0.9375,0.0000,130.0625,
2025-03-09 20:20:35.527,-1.2100,0.3200,9.6000,0.3125,-54.6250,3.9375,-8.7500,-0.9375,0.0000,130.0625,
2025-03-09 20:20:35.534,-1.1600,0.2700,9.5500,-0.7500,-50.0000,3.5000,-8.2500,-0.9375,0.0000,130.0000,
2025-03-09 20:20:35.550,-1.1300,0.3200,9.4600,-0.7500,-48.2500,4.5000,-7.8125,-0.9375,0.0000,130.0000,
2025-03-09 20:20:35.557,-1.0800,0.3300,9.5100,-1.3750,-47.2500,4.8750,-7.3750,-0.9375,0.0000,129.9375,
2025-03-09 20:20:35.560,-0.7600,0.5100,9.7300,-1.3125,-44.0625,4.1875,-6.9375,-0.9375,0.0000,129.8750,
2025-03-09 20:20:35.580,-0.7900,0.4200,9.6200,-1.3125,-38.5000,1.3125,-6.5625,-0.9375,0.0000,129.8750,
2025-03-09 20:20:35.580,-0.7900,0.4200,9.5700,-1.5625,-35.4375,-1.1875,-6.1875,-0.9375,0.0000,129.8750,
2025-03-09 20:20:35.599,-0.7900,0.3600,9.4300,-2.1875,-34.7500,-2.5625,-5.8750,-0.8750,0.0000,129.9375,
2025-03-09 20:20:35.610,-0.7100,0.2700,9.6100,-2.6250,-35.0000,-2.7500,-5.5625,-0.8750,0.0000,129.9375,
2025-03-09 20:20:35.621,-0.6700,0.2500,9.6300,-2.2500,-32.8750,-1.8125,-5.1875,-0.8125,0.0000,130.0000,
2025-03-09 20:20:35.622,-0.6700,0.1900,9.6000,-1.8125,-30.6250,0.0625,-4.9375,-0.8125,0.0000,130.0000,
2025-03-09 20:20:35.642,-0.5800,0.2400,9.6800,-2.0000,-28.2500,3.3750,-4.6250,-0.8125,0.0000,130.0000,
2025-03-09 20:20:35.642,-0.4700,0.3400,9.7100,-1.8125,-24.2500,5.8750,-4.3750,-0.8125,0.0000,129.9375,
2025-03-09 20:20:35.652,-0.3800,0.3900,9.7300,-1.8125,-18.8125,5.5625,-4.1875,-0.8125,0.0000,129.8750,
2025-03-09 20:20:35.672,-0.3800,0.4300,9.5300,-2.1250,-14.7500,3.8125,-4.0625,-0.7500,0.0000,129.8125,
2025-03-09 20:20:35.713,-0.4500,0.3100,9.4700,-2.0625,-14.9375,1.8750,-3.9375,-0.7500,0.0000,129.8125,
2025-03-09 20:20:35.713,-0.4500,0.2500,9.4500,-2.8750,-15.5625,1.6250,-3.7500,-0.7500,0.0000,129.8125,
2025-03-09 20:20:35.713,-0.3600,0.3300,9.5300,-2.7500,-16.3750,1.8125,-3.6250,-0.6875,0.0000,129.8125,
2025-03-09 20:20:35.713,-0.3300,0.3600,9.6300,-2.8750,-14.6250,0.5625,-3.4375,-0.6875,0.0000,129.8125,
2025-03-09 20:20:35.715,-0.3700,0.2900,9.4100,-3.0000,-12.1875,-1.0625,-3.3125,-0.6875,0.0000,129.8125,
2025-03-09 20:20:35.727,-0.3600,0.3300,9.3900,-3.1875,-13.4375,-2.1250,-3.1875,-0.6250,0.0000,130.0625,
2025-03-09 20:20:35.734,-0.2300,0.3000,9.5900,-4.0000,-14.7500,-2.6250,-3.0000,-0.6250,0.0000,130.1250,
2025-03-09 20:20:35.744,-0.2600,0.2400,9.5500,-4.1250,-13.0625,-1.9375,-2.8750,-0.5625,0.0000,130.1250,
2025-03-09 20:20:35.774,-0.1700,0.2600,9.5100,-3.7500,-11.6250,-1.4375,-2.7500,-0.5625,0.0000,130.1250,
2025-03-09 20:20:35.784,-0.2700,0.2200,9.5500,-3.5625,-11.0000,-1.2500,-2.6250,-0.5000,0.0000,130.1250,
2025-03-09 20:20:35.784,-0.1400,0.3200,9.5600,-3.0625,-9.5625,-1.4375,-2.5625,-0.5000,0.0000,130.1875,
