A1,,,,,,,,,,,
time,accx,accy,accz,gyrox,gyroy,gyroz,w1,w2,w3,w4,
2025-03-08 21:10:37.478,-0.1100,0.4600,9.5300,0.0000,0.0000,-0.0625,0.0223,0.0025,-0.0488,0.9986,
2025-03-08 21:10:37.479,-0.1000,0.4600,9.5100,0.0625,0.0000,0.0625,0.0223,0.0025,-0.0488,0.9986,
2025-03-08 21:10:37.490,-0.1300,0.4700,9.4900,0.0000,0.1250,0.0000,0.0223,0.0025,-0.0488,0.9986,
2025-03-08 21:10:37.505,-0.1100,0.4500,9.5200,-0.1250,0.1250,0.1250,0.0223,0.0025,-0.0488,0.9986,
2025-03-08 21:10:37.509,-0.1300,0.4700,9.4900,0.1250,-0.0625,-0.1250,0.0223,0.0025,-0.0488,0.9986,
2025-03-08 21:10:37.544,-0.1200,0.4600,9.4900,0.0000,0.0000,-0.0625,0.0223,0.0025,-0.0488,0.9986,
2025-03-08 21:10:37.544,-0.1400,0.4500,9.5100,0.0625,-0.1250,0.0625,0.0223,0.0025,-0.0488,0.9986,
2025-03-08 21:10:37.544,-0.1000,0.4700,9.4600,0.0625,-0.1250,-0.0625,0.0223,0.0025,-0.0488,0.9986,
2025-03-08 21:10:37.548,-0.1300,0.4600,9.5200,0.1250,-0.0625,0.1250,0.0223,0.0025,-0.0488,0.9986,
2025-03-08 21:10:37.558,-0.1100,0.4600,9.5000,0.0625,0.0625,0.0000,0.0223,0.0025,-0.0488,0.9986,
2025-03-08 21:10:37.569,-0.1100,0.4500,9.4900,0.1250,-0.0625,0.0625,0.0223,0.0025,-0.0488,0.9986,
2025-03-08 21:10:37.579,-0.1200,0.4500,9.4900,-0.0625,0.0000,0.0000,0.0223,0.0025,-0.0488,0.9986,
2025-03-08 21:10:37.589,-0.1100,0.4600,9.4600,0.0625,0.0625,-0.1250,0.0223,0.0025,-0.0488,0.9986,
2025-03-08 21:10:37.599,-0.1300,0.4800,9.5100,0.0625,-0.1250,0.0000,0.0223,0.0025,-0.0488,0.9986,
2025-03-08 21:10:37.609,-0.1100,0.4700,9.4900,-0.1875,0.1250,0.0625,0.0223,0.0025,-0.0488,0.9986,
2025-03-08 21:10:37.624,-0.1300,0.4800,9.5400,0.0625,0.0625,0.0625,0.0223,0.0025,-0.0488,0.9986,
2025-03-08 21:10:37.631,-0.1400,0.4600,9.5100,0.1250,-0.0625,0.0625,0.0223,0.0025,-0.0488,0.9986,
2025-03-08 21:10:37.641,-0.1100,0.4800,9.5000,-0.0625,0.1250,0.0000,0.0223,0.0025,-0.0488,0.9986,
2025-03-08 21:10:37.650,-0.1100,0.4700,9.5000,-0.0625,0.0625,0.1250,0.0223,0.0025,-0.0488,0.9986,
2025-03-08 21:10:37.664,-0.1100,0.4700,9.4900,0.0000,-0.1250,0.0625,0.0223,0.0025,-0.0488,0.9986,
2025-03-08 21:10:37.668,-0.1200,0.4800,9.5300,0.0000,0.0625,0.0000,0.0223,0.0025,-0.0488,0.9986,
2025-03-08 21:10:37.680,-0.1100,0.4600,9.5000,0.0625,0.0000,0.0000,0.0223,0.0025,-0.0488,0.9986,
2025-03-08 21:10:37.693,-0.1100,0.4400,9.4800,0.1250,-0.0625,0.0625,0.0223,0.0025,-0.0488,0.9986,
2025-03-08 21:10:37.699,-0.1100,0.4900,9.5100,0.0000,0.1875,-0.1250,0.0223,0.0025,-0.0488,0.9986,
2025-03-08 21:10:37.745,-0.1000,0.4700,9.4900,-0.1250,0.0000,-0.0625,0.0223,0.0025,-0.0488,0.9986,
2025-03-08 21:10:37.745,-0.1300,0.4600,9.5200,-0.0625,0.1250,0.0000,0.0223,0.0025,-0.0488,0.9986,
2025-03-08 21:10:37.755,-0.1100,0.4500,9.5000,0.0000,-0.0625,0.1250,0.0223,0.0025,-0.0488,0.9986,
2025-03-08 21:10:37.755,-0.1200,0.4500,9.5000,0.0000,0.0625,0.0625,0.0223,0.0025,-0.0488,0.9986,
2025-03-08 21:10:37.755,-0.1300,0.4800,9.5300,-0.1250,0.0625,-0.0625,0.0223,0.0025,-0.0488,0.9986,
2025-03-08 21:10:37.756,-0.1100,0.4800,9.4900,0.1250,-0.0625,0.0625,0.0223,0.0025,-0.0488,0.9986,
2025-03-08 21:10:37.766,-0.1000,0.4600,9.5000,0.0000,-0.0625,0.0000,0.0223,0.0025,-0.0488,0.9986,
2025-03-08 21:10:37.777,-0.1200,0.4700,9.5100,0.0625,-0.0625,0.0000,0.0223,0.0025,-0.0488,0.9986,
2025-03-08 21:10:37.787,-0.1200,0.4800,9.4900,-0.1250,0.0625,-0.0625,0.0223,0.0025,-0.0488,0.9986,
2025-03-08 21:10:37.808,-0.1000,0.4500,9.5000,0.0000,-0.0625,0.1250,0.0223,0.0025,-0.0488,0.9986,
2025-03-08 21:10:37.808,-0.1000,0.4700,9.5100,-0.1875,0.0000,0.0000,0.0223,0.0025,-0.0488,0.9986,
2025-03-08 21:10:37.818,-0.1100,0.4600,9.5100,-0.1250,0.1875,-0.1250,0.0223,0.0025,-0.0488,0.9986,
2025-03-08 21:10:37.834,-0.1100,0.4500,9.5100,-0.0625,0.1875,0.1250,0.0223,0.0025,-0.0488,0.9986,
2025-03-08 21:10:37.839,-0.1200,0.4700,9.4900,-0.0625,0.0625,0.0625,0.0223,0.0025,-0.0488,0.9986,
2025-03-08 21:10:37.849,-0.1200,0.4500,9.5200,-0.1250,0.0000,0.0000,0.0223,0.0025,-0.0488,0.9986,
2025-03-08 21:10:37.861,-0.1300,0.4700,9.5000,-0.0625,0.1875,0.1875,0.0223,0.0025,-0.0488,0.9986,
2025-03-08 21:10:37.870,-0.0900,0.4500,9.5200,0.0000,0.1250,-0.2500,0.0223,0.0025,-0.0488,0.9986,
2025-03-08 21:10:37.880,-0.1000,0.4600,9.5000,0.0000,-0.0625,0.1250,0.0223,0.0025,-0.0488,0.9986,
2025-03-08 21:10:37.890,-0.1100,0.4600,9.4600,0.0625,0.0000,0.0000,0.0223,0.0025,-0.0488,0.9986,
2025-03-08 21:10:37.900,-0.1100,0.4700,9.4900,0.0000,0.0625,-0.0625,0.0223,0.0025,-0.0488,0.9986,
2025-03-08 21:10:37.911,-0.1100,0.4500,9.4900,-0.0625,0.0000,0.1250,0.0223,0.0025,-0.0488,0.9986,
2025-03-08 21:10:37.912,-0.1200,0.4600,9.5300,-0.0625,0.0000,-0.1250,0.0223,0.0025,-0.0488,0.9986,
2025-03-08 21:10:37.931,-0.1100,0.4800,9.5400,-0.0625,0.0000,0.1875,0.0223,0.0025,-0.0488,0.9986,
2025-03-08 21:10:37.937,-0.1200,0.4500,9.5000,-0.1875,0.0000,0.0625,0.0223,0.0025,-0.0488,0.9986,
2025-03-08 21:10:37.944,-0.1000,0.4600,9.5300,-0.0625,0.1250,0.0000,0.0223,0.0025,-0.0488,0.9986,
2025-03-08 21:10:37.952,-0.1100,0.4700,9.5200,-0.0625,0.0000,-0.0625,0.0223,0.0025,-0.0488,0.9986,
2025-03-08 21:10:37.963,-0.1100,0.4500,9.5000,0.0625,0.0625,0.0000,0.0223,0.0025,-0.0488,0.9986,
2025-03-08 21:10:37.994,-0.0900,0.4600,9.5000,0.1250,0.0625,0.0625,0.0223,0.0025,-0.0488,0.9986,
2025-03-08 21:10:37.994,-0.1000,0.4600,9.5000,0.0000,-0.0625,-0.0625,0.0223,0.0025,-0.0488,0.9986,
2025-03-08 21:10:37.994,-0.1100,0.4900,9.5000,0.1250,-0.0625,0.0000,0.0223,0.0025,-0.0488,0.9986,
2025-03-08 21:10:38.044,-0.1100,0.4700,9.5200,-0.0625,-0.0625,0.0625,0.0223,0.0025,-0.0488,0.9986,
2025-03-08 21:10:38.044,-0.1000,0.4600,9.5000,0.0000,-0.0625,0.1250,0.0223,0.0025,-0.0488,0.9986,
2025-03-08 21:10:38.045,-0.1200,0.4600,9.5000,0.1875,-0.0625,0.0625,0.0223,0.0025,-0.0488,0.9986,
2025-03-08 21:10:38.045,-0.0800,0.4500,9.5000,0.1250,-0.1875,-0.0625,0.0223,0.0025,-0.0488,0.9986,
2025-03-08 21:10:38.054,-0.3000,0.5700,9.5200,0.8125,0.1875,0.0625,0.0223,0.0025,-0.0488,0.9986,
2025-03-08 21:10:38.056,-0.0500,0.4600,9.5500,-0.4375,-0.3125,0.0625,0.0224,0.0025,-0.0488,0.9986,
2025-03-08 21:10:38.068,-0.1000,0.4700,9.5400,-0.1250,-0.1875,-0.0625,0.0224,0.0025,-0.0488,0.9986,
2025-03-08 21:10:38.075,-0.1200,0.4500,9.4900,-0.0625,-0.1250,0.0000,0.0224,0.0025,-0.0488,0.9986,
2025-03-08 21:10:38.085,-0.1100,0.4600,9.5100,0.0625,0.1250,0.0000,0.0224,0.0025,-0.0488,0.9986,
2025-03-08 21:10:38.095,-0.1100,0.4700,9.4400,0.0000,0.0000,0.0625,0.0224,0.0025,-0.0488,0.9986,
2025-03-08 21:10:38.105,-0.1000,0.4800,9.5200,0.0625,-0.0625,0.0000,0.0224,0.0025,-0.0488,0.9986,
2025-03-08 21:10:38.115,-0.1200,0.4700,9.5400,0.0000,-0.1250,0.0000,0.0224,0.0025,-0.0488,0.9986,
2025-03-08 21:10:38.135,-0.1100,0.4600,9.5300,-0.0625,0.0000,0.0000,0.0224,0.0025,-0.0488,0.9986,
2025-03-08 21:10:38.135,-0.1100,0.4800,9.5000,0.1250,-0.1875,0.0625,0.0224,0.0025,-0.0488,0.9986,
2025-03-08 21:10:38.145,-0.1100,0.4600,9.5000,0.0625,-0.1250,0.1875,0.0224,0.0025,-0.0488,0.9986,
2025-03-08 21:10:38.155,-0.1100,0.4700,9.5200,0.0000,0.1250,0.0625,0.0224,0.0025,-0.0488,0.9986,
2025-03-08 21:10:38.165,-0.1100,0.4700,9.5200,0.0000,0.0000,0.0000,0.0224,0.0025,-0.0488,0.9986,
2025-03-08 21:10:38.176,-0.1200,0.4700,9.5300,0.0625,-0.1875,0.1250,0.0224,0.0025,-0.0488,0.9986,
2025-03-08 21:10:38.187,-0.1200,0.4700,9.5300,0.0000,-0.0625,0.1250,0.0224,0.0025,-0.0488,0.9986,
2025-03-08 21:10:38.197,-0.1100,0.4500,9.5100,0.1250,-0.1250,0.0000,0.0224,0.0025,-0.0488,0.9986,
2025-03-08 21:10:38.206,-0.1000,0.4600,9.5400,0.1875,-0.0625,0.1250,0.0224,0.0025,-0.0488,0.9986,
2025-03-08 21:10:38.220,-0.1000,0.4600,9.5000,0.1250,-0.0625,0.1250,0.0224,0.0025,-0.0488,0.9986,
2025-03-08 21:10:38.229,-0.1200,0.4400,9.4700,0.0000,0.0625,0.0625,0.0224,0.0025,-0.0488,0.9986,
2025-03-08 21:10:38.237,-0.1100,0.4700,9.4800,0.0625,0.0000,0.0625,0.0224,0.0025,-0.0488,0.9986,
2025-03-08 21:10:38.247,-0.1200,0.4600,9.5000,0.0625,-0.1250,-0.0625,0.0224,0.0025,-0.0488,0.9986,
2025-03-08 21:10:38.257,-0.1100,0.4500,9.5000,0.0000,-0.1250,0.0625,0.0224,0.0025,-0.0488,0.9986,
2025-03-08 21:10:38.268,-0.1200,0.4500,9.5100,0.0625,-0.1250,-0.1250,0.0224,0.0025,-0.0488,0.9986,
2025-03-08 21:10:38.279,-0.1100,0.4600,9.5000,-0.0625,0.1250,-0.0625,0.0224,0.0025,-0.0488,0.9986,
2025-03-08 21:10:38.288,-0.1300,0.4800,9.4900,0.0000,0.0625,-0.1250,0.0224,0.0025,-0.0488,0.9986,
2025-03-08 21:10:38.299,-0.1000,0.4600,9.4800,0.0625,-0.0625,0.0000,0.0224,0.0025,-0.0488,0.9986,
2025-03-08 21:10:38.341,-0.1100,0.4600,9.5000,0.0000,-0.1250,0.0000,0.0224,0.0025,-0.0488,0.9986,
2025-03-08 21:10:38.341,-0.1100,0.4500,9.5100,0.0000,-0.1250,0.0000,0.0224,0.0025,-0.0488,0.9986,
2025-03-08 21:10:38.341,-0.1300,0.4500,9.5000,0.0000,-0.1250,0.0000,0.0224,0.0025,-0.0488,0.9986,
2025-03-08 21:10:38.341,-0.1000,0.4700,9.4900,0.1250,-0.0625,0.0625,0.0224,0.0025,-0.0488,0.9986,
2025-03-08 21:10:38.350,-0.1000,0.4600,9.4700,0.0625,-0.0625,-0.1250,0.0224,0.0025,-0.0488,0.9986,
2025-03-08 21:10:38.361,-0.1100,0.4800,9.5000,0.0000,-0.1250,0.0000,0.0224,0.0025,-0.0488,0.9986,
2025-03-08 21:10:38.370,-0.1200,0.4900,9.5400,0.0000,-0.1250,0.0000,0.0224,0.0025,-0.0488,0.9986,
2025-03-08 21:10:38.381,-0.1100,0.4500,9.5000,0.0625,0.0000,0.0000,0.0224,0.0025,-0.0488,0.9986,
2025-03-08 21:10:38.391,-0.1100,0.4500,9.4900,0.0000,0.0000,0.1250,0.0224,0.0025,-0.0488,0.9986,
2025-03-08 21:10:38.402,-0.1200,0.4600,9.4700,0.0625,-0.2500,0.0000,0.0224,0.0025,-0.0488,0.9986,
2025-03-08 21:10:38.426,-0.1100,0.4500,9.5000,-0.0625,-0.1875,0.0625,0.0224,0.0025,-0.0488,0.9986,
2025-03-08 21:10:38.426,-0.1200,0.4700,9.5100,-0.0625,-0.1875,0.0625,0.0224,0.0025,-0.0488,0.9986,
2025-03-08 21:10:38.426,-0.1300,0.4700,9.5200,0.0625,-0.1250,0.1250,0.0224,0.0025,-0.0488,0.9986,
2025-03-08 21:10:38.444,-0.1100,0.4300,9.5100,0.2500,0.0000,0.0000,0.0224,0.0025,-0.0488,0.9986,
2025-03-08 21:10:38.444,-0.1100,0.4700,9.5000,0.1250,-0.0625,0.0000,0.0224,0.0025,-0.0488,0.9986,
2025-03-08 21:10:38.456,-0.1100,0.4700,9.4800,0.1250,-0.1250,-0.0625,0.0224,0.0025,-0.0488,0.9986,
2025-03-08 21:10:38.474,-0.1000,0.4500,9.5100,0.1250,-0.1250,-0.0625,0.0224,0.0025,-0.0488,0.9986,
2025-03-08 21:10:38.483,-0.1100,0.4500,9.5200,0.0625,-0.1875,0.0000,0.0224,0.0025,-0.0488,0.9986,
2025-03-08 21:10:38.483,-0.1100,0.4700,9.5000,-0.1250,0.0000,-0.0625,0.0224,0.0025,-0.0488,0.9986,
2025-03-08 21:10:38.493,-0.1200,0.4600,9.5000,0.0000,0.0000,0.0625,0.0224,0.0025,-0.0488,0.9986,
2025-03-08 21:10:38.503,-0.1100,0.4600,9.5000,0.0000,0.0625,0.0625,0.0224,0.0025,-0.0488,0.9986,
2025-03-08 21:10:38.517,-0.1100,0.4800,9.5100,0.0000,0.0625,0.0625,0.0224,0.0025,-0.0488,0.9986,
2025-03-08 21:10:38.528,-0.1200,0.4500,9.5000,0.0000,-0.1875,0.0625,0.0224,0.0025,-0.0488,0.9986,
2025-03-08 21:10:38.548,-0.1200,0.4400,9.5100,0.0625,0.0000,0.0625,0.0224,0.0025,-0.0488,0.9986,
2025-03-08 21:10:38.554,-0.1200,0.4500,9.4700,0.0625,0.0000,-0.0625,0.0224,0.0025,-0.0488,0.9986,
2025-03-08 21:10:38.554,-0.1100,0.4600,9.5000,0.0625,-0.1875,0.1875,0.0224,0.0025,-0.0488,0.9986,
2025-03-08 21:10:38.585,-0.1200,0.4500,9.5200,0.0000,-0.0625,0.0000,0.0224,0.0025,-0.0488,0.9986,
2025-03-08 21:10:38.587,-0.1100,0.4500,9.5000,0.0625,-0.0625,0.0625,0.0224,0.0025,-0.0488,0.9986,
2025-03-08 21:10:38.600,-0.1300,0.4500,9.5000,0.0000,0.0000,-0.1250,0.0224,0.0025,-0.0488,0.9986,
2025-03-08 21:10:38.636,-0.1000,0.4900,9.4900,0.0625,-0.0625,0.0000,0.0224,0.0025,-0.0488,0.9986,
2025-03-08 21:10:38.646,-0.1200,0.4500,9.5000,0.0625,-0.1250,0.0000,0.0224,0.0025,-0.0488,0.9986,
2025-03-08 21:10:38.646,-0.1100,0.4600,9.4900,0.0625,-0.1250,0.0000,0.0224,0.0025,-0.0488,0.9986,
2025-03-08 21:10:38.666,-0.1000,0.4400,9.5000,0.1250,-0.1250,0.1250,0.0224,0.0025,-0.0488,0.9986,
2025-03-08 21:10:38.677,-0.1000,0.4700,9.4900,-0.0625,0.1875,0.1250,0.0224,0.0025,-0.0488,0.9986,
2025-03-08 21:10:38.687,-0.1100,0.4900,9.5000,0.0000,0.0625,0.0625,0.0224,0.0025,-0.0488,0.9986,
2025-03-08 21:10:38.708,-0.1100,0.4600,9.4800,0.1250,-0.1250,0.0625,0.0224,0.0025,-0.0488,0.9986,
2025-03-08 21:10:38.718,-0.1200,0.4500,9.5000,0.0625,-0.1875,0.0625,0.0224,0.0025,-0.0488,0.9986,
2025-03-08 21:10:38.727,-0.1300,0.4700,9.5100,0.1250,-0.1250,0.0000,0.0224,0.0025,-0.0488,0.9986,
2025-03-08 21:10:38.738,-0.1100,0.4900,9.5300,0.0625,-0.0625,0.0000,0.0224,0.0025,-0.0488,0.9986,
2025-03-08 21:10:38.749,-0.1200,0.4900,9.4900,0.0000,0.0000,0.0625,0.0224,0.0025,-0.0488,0.9986,
2025-03-08 21:10:38.759,-0.1200,0.4900,9.4900,0.1250,-0.1250,0.0000,0.0224,0.0025,-0.0488,0.9986,
2025-03-08 21:10:38.768,-0.1200,0.4600,9.5000,0.1250,0.0000,0.1250,0.0224,0.0025,-0.0488,0.9986,
2025-03-08 21:10:38.789,-0.1200,0.4700,9.4900,0.0000,-0.1250,0.0000,0.0224,0.0025,-0.0488,0.9986,
2025-03-08 21:10:38.789,-0.1200,0.4700,9.5100,0.1250,-0.0625,0.1250,0.0224,0.0025,-0.0488,0.9986,
2025-03-08 21:10:38.799,-0.1200,0.4500,9.5000,0.1250,-0.1875,0.1250,0.0224,0.0025,-0.0488,0.9986,
2025-03-08 21:10:38.810,-0.1100,0.4600,9.5100,-0.0625,-0.0625,0.0000,0.0224,0.0025,-0.0488,0.9986,
2025-03-08 21:10:38.820,-0.1000,0.4500,9.5000,0.1250,-0.1875,0.1875,0.0224,0.0025,-0.0488,0.9986,
2025-03-08 21:10:38.836,-0.1100,0.4500,9.4900,0.0625,0.1250,0.0625,0.0224,0.0025,-0.0488,0.9986,
2025-03-08 21:10:38.841,-0.1100,0.4600,9.5000,-0.1875,0.0625,-0.1250,0.0224,0.0025,-0.0488,0.9986,
2025-03-08 21:10:38.851,-0.1000,0.4600,9.5000,-0.0625,0.0625,0.0000,0.0224,0.0025,-0.0488,0.9986,
2025-03-08 21:10:38.861,-0.1100,0.4900,9.4900,0.0000,-0.0625,-0.1250,0.0224,0.0025,-0.0488,0.9986,
2025-03-08 21:10:38.861,-0.1200,0.4700,9.5200,0.0000,0.1875,0.0000,0.0224,0.0025,-0.0488,0.9986,
2025-03-08 21:10:38.881,-0.1100,0.4600,9.5000,0.0000,0.0625,0.1250,0.0224,0.0025,-0.0488,0.9986,
2025-03-08 21:10:38.881,-0.1100,0.4800,9.5100,0.1250,0.0000,-0.0625,0.0224,0.0025,-0.0488,0.9986,
2025-03-08 21:10:38.891,-0.1000,0.4600,9.4900,-0.0625,0.0000,0.0000,0.0224,0.0025,-0.0488,0.9986,
2025-03-08 21:10:38.936,-0.1200,0.4800,9.4800,-0.1250,0.0625,-0.1250,0.0224,0.0025,-0.0488,0.9986,
2025-03-08 21:10:38.942,-0.1200,0.4600,9.5100,-0.0625,0.0625,-0.0625,0.0224,0.0025,-0.0488,0.9986,
2025-03-08 21:10:38.942,-0.1100,0.4600,9.5200,0.0000,-0.1250,0.0000,0.0224,0.0025,-0.0488,0.9986,
2025-03-08 21:10:38.942,-0.1000,0.4500,9.4800,-0.0625,-0.0625,0.0000,0.0224,0.0025,-0.0488,0.9986,
2025-03-08 21:10:38.952,-0.1200,0.4600,9.4800,0.0000,0.0000,-0.0625,0.0224,0.0025,-0.0488,0.9986,
2025-03-08 21:10:38.952,-0.1200,0.4800,9.5100,-0.0625,0.0000,-0.0625,0.0224,0.0025,-0.0488,0.9986,
2025-03-08 21:10:38.962,-0.1100,0.4500,9.5000,0.0625,0.0000,-0.1250,0.0224,0.0025,-0.0488,0.9986,
2025-03-08 21:10:38.982,-0.1100,0.4700,9.5000,-0.1250,0.0000,-0.0625,0.0224,0.0025,-0.0488,0.9986,
2025-03-08 21:10:38.982,-0.1000,0.4500,9.5300,-0.0625,0.0000,-0.1250,0.0224,0.0025,-0.0488,0.9986,
2025-03-08 21:10:38.992,-0.1000,0.4600,9.4900,-0.0625,0.1875,-0.0625,0.0224,0.0025,-0.0488,0.9986,
2025-03-08 21:10:39.014,-0.1100,0.4600,9.5000,0.0000,0.0000,-0.0625,0.0224,0.0025,-0.0488,0.9986,
2025-03-08 21:10:39.014,-0.1300,0.4600,9.5000,0.0000,0.0000,0.0625,0.0224,0.0025,-0.0488,0.9986,
2025-03-08 21:10:39.024,-0.1100,0.4600,9.4900,-0.1250,0.1875,-0.1250,0.0224,0.0025,-0.0488,0.9986,
2025-03-08 21:10:39.036,-0.1000,0.4700,9.5100,0.0625,0.0000,0.0625,0.0224,0.0025,-0.0488,0.9986,
2025-03-08 21:10:39.043,-0.1000,0.4600,9.4700,-0.0625,-0.0625,0.0000,0.0224,0.0025,-0.0488,0.9986,
2025-03-08 21:10:39.054,-0.1100,0.4700,9.4900,0.0000,-0.0625,-0.1250,0.0224,0.0025,-0.0488,0.9986,
2025-03-08 21:10:39.065,-0.1000,0.4700,9.5000,-0.1250,0.0625,-0.0625,0.0224,0.0025,-0.0488,0.9986,
2025-03-08 21:10:39.078,-0.1000,0.4700,9.5400,0.0000,-0.0625,-0.1250,0.0224,0.0025,-0.0488,0.9986,
2025-03-08 21:10:39.090,-0.1000,0.4500,9.5100,0.0000,-0.1250,0.0000,0.0224,0.0025,-0.0488,0.9986,
2025-03-08 21:10:39.099,-0.1100,0.4600,9.5000,0.0625,0.0000,-0.0625,0.0224,0.0025,-0.0488,0.9986,
2025-03-08 21:10:39.106,-0.1200,0.4600,9.5100,0.0625,0.0625,-0.1250,0.0224,0.0025,-0.0488,0.9986,
2025-03-08 21:10:39.115,-0.0900,0.4600,9.5100,0.0625,0.0625,-0.1250,0.0224,0.0025,-0.0488,0.9986,
2025-03-08 21:10:39.125,-0.0900,0.4700,9.5300,-0.0625,0.1250,-0.1250,0.0224,0.0025,-0.0488,0.9986,
2025-03-08 21:10:39.137,-0.1300,0.4400,9.5000,0.0625,-0.1250,0.0000,0.0224,0.0025,-0.0488,0.9986,
2025-03-08 21:10:39.146,-0.1000,0.4600,9.4900,0.1250,-0.0625,0.0000,0.0224,0.0025,-0.0488,0.9986,
2025-03-08 21:10:39.156,-0.1200,0.4600,9.5100,0.0625,0.0000,0.0000,0.0224,0.0025,-0.0488,0.9986,
2025-03-08 21:10:39.166,-0.1100,0.4600,9.4900,0.0000,-0.0625,-0.0625,0.0224,0.0025,-0.0488,0.9986,
2025-03-08 21:10:39.178,-0.1100,0.4800,9.5100,0.0000,-0.0625,-0.0625,0.0224,0.0025,-0.0488,0.9986,
2025-03-08 21:10:39.186,-0.1100,0.4600,9.5100,-0.0625,-0.0625,0.0000,0.0224,0.0025,-0.0488,0.9986,
2025-03-08 21:10:39.196,-0.1200,0.4500,9.5000,0.0000,0.1250,0.0000,0.0224,0.0025,-0.0488,0.9986,
2025-03-08 21:10:39.216,-0.0800,0.4500,9.5000,0.0000,0.0625,0.0000,0.0224,0.0025,-0.0488,0.9986,
2025-03-08 21:10:39.248,-0.1200,0.4800,9.5100,-0.0625,0.0000,0.0625,0.0224,0.0025,-0.0488,0.9986,
2025-03-08 21:10:39.248,-0.1100,0.4600,9.5200,0.0625,0.0000,0.0000,0.0224,0.0025,-0.0488,0.9986,
2025-03-08 21:10:39.248,-0.1100,0.4500,9.5000,-0.1250,-0.0625,-0.0625,0.0224,0.0025,-0.0488,0.9986,
2025-03-08 21:10:39.248,-0.1200,0.4700,9.4800,0.0625,-0.1250,0.0000,0.0224,0.0025,-0.0488,0.9986,
2025-03-08 21:10:39.257,-0.1200,0.4700,9.5000,0.0000,-0.1250,0.0000,0.0224,0.0025,-0.0488,0.9986,
2025-03-08 21:10:39.267,-0.1000,0.4600,9.5000,-0.0625,-0.1250,-0.3750,0.0224,0.0025,-0.0488,0.9986,
2025-03-08 21:10:39.278,-0.1200,0.4800,9.5000,0.0625,-0.0625,-0.0625,0.0224,0.0025,-0.0488,0.9986,
2025-03-08 21:10:39.288,-0.1100,0.4700,9.5000,-0.0625,0.1250,-0.0625,0.0224,0.0025,-0.0488,0.9986,
2025-03-08 21:10:39.298,-0.1100,0.4600,9.5000,-0.0625,-0.1250,0.0000,0.0224,0.0025,-0.0488,0.9986,
2025-03-08 21:10:39.308,-0.1100,0.4700,9.5100,0.0000,0.0625,0.1250,0.0224,0.0025,-0.0488,0.9986,
2025-03-08 21:10:39.318,-0.1100,0.4700,9.5100,-0.0625,0.1250,0.0625,0.0224,0.0025,-0.0488,0.9986,
2025-03-08 21:10:39.328,-0.1100,0.4500,9.5100,0.0000,-0.0625,-0.1875,0.0224,0.0025,-0.0488,0.9986,
2025-03-08 21:10:39.339,-0.1100,0.4700,9.5100,0.0625,0.1250,0.0000,0.0224,0.0025,-0.0488,0.9986,
2025-03-08 21:10:39.349,-0.1100,0.4900,9.5000,-0.0625,0.0625,0.1250,0.0224,0.0025,-0.0488,0.9986,
2025-03-08 21:10:39.359,-0.1200,0.4400,9.4900,-0.0625,-0.1875,0.0625,0.0224,0.0025,-0.0488,0.9986,
2025-03-08 21:10:39.369,-0.1200,0.4600,9.5300,0.0000,0.0000,0.0000,0.0224,0.0025,-0.0488,0.9986,
2025-03-08 21:10:39.379,-0.1100,0.4500,9.5100,0.0000,-0.0625,0.1875,0.0224,0.0025,-0.0488,0.9986,
2025-03-08 21:10:39.381,-0.1000,0.4500,9.5000,0.0625,-0.0625,0.0625,0.0224,0.0025,-0.0488,0.9986,
2025-03-08 21:10:39.390,-0.1100,0.4800,9.5100,0.0625,-0.1250,0.0625,0.0224,0.0025,-0.0488,0.9986,
2025-03-08 21:10:39.410,-0.0900,0.4500,9.4900,0.0000,0.0000,0.0625,0.0224,0.0025,-0.0488,0.9986,
2025-03-08 21:10:39.420,-0.1000,0.4900,9.5100,0.0625,0.0000,0.2500,0.0224,0.0025,-0.0488,0.9986,
2025-03-08 21:10:39.420,-0.1100,0.4700,9.5200,0.0000,-0.0625,0.0625,0.0224,0.0025,-0.0488,0.9986,
2025-03-08 21:10:39.440,-0.1100,0.4600,9.4900,0.0625,-0.0625,0.0625,0.0224,0.0025,-0.0488,0.9986,
2025-03-08 21:10:39.450,-0.1200,0.4500,9.4900,0.0000,0.0000,0.0625,0.0224,0.0025,-0.0488,0.9986,
2025-03-08 21:10:39.450,-0.1100,0.4700,9.5100,0.0000,-0.1250,0.0000,0.0224,0.0025,-0.0488,0.9986,
2025-03-08 21:10:39.470,-0.1200,0.4600,9.5200,0.1250,0.1250,0.0625,0.0224,0.0025,-0.0488,0.9986,
2025-03-08 21:10:39.472,-0.1100,0.4600,9.5000,0.0000,-0.0625,0.0625,0.0224,0.0025,-0.0488,0.9986,
2025-03-08 21:10:39.482,-0.1100,0.4700,9.5000,-0.0625,0.1875,0.0000,0.0224,0.0025,-0.0488,0.9986,
2025-03-08 21:10:39.502,-0.1100,0.4800,9.4600,-0.0625,0.0000,0.0000,0.0224,0.0025,-0.0488,0.9986,
2025-03-08 21:10:39.559,-0.1000,0.4500,9.5100,0.0625,-0.0625,0.1250,0.0224,0.0025,-0.0488,0.9986,
2025-03-08 21:10:39.559,-0.1000,0.4500,9.5300,0.0000,0.0625,0.0000,0.0224,0.0025,-0.0488,0.9986,
2025-03-08 21:10:39.559,-0.1200,0.4500,9.5100,-0.1250,0.0625,0.0625,0.0224,0.0025,-0.0488,0.9986,
2025-03-08 21:10:39.559,-0.1300,0.4500,9.5100,0.0000,-0.1250,0.0000,0.0224,0.0025,-0.0488,0.9986,
2025-03-08 21:10:39.559,-0.1200,0.4600,9.4800,0.0000,0.0625,0.1875,0.0224,0.0025,-0.0488,0.9986,
2025-03-08 21:10:39.559,-0.1100,0.4900,9.5200,-0.0625,0.1250,0.0000,0.0224,0.0025,-0.0488,0.9986,
2025-03-08 21:10:39.565,-0.1300,0.4500,9.5000,-0.0625,0.0625,-0.1250,0.0224,0.0025,-0.0488,0.9986,
2025-03-08 21:10:39.577,-0.1000,0.4600,9.4800,0.0000,0.0625,0.0625,0.0224,0.0025,-0.0488,0.9986,
2025-03-08 21:10:39.584,-0.1000,0.4600,9.5000,-0.1250,-0.0625,0.0000,0.0224,0.0025,-0.0488,0.9986,
2025-03-08 21:10:39.604,-0.1100,0.4600,9.4700,-0.0625,-0.1250,0.1250,0.0224,0.0025,-0.0488,0.9986,
2025-03-08 21:10:39.607,-0.1200,0.4600,9.5000,0.0625,0.0000,0.0625,0.0224,0.0025,-0.0488,0.9986,
2025-03-08 21:10:39.615,-0.1000,0.4600,9.5000,-0.1875,-0.1250,0.1250,0.0224,0.0025,-0.0488,0.9986,
2025-03-08 21:10:39.630,-0.1100,0.4700,9.5200,-0.0625,-0.0625,-0.0625,0.0224,0.0025,-0.0488,0.9986,
2025-03-08 21:10:39.638,-0.1100,0.4800,9.5100,0.0000,0.1250,-0.0625,0.0224,0.0025,-0.0488,0.9986,
2025-03-08 21:10:39.646,-0.1100,0.4600,9.5100,0.0000,0.0625,0.0000,0.0224,0.0025,-0.0488,0.9986,
2025-03-08 21:10:39.656,-0.1100,0.4600,9.5100,0.0000,0.1250,0.0625,0.0224,0.0025,-0.0488,0.9986,
2025-03-08 21:10:39.666,-0.1200,0.4700,9.4900,0.0000,0.1875,-0.1250,0.0224,0.0025,-0.0488,0.9986,
2025-03-08 21:10:39.676,-0.1100,0.4500,9.5100,0.0625,-0.1250,0.0625,0.0224,0.0025,-0.0488,0.9986,
2025-03-08 21:10:39.687,-0.1100,0.4700,9.5200,-0.1250,-0.0625,0.0625,0.0224,0.0025,-0.0488,0.9986,
2025-03-08 21:10:39.698,-0.1100,0.4500,9.4900,-0.0625,-0.0625,0.0000,0.0224,0.0025,-0.0488,0.9986,
2025-03-08 21:10:39.710,-0.1000,0.4600,9.5000,-0.0625,-0.0625,0.0625,0.0224,0.0025,-0.0488,0.9986,
2025-03-08 21:10:39.717,-0.1300,0.4500,9.4800,0.0000,-0.1250,0.1250,0.0224,0.0025,-0.0488,0.9986,
2025-03-08 21:10:39.728,-0.1100,0.4700,9.5000,-0.0625,0.0625,-0.0625,0.0224,0.0025,-0.0488,0.9986,
2025-03-08 21:10:39.739,-0.1200,0.4700,9.4900,0.0000,0.0000,0.0000,0.0224,0.0025,-0.0488,0.9986,
2025-03-08 21:10:39.758,-0.1200,0.4700,9.4700,0.1250,-0.1250,0.0625,0.0224,0.0025,-0.0488,0.9986,
2025-03-08 21:10:39.758,-0.1000,0.4800,9.5200,0.0625,-0.0625,0.0000,0.0224,0.0025,-0.0488,0.9986,
2025-03-08 21:10:39.768,-0.1100,0.4700,9.5000,-0.0625,0.0625,0.1250,0.0224,0.0025,-0.0488,0.9986,
2025-03-08 21:10:39.778,-0.0900,0.4600,9.5100,0.0000,0.0000,-0.0625,0.0224,0.0025,-0.0488,0.9986,
2025-03-08 21:10:39.788,-0.1000,0.4900,9.5400,-0.1250,0.1875,0.0000,0.0224,0.0025,-0.0488,0.9986,
2025-03-08 21:10:39.798,-0.1100,0.4700,9.4800,0.0625,0.0000,0.0000,0.0224,0.0025,-0.0488,0.9986,
2025-03-08 21:10:39.842,-0.1100,0.4600,9.5000,-0.0625,-0.0625,0.0625,0.0224,0.0025,-0.0488,0.9986,
2025-03-08 21:10:39.842,-0.1100,0.4700,9.4700,0.0000,-0.0625,0.1250,0.0224,0.0025,-0.0488,0.9986,
2025-03-08 21:10:39.851,-0.1100,0.4700,9.4700,0.0000,-0.0625,0.0000,0.0224,0.0025,-0.0488,0.9986,
2025-03-08 21:10:39.851,-0.1100,0.4700,9.5100,-0.0625,0.0000,-0.0625,0.0224,0.0025,-0.0488,0.9986,
2025-03-08 21:10:39.851,-0.0900,0.4500,9.5000,0.0625,0.0000,-0.0625,0.0224,0.0025,-0.0488,0.9986,
2025-03-08 21:10:39.860,-0.1100,0.4400,9.4900,-0.0625,-0.0625,-0.1250,0.0224,0.0025,-0.0488,0.9986,
2025-03-08 21:10:39.871,-0.1100,0.4500,9.5000,0.1250,-0.1250,0.0000,0.0224,0.0025,-0.0488,0.9986,
2025-03-08 21:10:39.880,-0.1100,0.4500,9.4700,0.1250,-0.1250,0.1250,0.0224,0.0025,-0.0488,0.9986,
2025-03-08 21:10:39.890,-0.1000,0.4600,9.5000,0.1250,0.0625,0.0625,0.0224,0.0025,-0.0488,0.9986,
2025-03-08 21:10:39.901,-0.1100,0.4400,9.5100,0.0625,0.0625,0.0625,0.0224,0.0025,-0.0488,0.9986,
2025-03-08 21:10:39.911,-0.1100,0.4600,9.4900,0.0000,-0.1250,0.0625,0.0224,0.0025,-0.0488,0.9986,
2025-03-08 21:10:39.921,-0.1100,0.4900,9.5000,0.0625,-0.1250,0.0625,0.0224,0.0025,-0.0488,0.9986,
2025-03-08 21:10:39.925,-0.1000,0.4800,9.5200,0.0000,0.0000,-0.0625,0.0224,0.0025,-0.0488,0.9986,
2025-03-08 21:10:39.941,-0.1100,0.4500,9.5200,0.0625,0.0000,0.0625,0.0224,0.0025,-0.0488,0.9986,
2025-03-08 21:10:39.941,-0.1000,0.4500,9.4900,0.0625,0.0000,0.0625,0.0224,0.0025,-0.0488,0.9986,
2025-03-08 21:10:39.961,-0.1100,0.4700,9.4600,0.1250,-0.0625,0.0625,0.0224,0.0025,-0.0488,0.9986,
2025-03-08 21:10:39.961,-0.1000,0.4600,9.5100,0.0625,0.0000,0.0625,0.0224,0.0025,-0.0488,0.9986,
2025-03-08 21:10:39.972,-0.1200,0.4600,9.5300,0.0625,0.0000,0.0625,0.0224,0.0025,-0.0488,0.9986,
2025-03-08 21:10:39.982,-0.0900,0.4600,9.5300,-0.2500,-0.0625,0.0625,0.0224,0.0025,-0.0488,0.9986,
2025-03-08 21:10:39.992,-0.1100,0.4900,9.5200,-0.0625,0.0625,0.0000,0.0224,0.0025,-0.0488,0.9986,
2025-03-08 21:10:40.002,-0.1000,0.4400,9.5300,-0.0625,0.1250,0.0000,0.0224,0.0025,-0.0488,0.9986,
2025-03-08 21:10:40.022,-0.1200,0.4500,9.4900,0.0000,0.0625,0.0625,0.0224,0.0025,-0.0488,0.9986,
2025-03-08 21:10:40.022,-0.1200,0.4500,9.5000,0.0000,0.0625,0.0625,0.0224,0.0025,-0.0488,0.9986,
2025-03-08 21:10:40.039,-0.1200,0.4600,9.5200,0.0000,0.0625,0.0625,0.0224,0.0025,-0.0488,0.9986,
2025-03-08 21:10:40.052,-0.1100,0.4500,9.5000,0.1250,0.0625,0.0625,0.0224,0.0025,-0.0488,0.9986,
2025-03-08 21:10:40.062,-0.1100,0.4600,9.5400,0.1250,-0.0625,0.0625,0.0224,0.0025,-0.0488,0.9986,
2025-03-08 21:10:40.072,-0.1100,0.4600,9.4700,0.0000,-0.1250,-0.1250,0.0224,0.0025,-0.0488,0.9986,
2025-03-08 21:10:40.072,-0.1100,0.4400,9.4400,0.0000,-0.1250,-0.1250,0.0224,0.0025,-0.0488,0.9986,
2025-03-08 21:10:40.092,-0.1100,0.4700,9.4500,0.1875,-0.1875,0.1875,0.0224,0.0025,-0.0488,0.9986,
2025-03-08 21:10:40.092,-0.1100,0.4700,9.5000,0.0625,-0.0625,-0.0625,0.0224,0.0025,-0.0488,0.9986,
2025-03-08 21:10:40.146,-0.1100,0.4800,9.5400,0.0625,0.0625,-0.0625,0.0224,0.0025,-0.0488,0.9986,
2025-03-08 21:10:40.146,-0.1200,0.4700,9.5000,-0.0625,0.0000,0.0625,0.0224,0.0025,-0.0488,0.9986,
2025-03-08 21:10:40.146,-0.1100,0.4700,9.4900,-0.0625,0.0000,0.0625,0.0224,0.0025,-0.0488,0.9986,
2025-03-08 21:10:40.146,-0.1200,0.4500,9.5000,0.0000,-0.0625,0.0000,0.0224,0.0025,-0.0488,0.9986,
2025-03-08 21:10:40.146,-0.1100,0.4700,9.4500,-0.1250,0.0000,0.0625,0.0224,0.0025,-0.0488,0.9986,
2025-03-08 21:10:40.164,-0.1000,0.4700,9.5000,-0.1250,0.0000,0.0625,0.0224,0.0025,-0.0488,0.9986,
2025-03-08 21:10:40.174,-0.1300,0.4700,9.5400,0.0625,0.1250,0.1250,0.0224,0.0025,-0.0488,0.9986,
2025-03-08 21:10:40.174,-0.1400,0.4700,9.5200,0.0000,-0.2500,0.0625,0.0224,0.0025,-0.0488,0.9986,
2025-03-08 21:10:40.184,-0.1000,0.4800,9.5200,0.0000,-0.1250,0.1875,0.0224,0.0025,-0.0488,0.9986,
2025-03-08 21:10:40.204,-0.1000,0.4600,9.5000,-0.1875,0.0000,0.1250,0.0224,0.0025,-0.0488,0.9986,
2025-03-08 21:10:40.204,-0.1100,0.4900,9.4800,0.0625,0.0625,0.0625,0.0224,0.0025,-0.0488,0.9986,
2025-03-08 21:10:40.214,-0.1000,0.4600,9.4900,0.1250,0.0625,0.0000,0.0224,0.0025,-0.0488,0.9986,
2025-03-08 21:10:40.239,-0.1000,0.4600,9.6700,0.1250,-0.0625,-0.1250,0.0224,0.0025,-0.0488,0.9986,
2025-03-08 21:10:40.246,-0.1100,0.4600,9.3400,0.0000,0.1250,0.0625,0.0224,0.0025,-0.0488,0.9986,
2025-03-08 21:10:40.265,-0.1100,0.4500,9.5500,0.0625,-0.1875,-0.0625,0.0224,0.0025,-0.0488,0.9986,
2025-03-08 21:10:40.265,-0.1300,0.4500,9.3700,0.0625,0.0000,0.0000,0.0224,0.0025,-0.0488,0.9986,
2025-03-08 21:10:40.296,-0.1200,0.4700,9.4500,0.1250,0.0000,0.0625,0.0224,0.0025,-0.0488,0.9986,
2025-03-08 21:10:40.306,-0.1000,0.4800,9.4700,-0.0625,0.0000,-0.0625,0.0224,0.0025,-0.0488,0.9986,
2025-03-08 21:10:40.329,-0.1100,0.4500,9.4200,-0.0625,0.0625,0.0625,0.0224,0.0025,-0.0488,0.9986,
2025-03-08 21:10:40.339,-0.1100,0.4800,9.4600,0.1250,0.0625,-0.0625,0.0224,0.0025,-0.0488,0.9986,
2025-03-08 21:10:40.348,-0.1000,0.4600,9.5200,0.0000,0.0625,-0.0625,0.0224,0.0025,-0.0488,0.9986,
2025-03-08 21:10:40.368,-0.1100,0.4600,9.5300,-0.0625,0.0625,-0.0625,0.0224,0.0025,-0.0488,0.9986,
2025-03-08 21:10:40.368,-0.1100,0.4700,9.5100,-0.1250,0.0625,-0.1250,0.0224,0.0025,-0.0488,0.9986,
2025-03-08 21:10:40.378,-0.1000,0.4500,9.4800,0.0625,-0.0625,-0.0625,0.0224,0.0025,-0.0488,0.9986,
2025-03-08 21:10:40.389,-0.1200,0.4600,9.5200,0.1250,-0.1250,0.0000,0.0224,0.0025,-0.0488,0.9986,
2025-03-08 21:10:40.398,-0.1100,0.4700,9.5100,0.0625,0.0000,0.0000,0.0224,0.0025,-0.0488,0.9986,
2025-03-08 21:10:40.440,-0.1200,0.4700,9.4900,0.0000,0.1875,-0.1250,0.0224,0.0025,-0.0488,0.9986,
2025-03-08 21:10:40.440,-0.0800,0.4700,9.5100,0.0000,0.0625,0.0625,0.0224,0.0025,-0.0488,0.9986,
2025-03-08 21:10:40.440,-0.1000,0.4500,9.5300,0.0625,-0.2500,0.0000,0.0224,0.0025,-0.0488,0.9986,
2025-03-08 21:10:40.440,-0.1100,0.4400,9.5000,-0.0625,0.0000,-0.0625,0.0224,0.0025,-0.0488,0.9986,
2025-03-08 21:10:40.448,-0.1100,0.4600,9.4900,0.0000,0.1250,-0.0625,0.0224,0.0025,-0.0488,0.9986,
2025-03-08 21:10:40.458,-0.1000,0.4400,9.5000,-0.0625,0.1250,0.0625,0.0224,0.0025,-0.0488,0.9986,
2025-03-08 21:10:40.469,-0.1200,0.4600,9.5000,0.0000,-0.1250,-0.0625,0.0224,0.0025,-0.0488,0.9986,
2025-03-08 21:10:40.479,-0.0900,0.4600,9.5100,0.0000,0.0000,-0.0625,0.0224,0.0025,-0.0488,0.9986,
2025-03-08 21:10:40.491,-0.1100,0.4800,9.5000,-0.0625,0.0625,0.0000,0.0224,0.0025,-0.0488,0.9986,
2025-03-08 21:10:40.501,-0.1200,0.4600,9.5100,0.0625,0.0000,-0.1250,0.0224,0.0025,-0.0488,0.9986,
2025-03-08 21:10:40.510,-0.1100,0.4600,9.5100,0.0000,-0.1250,0.0000,0.0224,0.0025,-0.0488,0.9986,
2025-03-08 21:10:40.521,-0.1100,0.4600,9.5300,0.0000,0.1250,0.0000,0.0224,0.0025,-0.0488,0.9986,
2025-03-08 21:10:40.521,-0.1100,0.4600,9.5200,0.0000,0.0000,-0.0625,0.0224,0.0025,-0.0488,0.9986,
2025-03-08 21:10:40.540,-0.1200,0.4600,9.5400,0.0625,0.0625,0.0000,0.0224,0.0025,-0.0488,0.9986,
2025-03-08 21:10:40.541,-0.1100,0.4700,9.4900,0.0000,0.0625,0.0625,0.0224,0.0025,-0.0488,0.9986,
2025-03-08 21:10:40.551,-0.1200,0.4600,9.4800,0.1250,-0.1250,0.0000,0.0224,0.0025,-0.0488,0.9986,
2025-03-08 21:10:40.573,-0.1200,0.4500,9.5000,0.0000,0.1250,-0.1250,0.0224,0.0025,-0.0488,0.9986,
2025-03-08 21:10:40.573,-0.1000,0.4700,9.5200,0.0000,0.0000,-0.0625,0.0224,0.0025,-0.0488,0.9986,
2025-03-08 21:10:40.593,-0.1100,0.4800,9.5000,-0.0625,0.0000,-0.0625,0.0224,0.0025,-0.0488,0.9986,
2025-03-08 21:10:40.603,-0.1100,0.4700,9.5200,-0.0625,0.0000,0.0625,0.0224,0.0025,-0.0488,0.9986,
2025-03-08 21:10:40.605,-0.1100,0.4700,9.4800,0.0000,0.0625,-0.1250,0.0224,0.0025,-0.0488,0.9986,
2025-03-08 21:10:40.615,-0.1000,0.4600,9.4800,0.1875,0.0625,-0.1250,0.0224,0.0025,-0.0488,0.9986,
2025-03-08 21:10:40.625,-0.1000,0.4500,9.5000,0.0625,0.0000,-0.0625,0.0224,0.0025,-0.0488,0.9986,
2025-03-08 21:10:40.634,-0.1100,0.4600,9.5300,0.0000,-0.1875,-0.0625,0.0224,0.0025,-0.0488,0.9986,
2025-03-08 21:10:40.649,-0.1200,0.4500,9.5300,-0.0625,0.0625,-0.0625,0.0224,0.0025,-0.0488,0.9986,
2025-03-08 21:10:40.657,-0.1000,0.4600,9.4900,-0.1250,0.1250,0.0000,0.0224,0.0025,-0.0488,0.9986,
2025-03-08 21:10:40.665,-0.1100,0.4500,9.5000,0.0625,-0.0625,0.0000,0.0224,0.0025,-0.0488,0.9986,
2025-03-08 21:10:40.675,-0.1100,0.4500,9.5000,-0.1250,-0.0625,0.1875,0.0224,0.0025,-0.0488,0.9986,
2025-03-08 21:10:40.685,-0.1100,0.4500,9.5200,0.0000,0.0000,-0.0625,0.0224,0.0025,-0.0488,0.9986,
2025-03-08 21:10:40.695,-0.1100,0.4700,9.5200,0.0625,0.0000,0.0625,0.0224,0.0025,-0.0488,0.9986,
2025-03-08 21:10:40.741,-0.1100,0.4600,9.5100,-0.0625,0.0625,-0.1875,0.0224,0.0025,-0.0488,0.9986,
2025-03-08 21:10:40.747,-0.1000,0.4800,9.5000,-0.0625,0.1250,-0.1875,0.0224,0.0025,-0.0488,0.9986,
2025-03-08 21:10:40.747,-0.1100,0.4700,9.5200,0.0625,0.1250,-0.1875,0.0224,0.0025,-0.0488,0.9986,
2025-03-08 21:10:40.747,-0.1100,0.4700,9.4900,0.1250,-0.0625,0.1250,0.0224,0.0025,-0.0488,0.9986,
2025-03-08 21:10:40.747,-0.1200,0.4500,9.4900,0.0625,0.0000,-0.0625,0.0224,0.0025,-0.0488,0.9986,
2025-03-08 21:10:40.756,-0.0900,0.4700,9.5200,0.0625,0.0000,-0.0625,0.0224,0.0025,-0.0488,0.9986,
2025-03-08 21:10:40.766,-0.1100,0.4600,9.5000,0.0000,-0.0625,0.0000,0.0224,0.0025,-0.0488,0.9986,
2025-03-08 21:10:40.776,-0.1100,0.4800,9.5000,0.0000,0.0000,-0.0625,0.0224,0.0025,-0.0488,0.9986,
2025-03-08 21:10:40.787,-0.1100,0.4600,9.4900,0.0000,-0.1250,-0.0625,0.0224,0.0025,-0.0488,0.9986,
2025-03-08 21:10:40.796,-0.1100,0.4500,9.4900,0.0000,0.2500,-0.1250,0.0224,0.0025,-0.0488,0.9986,
2025-03-08 21:10:40.807,-0.1000,0.4200,9.4800,-0.0625,-0.0625,-0.0625,0.0224,0.0025,-0.0488,0.9986,
2025-03-08 21:10:40.817,-0.1100,0.4800,9.5100,-0.0625,-0.0625,0.0625,0.0224,0.0025,-0.0488,0.9986,
2025-03-08 21:10:40.827,-0.1100,0.4700,9.4900,0.0000,-0.0625,0.0000,0.0224,0.0025,-0.0488,0.9986,
2025-03-08 21:10:40.838,-0.1000,0.4600,9.5000,-0.0625,-0.0625,-0.1250,0.0224,0.0025,-0.0488,0.9986,
2025-03-08 21:10:40.848,-0.1000,0.4600,9.5300,0.0000,-0.1250,0.1250,0.0224,0.0025,-0.0488,0.9986,
2025-03-08 21:10:40.858,-0.1000,0.4600,9.5000,0.0000,0.1250,0.0625,0.0224,0.0025,-0.0488,0.9986,
2025-03-08 21:10:40.868,-0.1300,0.4500,9.4900,0.0000,-0.1250,0.0000,0.0224,0.0025,-0.0488,0.9986,
2025-03-08 21:10:40.880,-0.1100,0.4700,9.5300,-0.0625,0.0625,0.0000,0.0224,0.0025,-0.0488,0.9986,
2025-03-08 21:10:40.889,-0.1100,0.4700,9.5000,0.0000,-0.0625,0.1250,0.0224,0.0025,-0.0488,0.9986,
2025-03-08 21:10:40.899,-0.1100,0.4500,9.5100,-0.1250,0.0625,-0.0625,0.0224,0.0025,-0.0488,0.9986,
2025-03-08 21:10:40.909,-0.1100,0.4700,9.5000,-0.0625,-0.0625,0.1250,0.0224,0.0025,-0.0488,0.9986,
2025-03-08 21:10:40.918,-0.1100,0.4700,9.5200,0.0625,-0.1875,-0.0625,0.0224,0.0025,-0.0488,0.9986,
2025-03-08 21:10:40.928,-0.1000,0.4600,9.5000,0.0000,0.0625,0.1250,0.0224,0.0025,-0.0488,0.9986,
2025-03-08 21:10:40.938,-0.1200,0.4800,9.5200,-0.0625,0.0625,-0.0625,0.0224,0.0025,-0.0488,0.9986,
2025-03-08 21:10:40.949,-0.1100,0.4700,9.4800,-0.0625,-0.0625,0.0625,0.0224,0.0025,-0.0488,0.9986,
2025-03-08 21:10:40.958,-0.1100,0.4800,9.4900,0.0000,-0.0625,0.0000,0.0224,0.0025,-0.0488,0.9986,
2025-03-08 21:10:40.969,-0.1100,0.4700,9.5000,0.0000,-0.0625,0.0625,0.0224,0.0025,-0.0488,0.9986,
2025-03-08 21:10:40.994,-0.1100,0.4600,9.5300,0.0000,0.0000,0.0000,0.0224,0.0025,-0.0488,0.9986,
2025-03-08 21:10:40.994,-0.1200,0.4500,9.4800,0.1250,-0.1250,0.0625,0.0224,0.0025,-0.0488,0.9986,
2025-03-08 21:10:41.001,-0.1100,0.4700,9.5000,-0.0625,-0.1250,0.0625,0.0224,0.0025,-0.0488,0.9986,
2025-03-08 21:10:41.035,-0.1200,0.4500,9.4800,0.0000,-0.0625,0.0625,0.0224,0.0025,-0.0488,0.9986,
2025-03-08 21:10:41.059,-0.1200,0.4600,9.5100,0.0625,0.1875,0.0625,0.0224,0.0025,-0.0488,0.9986,
2025-03-08 21:10:41.059,-0.1100,0.4500,9.5400,0.0625,-0.1250,0.1875,0.0224,0.0025,-0.0488,0.9986,
2025-03-08 21:10:41.059,-0.1100,0.4500,9.5300,-0.0625,-0.1875,-0.0625,0.0224,0.0025,-0.0488,0.9986,
2025-03-08 21:10:41.059,-0.1200,0.4700,9.5200,0.0000,-0.0625,0.1250,0.0224,0.0025,-0.0488,0.9986,
2025-03-08 21:10:41.059,-0.1200,0.4800,9.5100,0.0625,0.0000,0.0625,0.0224,0.0025,-0.0488,0.9986,
2025-03-08 21:10:41.070,-0.1300,0.4700,9.4900,-0.1250,0.1250,0.0625,0.0224,0.0025,-0.0488,0.9986,
2025-03-08 21:10:41.080,-0.1000,0.4800,9.5000,0.0000,0.1250,-0.1250,0.0224,0.0025,-0.0488,0.9986,
2025-03-08 21:10:41.089,-0.1100,0.4500,9.5200,0.0000,0.0000,0.0625,0.0224,0.0025,-0.0488,0.9986,
2025-03-08 21:10:41.100,-0.1100,0.4700,9.5200,0.0000,0.0000,0.0625,0.0224,0.0025,-0.0488,0.9986,
2025-03-08 21:10:41.110,-0.1100,0.4500,9.5200,0.0000,-0.1250,0.0000,0.0224,0.0025,-0.0488,0.9986,
2025-03-08 21:10:41.120,-0.1200,0.4900,9.5100,-0.0625,0.0625,0.0625,0.0224,0.0025,-0.0488,0.9986,
2025-03-08 21:10:41.129,-0.1100,0.4500,9.5000,0.0000,-0.1250,-0.0625,0.0224,0.0025,-0.0488,0.9986,
2025-03-08 21:10:41.140,-0.1200,0.4500,9.5100,0.0000,-0.0625,0.0625,0.0224,0.0025,-0.0488,0.9986,
2025-03-08 21:10:41.149,-0.1100,0.4500,9.4900,0.0000,-0.0625,0.1250,0.0224,0.0025,-0.0488,0.9986,
2025-03-08 21:10:41.161,-0.1100,0.4600,9.5000,0.0625,-0.1250,-0.0625,0.0224,0.0025,-0.0488,0.9986,
2025-03-08 21:10:41.169,-0.1100,0.4700,9.5100,0.0625,-0.1875,0.0000,0.0224,0.0025,-0.0488,0.9986,
2025-03-08 21:10:41.180,-0.1200,0.4800,9.5100,0.0000,-0.0625,0.0625,0.0224,0.0025,-0.0488,0.9986,
2025-03-08 21:10:41.195,-0.1000,0.4800,9.5200,0.0000,0.0000,0.0000,0.0224,0.0025,-0.0488,0.9986,
2025-03-08 21:10:41.202,-0.1200,0.4400,9.5000,-0.0625,-0.0625,0.0625,0.0224,0.0025,-0.0488,0.9986,
2025-03-08 21:10:41.209,-0.1000,0.4600,9.5000,-0.0625,0.0000,0.1250,0.0224,0.0025,-0.0488,0.9986,
2025-03-08 21:10:41.220,-0.1100,0.4500,9.5200,0.0000,0.0625,-0.0625,0.0224,0.0025,-0.0488,0.9986,
2025-03-08 21:10:41.229,-0.1200,0.4500,9.5200,-0.0625,0.1875,0.0000,0.0224,0.0025,-0.0488,0.9986,
2025-03-08 21:10:41.240,-0.1100,0.4900,9.4900,-0.1875,-0.0625,0.1250,0.0224,0.0025,-0.0488,0.9986,
2025-03-08 21:10:41.250,-0.0900,0.4500,9.5000,0.0625,0.0625,0.0000,0.0224,0.0025,-0.0488,0.9986,
2025-03-08 21:10:41.259,-0.0800,0.4600,9.4900,0.0000,0.0625,0.0625,0.0224,0.0025,-0.0488,0.9986,
2025-03-08 21:10:41.270,-0.1100,0.4500,9.5100,0.1250,-0.0625,-0.0625,0.0224,0.0025,-0.0488,0.9986,
2025-03-08 21:10:41.280,-0.1100,0.4600,9.5400,-0.0625,0.2500,0.0000,0.0224,0.0025,-0.0488,0.9986,
2025-03-08 21:10:41.291,-0.1000,0.4900,9.5100,-0.0625,-0.0625,0.0625,0.0224,0.0025,-0.0488,0.9986,
2025-03-08 21:10:41.304,-0.0800,0.4500,9.4900,0.0625,0.0625,-0.0625,0.0224,0.0025,-0.0488,0.9986,
2025-03-08 21:10:41.347,-0.1100,0.4700,9.5100,-0.1875,-0.0625,0.0000,0.0224,0.0025,-0.0488,0.9986,
2025-03-08 21:10:41.347,-0.1100,0.4800,9.4800,0.0625,-0.1250,-0.0625,0.0224,0.0025,-0.0488,0.9986,
2025-03-08 21:10:41.347,-0.1000,0.4700,9.5200,0.0000,0.0000,0.0625,0.0224,0.0025,-0.0488,0.9986,
2025-03-08 21:10:41.347,-0.1100,0.4500,9.5000,0.0000,0.0625,0.1250,0.0224,0.0025,-0.0488,0.9986,
2025-03-08 21:10:41.350,-0.0900,0.4600,9.5000,0.1250,-0.1250,0.2500,0.0224,0.0025,-0.0488,0.9986,
2025-03-08 21:10:41.360,-0.1100,0.4600,9.4800,0.0000,-0.1250,0.1875,0.0224,0.0025,-0.0488,0.9986,
2025-03-08 21:10:41.370,-0.1200,0.4800,9.4800,-0.1250,-0.0625,0.0625,0.0224,0.0025,-0.0488,0.9986,
2025-03-08 21:10:41.383,-0.1200,0.4700,9.5300,0.0000,0.1250,0.0000,0.0224,0.0025,-0.0488,0.9986,
2025-03-08 21:10:41.392,-0.1200,0.4500,9.5000,-0.0625,0.1250,0.0625,0.0224,0.0025,-0.0488,0.9986,
2025-03-08 21:10:41.400,-0.1300,0.4500,9.4900,0.1250,0.1250,0.0625,0.0224,0.0025,-0.0488,0.9986,
2025-03-08 21:10:41.412,-0.1100,0.4700,9.4800,0.0000,0.0000,0.1250,0.0224,0.0025,-0.0488,0.9986,
2025-03-08 21:10:41.421,-0.1100,0.4700,9.4900,-0.1250,-0.0625,0.0625,0.0224,0.0025,-0.0488,0.9986,
2025-03-08 21:10:41.440,-0.1200,0.4800,9.5000,0.1250,0.0000,0.0000,0.0224,0.0025,-0.0488,0.9986,
2025-03-08 21:10:41.440,-0.1100,0.4800,9.5300,0.0625,-0.0625,0.0625,0.0224,0.0025,-0.0488,0.9986,
2025-03-08 21:10:41.451,-0.1000,0.4800,9.5100,0.0625,0.0000,0.0000,0.0224,0.0025,-0.0488,0.9986,
2025-03-08 21:10:41.461,-0.1200,0.4700,9.4500,-0.1875,0.0000,-0.1250,0.0224,0.0025,-0.0488,0.9986,
2025-03-08 21:10:41.470,-0.1100,0.4700,9.5100,0.0000,0.0000,0.0625,0.0224,0.0025,-0.0488,0.9986,
2025-03-08 21:10:41.480,-0.1100,0.4800,9.5000,-0.1250,0.0625,0.1250,0.0224,0.0025,-0.0488,0.9986,
2025-03-08 21:10:41.490,-0.1100,0.4800,9.5000,-0.0625,0.1250,0.0000,0.0224,0.0025,-0.0488,0.9986,
2025-03-08 21:10:41.502,-0.1000,0.4800,9.5000,0.0625,-0.0625,0.0625,0.0224,0.0025,-0.0488,0.9986,
2025-03-08 21:10:41.510,-0.1200,0.4700,9.5000,0.0000,-0.1250,0.0000,0.0224,0.0025,-0.0488,0.9986,
2025-03-08 21:10:41.521,-0.1000,0.4600,9.4900,0.0000,-0.0625,0.1250,0.0224,0.0025,-0.0488,0.9986,
2025-03-08 21:10:41.534,-0.1200,0.4500,9.5000,-0.0625,-0.1250,0.0625,0.0224,0.0025,-0.0488,0.9986,
2025-03-08 21:10:41.540,-0.1300,0.4800,9.5200,-0.0625,-0.1250,-0.1250,0.0224,0.0025,-0.0488,0.9986,
2025-03-08 21:10:41.551,-0.0900,0.4600,9.5100,0.1250,-0.0625,0.0000,0.0224,0.0025,-0.0488,0.9986,
2025-03-08 21:10:41.563,-0.1100,0.4600,9.5000,-0.0625,-0.0625,-0.0625,0.0224,0.0025,-0.0488,0.9986,
2025-03-08 21:10:41.570,-0.1100,0.4600,9.4900,0.1250,-0.0625,0.0000,0.0224,0.0025,-0.0488,0.9986,
2025-03-08 21:10:41.581,-0.1100,0.4600,9.4800,0.1250,0.0000,0.2500,0.0224,0.0025,-0.0488,0.9986,
2025-03-08 21:10:41.590,-0.1000,0.4600,9.4900,0.0000,0.0625,0.0625,0.0224,0.0025,-0.0488,0.9986,
2025-03-08 21:10:41.602,-0.1200,0.4600,9.5100,0.1250,-0.0625,-0.0625,0.0224,0.0025,-0.0488,0.9986,
2025-03-08 21:10:41.634,-0.1200,0.4500,9.4900,0.0000,0.0625,0.0000,0.0224,0.0025,-0.0488,0.9986,
2025-03-08 21:10:41.643,-0.1100,0.4800,9.4800,0.0000,0.1250,0.0625,0.0224,0.0025,-0.0488,0.9986,
2025-03-08 21:10:41.643,-0.1300,0.4600,9.4800,0.0625,-0.0625,0.0625,0.0224,0.0025,-0.0488,0.9986,
2025-03-08 21:10:41.643,-0.1100,0.4800,9.5100,0.0625,-0.0625,0.0625,0.0224,0.0025,-0.0488,0.9986,
2025-03-08 21:10:41.647,-0.1000,0.4700,9.4800,-0.1250,-0.0625,-0.1250,0.0224,0.0025,-0.0488,0.9986,
2025-03-08 21:10:41.666,-0.0900,0.4800,9.5100,0.0000,0.0000,0.0000,0.0224,0.0025,-0.0488,0.9986,
2025-03-08 21:10:41.675,-0.1400,0.4500,9.5100,-0.0625,0.0000,-0.1250,0.0224,0.0025,-0.0488,0.9986,
2025-03-08 21:10:41.681,-0.1200,0.4700,9.4800,-0.0625,0.0000,-0.0625,0.0224,0.0025,-0.0488,0.9986,
2025-03-08 21:10:41.690,-0.1100,0.4700,9.5000,-0.0625,0.0000,-0.0625,0.0224,0.0025,-0.0488,0.9986,
2025-03-08 21:10:41.704,-0.0900,0.4500,9.5200,0.0625,-0.0625,-0.0625,0.0224,0.0025,-0.0488,0.9986,
2025-03-08 21:10:41.711,-0.1100,0.4800,9.5100,0.0625,0.0000,-0.1250,0.0224,0.0025,-0.0488,0.9986,
2025-03-08 21:10:41.721,-0.1100,0.4700,9.4700,0.0000,0.0625,0.0000,0.0224,0.0025,-0.0488,0.9986,
2025-03-08 21:10:41.780,-0.1000,0.4600,9.5000,0.0000,0.0000,0.0000,0.0224,0.0025,-0.0488,0.9986,
2025-03-08 21:10:41.780,-0.1100,0.4800,9.5100,0.0000,0.0000,0.0000,0.0224,0.0025,-0.0488,0.9986,
2025-03-08 21:10:41.780,-0.1100,0.4500,9.5200,0.0625,0.0625,-0.1250,0.0224,0.0025,-0.0488,0.9986,
2025-03-08 21:10:41.780,-0.1200,0.4500,9.4700,0.0625,-0.0625,0.0000,0.0224,0.0025,-0.0488,0.9986,
2025-03-08 21:10:41.780,-0.1100,0.4600,9.5000,0.0000,0.0625,-0.1250,0.0224,0.0025,-0.0488,0.9986,
2025-03-08 21:10:41.781,-0.1200,0.4700,9.5000,0.0000,0.0000,0.0000,0.0224,0.0025,-0.0488,0.9986,
2025-03-08 21:10:41.790,-0.1200,0.4900,9.4900,0.0000,0.0000,0.0000,0.0224,0.0025,-0.0488,0.9986,
2025-03-08 21:10:41.801,-0.1200,0.4800,9.5000,0.0000,0.0000,0.0625,0.0224,0.0025,-0.0488,0.9986,
2025-03-08 21:10:41.812,-0.1000,0.4700,9.5000,0.0625,0.0625,0.0000,0.0224,0.0025,-0.0488,0.9986,
2025-03-08 21:10:41.825,-0.1000,0.4400,9.4900,0.0000,0.0000,0.0000,0.0224,0.0025,-0.0488,0.9986,
2025-03-08 21:10:41.840,-0.1100,0.4600,9.5000,0.1250,-0.1875,0.0000,0.0224,0.0025,-0.0488,0.9986,
2025-03-08 21:10:41.855,-0.1200,0.4800,9.5100,0.0625,-0.0625,0.0000,0.0224,0.0025,-0.0488,0.9986,
2025-03-08 21:10:41.861,-0.1100,0.4500,9.5100,0.0625,-0.1250,-0.1250,0.0224,0.0025,-0.0488,0.9986,
2025-03-08 21:10:41.872,-0.1100,0.4400,9.5200,-0.1250,0.0625,-0.1250,0.0224,0.0025,-0.0488,0.9986,
2025-03-08 21:10:41.885,-0.1100,0.4500,9.5000,-0.0625,-0.0625,-0.0625,0.0224,0.0025,-0.0488,0.9986,
2025-03-08 21:10:41.889,-0.1000,0.4800,9.5200,0.0000,-0.0625,0.0000,0.0224,0.0025,-0.0488,0.9986,
2025-03-08 21:10:41.909,-0.1100,0.4700,9.5200,-0.1875,0.1875,0.0000,0.0224,0.0025,-0.0488,0.9986,
2025-03-08 21:10:41.934,-0.1100,0.4700,9.5000,-0.1250,0.0625,-0.1875,0.0224,0.0025,-0.0488,0.9986,
2025-03-08 21:10:41.951,-0.1100,0.4700,9.5000,-0.1875,0.0000,-0.1250,0.0224,0.0025,-0.0488,0.9986,
2025-03-08 21:10:41.951,-0.1300,0.4700,9.5000,0.0000,0.1250,-0.0625,0.0224,0.0025,-0.0488,0.9986,
2025-03-08 21:10:41.951,-0.1100,0.5000,9.5000,0.0000,0.0625,0.0000,0.0224,0.0025,-0.0488,0.9986,
2025-03-08 21:10:41.952,-0.1000,0.4900,9.4900,0.0625,0.0000,0.0000,0.0224,0.0025,-0.0488,0.9986,
2025-03-08 21:10:41.962,-0.1000,0.4800,9.5100,-0.0625,0.1250,-0.1250,0.0224,0.0025,-0.0488,0.9986,
2025-03-08 21:10:41.988,-0.1100,0.4600,9.4800,0.0000,0.0000,-0.0625,0.0224,0.0025,-0.0488,0.9986,
2025-03-08 21:10:42.007,-0.1200,0.4600,9.5000,-0.0625,-0.0625,-0.1250,0.0224,0.0025,-0.0488,0.9986,
2025-03-08 21:10:42.016,-0.1100,0.4500,9.5100,0.0000,0.1250,-0.0625,0.0224,0.0025,-0.0488,0.9986,
2025-03-08 21:10:42.032,-0.1300,0.4700,9.5000,0.1250,0.0000,-0.1250,0.0224,0.0025,-0.0488,0.9986,
2025-03-08 21:10:42.032,-0.1100,0.4600,9.5000,0.0000,0.0000,0.0625,0.0224,0.0025,-0.0488,0.9986,
2025-03-08 21:10:42.053,-0.1100,0.4700,9.5100,-0.2500,0.0000,0.0000,0.0224,0.0025,-0.0488,0.9986,
2025-03-08 21:10:42.064,-0.1000,0.4500,9.5000,-0.0625,-0.1250,-0.1250,0.0224,0.0025,-0.0488,0.9986,
2025-03-08 21:10:42.064,-0.1100,0.4800,9.4900,-0.0625,0.1250,0.0000,0.0224,0.0025,-0.0488,0.9986,
2025-03-08 21:10:42.075,-0.1100,0.4700,9.5000,-0.0625,0.0625,-0.1875,0.0224,0.0025,-0.0488,0.9986,
2025-03-08 21:10:42.084,-0.1100,0.4700,9.5000,-0.0625,0.0000,0.0625,0.0224,0.0025,-0.0488,0.9986,
2025-03-08 21:10:42.104,-0.1100,0.5000,9.5000,-0.0625,0.0625,-0.0625,0.0224,0.0025,-0.0488,0.9986,
2025-03-08 21:10:42.104,-0.1100,0.4800,9.5100,0.0000,0.1250,0.0000,0.0224,0.0025,-0.0488,0.9986,
2025-03-08 21:10:42.114,-0.1100,0.4700,9.5000,0.0000,0.0625,-0.1250,0.0224,0.0025,-0.0488,0.9986,
2025-03-08 21:10:42.124,-0.1200,0.4700,9.5000,0.0625,0.0000,0.0000,0.0224,0.0025,-0.0488,0.9986,
2025-03-08 21:10:42.134,-0.1100,0.5000,9.4800,0.0625,-0.0625,0.0000,0.0224,0.0025,-0.0488,0.9986,
2025-03-08 21:10:42.144,-0.1000,0.4600,9.5200,-0.0625,0.0000,0.0000,0.0224,0.0025,-0.0488,0.9986,
2025-03-08 21:10:42.154,-0.1100,0.4700,9.5000,0.0000,0.0625,-0.0625,0.0224,0.0025,-0.0488,0.9986,
2025-03-08 21:10:42.174,-0.1100,0.4600,9.4700,-0.0625,-0.0625,-0.0625,0.0224,0.0025,-0.0488,0.9986,
2025-03-08 21:10:42.185,-0.1100,0.4600,9.5100,0.0625,-0.0625,0.0625,0.0224,0.0025,-0.0488,0.9986,
2025-03-08 21:10:42.185,-0.1100,0.4800,9.4900,0.1250,-0.0625,0.1250,0.0224,0.0025,-0.0488,0.9986,
2025-03-08 21:10:42.196,-0.1000,0.4800,9.5200,0.0000,-0.0625,-0.0625,0.0224,0.0025,-0.0488,0.9986,
2025-03-08 21:10:42.245,-0.1200,0.4500,9.5000,0.1250,-0.0625,0.0000,0.0224,0.0025,-0.0488,0.9986,
2025-03-08 21:10:42.245,-0.1000,0.4500,9.5000,0.0000,-0.1250,0.0000,0.0224,0.0025,-0.0488,0.9986,
2025-03-08 21:10:42.266,-0.1100,0.4700,9.5100,0.0625,-0.0625,0.0000,0.0224,0.0025,-0.0488,0.9986,
2025-03-08 21:10:42.266,-0.1200,0.4700,9.5000,0.0625,-0.0625,0.0000,0.0224,0.0025,-0.0488,0.9986,
2025-03-08 21:10:42.266,-0.1100,0.4700,9.5100,0.1250,0.0000,0.0625,0.0224,0.0025,-0.0488,0.9986,
2025-03-08 21:10:42.266,-0.1100,0.4800,9.5200,0.1875,-0.1875,0.1250,0.0224,0.0025,-0.0488,0.9986,
2025-03-08 21:10:42.270,-0.1000,0.4600,9.4900,0.0625,-0.1250,0.1875,0.0224,0.0025,-0.0488,0.9986,
2025-03-08 21:10:42.285,-0.1100,0.4700,9.5200,0.1250,0.0000,0.0000,0.0224,0.0025,-0.0488,0.9986,
2025-03-08 21:10:42.286,-0.1200,0.4500,9.5000,0.0625,0.0000,-0.0625,0.0224,0.0025,-0.0488,0.9986,
2025-03-08 21:10:42.295,-0.1100,0.4600,9.5000,0.0625,0.0625,0.0625,0.0224,0.0025,-0.0488,0.9986,
2025-03-08 21:10:42.305,-0.1100,0.4700,9.5200,0.0625,-0.1875,-0.0625,0.0224,0.0025,-0.0488,0.9986,
2025-03-08 21:10:42.315,-0.1100,0.4600,9.5000,0.0000,-0.3125,-0.0625,0.0224,0.0025,-0.0488,0.9986,
2025-03-08 21:10:42.335,-0.1100,0.4500,9.5000,0.0625,-0.0625,0.0625,0.0224,0.0025,-0.0488,0.9986,
2025-03-08 21:10:42.335,-0.1000,0.4800,9.4800,0.1250,-0.0625,0.1250,0.0224,0.0025,-0.0488,0.9986,
2025-03-08 21:10:42.346,-0.1100,0.4800,9.5300,0.0625,-0.1250,0.0000,0.0224,0.0025,-0.0488,0.9986,
2025-03-08 21:10:42.356,-0.1200,0.4700,9.4900,0.0625,-0.0625,0.0625,0.0224,0.0025,-0.0488,0.9986,
2025-03-08 21:10:42.366,-0.1100,0.4700,9.5200,0.0625,0.0000,0.0625,0.0224,0.0025,-0.0488,0.9986,
2025-03-08 21:10:42.378,-0.1100,0.4600,9.5100,0.0625,-0.0625,0.1250,0.0224,0.0025,-0.0488,0.9986,
2025-03-08 21:10:42.387,-0.1000,0.4700,9.5000,0.0000,0.1250,0.0000,0.0224,0.0025,-0.0488,0.9986,
2025-03-08 21:10:42.397,-0.1000,0.4600,9.5100,0.0000,0.0625,-0.0625,0.0224,0.0025,-0.0488,0.9986,
2025-03-08 21:10:42.410,-0.1200,0.4500,9.4900,0.1250,-0.1250,0.0625,0.0224,0.0025,-0.0488,0.9986,
2025-03-08 21:10:42.417,-0.1100,0.4500,9.5000,0.1250,-0.0625,-0.0625,0.0224,0.0025,-0.0488,0.9986,
2025-03-08 21:10:42.427,-0.1100,0.4700,9.4600,0.0000,-0.0625,-0.1250,0.0224,0.0025,-0.0488,0.9986,
2025-03-08 21:10:42.439,-0.1100,0.4600,9.5000,-0.1875,0.1250,0.0000,0.0224,0.0025,-0.0488,0.9986,
2025-03-08 21:10:42.449,-0.1100,0.4900,9.5400,0.0625,-0.1250,-0.0625,0.0224,0.0025,-0.0488,0.9986,
2025-03-08 21:10:42.458,-0.1100,0.4500,9.5200,0.1250,-0.1875,0.0000,0.0224,0.0025,-0.0488,0.9986,
2025-03-08 21:10:42.469,-0.1100,0.4700,9.4900,0.0625,0.0000,0.0625,0.0224,0.0025,-0.0488,0.9986,
2025-03-08 21:10:42.479,-0.1300,0.4700,9.4900,0.0625,0.0625,0.0625,0.0224,0.0025,-0.0488,0.9986,
2025-03-08 21:10:42.490,-0.1100,0.4800,9.4900,0.1250,-0.0625,0.0000,0.0224,0.0025,-0.0488,0.9986,
2025-03-08 21:10:42.490,-0.1100,0.4600,9.5300,0.1250,0.1875,0.0000,0.0224,0.0025,-0.0488,0.9986,
2025-03-08 21:10:42.554,-0.1200,0.4500,9.4900,0.0625,0.0625,0.0000,0.0224,0.0025,-0.0488,0.9986,
2025-03-08 21:10:42.554,-0.1100,0.4600,9.4900,0.0000,0.0000,-0.0625,0.0224,0.0025,-0.0488,0.9986,
2025-03-08 21:10:42.554,-0.1100,0.4600,9.4900,0.1250,0.0625,0.0625,0.0224,0.0025,-0.0488,0.9986,
2025-03-08 21:10:42.554,-0.1100,0.4600,9.5000,-0.0625,0.0625,-0.1250,0.0224,0.0025,-0.0488,0.9986,
2025-03-08 21:10:42.554,-0.1000,0.4800,9.5000,0.0000,0.0625,0.0000,0.0224,0.0025,-0.0488,0.9986,
2025-03-08 21:10:42.559,-0.1200,0.4700,9.5100,-0.0625,0.0625,0.1250,0.0224,0.0025,-0.0488,0.9986,
2025-03-08 21:10:42.568,-0.1100,0.4600,9.4900,-0.0625,0.1250,0.0000,0.0224,0.0025,-0.0488,0.9986,
2025-03-08 21:10:42.579,-0.1100,0.4600,9.5100,0.0000,-0.1875,0.0000,0.0224,0.0025,-0.0488,0.9986,
2025-03-08 21:10:42.589,-0.1400,0.4500,9.4800,0.1250,-0.0625,0.0000,0.0224,0.0025,-0.0488,0.9986,
2025-03-08 21:10:42.599,-0.1100,0.4800,9.5000,0.0000,0.0625,-0.0625,0.0224,0.0025,-0.0488,0.9986,
2025-03-08 21:10:42.609,-0.1000,0.4800,9.4900,0.1250,0.1875,0.0625,0.0224,0.0025,-0.0488,0.9986,
2025-03-08 21:10:42.622,-0.1000,0.4800,9.4900,0.1250,0.0625,0.0000,0.0224,0.0025,-0.0488,0.9986,
2025-03-08 21:10:42.629,-0.1000,0.4600,9.5000,0.1250,0.0625,0.0000,0.0224,0.0025,-0.0488,0.9986,
2025-03-08 21:10:42.641,-0.1000,0.4600,9.5100,0.1250,-0.1250,0.1875,0.0224,0.0025,-0.0488,0.9986,
2025-03-08 21:10:42.650,-0.1000,0.4600,9.5100,0.0625,0.0000,0.0625,0.0224,0.0025,-0.0488,0.9986,
2025-03-08 21:10:42.659,-0.1100,0.4500,9.5000,0.0000,0.0000,-0.0625,0.0224,0.0025,-0.0488,0.9986,
2025-03-08 21:10:42.675,-0.1200,0.4600,9.5000,-0.0625,-0.1250,0.1875,0.0224,0.0025,-0.0488,0.9986,
2025-03-08 21:10:42.679,-0.1000,0.4500,9.5000,0.0000,-0.1250,0.0625,0.0224,0.0025,-0.0488,0.9986,
2025-03-08 21:10:42.690,-0.1000,0.4700,9.5000,0.1250,-0.1250,0.0625,0.0224,0.0025,-0.0488,0.9986,
2025-03-08 21:10:42.698,-0.1000,0.4500,9.5100,0.0000,-0.0625,0.0000,0.0224,0.0025,-0.0488,0.9986,
2025-03-08 21:10:42.711,-0.1200,0.4700,9.5000,0.0625,-0.1875,0.1250,0.0224,0.0025,-0.0488,0.9986,
2025-03-08 21:10:42.727,-0.1100,0.4700,9.5000,0.1875,0.0000,0.0625,0.0224,0.0025,-0.0488,0.9986,
2025-03-08 21:10:42.728,-0.1300,0.4600,9.4900,0.0625,0.0000,-0.0625,0.0224,0.0025,-0.0488,0.9986,
2025-03-08 21:10:42.739,-0.1100,0.4900,9.5100,-0.0625,0.0000,0.0000,0.0224,0.0025,-0.0488,0.9986,
2025-03-08 21:10:42.748,-0.1000,0.4600,9.4900,0.0625,0.1250,-0.1250,0.0224,0.0025,-0.0488,0.9986,
2025-03-08 21:10:42.760,-0.1200,0.4600,9.4900,0.0000,0.0000,0.0000,0.0224,0.0025,-0.0488,0.9986,
2025-03-08 21:10:42.769,-0.1100,0.4700,9.5000,0.0625,0.0625,0.0625,0.0224,0.0025,-0.0488,0.9986,
2025-03-08 21:10:42.779,-0.1100,0.4700,9.5300,0.0000,0.1250,-0.1875,0.0224,0.0025,-0.0488,0.9986,
2025-03-08 21:10:42.789,-0.1200,0.4800,9.4900,0.0000,0.1875,0.0000,0.0224,0.0025,-0.0488,0.9986,
2025-03-08 21:10:42.799,-0.1300,0.4800,9.5200,0.0000,0.0000,0.0000,0.0224,0.0025,-0.0488,0.9986,
2025-03-08 21:10:42.810,-0.1200,0.4600,9.5200,0.0000,0.0625,0.0625,0.0224,0.0025,-0.0488,0.9986,
2025-03-08 21:10:42.860,-0.1100,0.4600,9.4900,0.0000,0.0000,-0.0625,0.0224,0.0025,-0.0488,0.9986,
2025-03-08 21:10:42.861,-0.1000,0.4500,9.5100,-0.0625,0.1250,0.0000,0.0224,0.0025,-0.0488,0.9986,
2025-03-08 21:10:42.861,-0.1100,0.4500,9.5200,0.0000,0.0625,-0.0625,0.0224,0.0025,-0.0488,0.9986,
2025-03-08 21:10:42.861,-0.1000,0.4600,9.5200,0.0000,0.1250,0.0000,0.0224,0.0025,-0.0488,0.9986,
2025-03-08 21:10:42.861,-0.1200,0.4700,9.5100,-0.0625,0.1250,0.0000,0.0224,0.0025,-0.0488,0.9986,
2025-03-08 21:10:42.869,-0.1000,0.4800,9.4900,-0.1250,-0.0625,0.0000,0.0224,0.0025,-0.0488,0.9986,
2025-03-08 21:10:42.884,-0.1300,0.4700,9.5300,0.0625,0.0000,0.0000,0.0224,0.0025,-0.0488,0.9986,
2025-03-08 21:10:42.891,-0.1100,0.4600,9.4900,0.0625,0.0625,0.0625,0.0224,0.0025,-0.0488,0.9986,
2025-03-08 21:10:42.901,-0.1200,0.4700,9.5300,-0.0625,0.0625,0.1250,0.0224,0.0025,-0.0488,0.9986,
2025-03-08 21:10:42.909,-0.1100,0.4700,9.5000,0.0000,-0.1250,0.0000,0.0224,0.0025,-0.0488,0.9986,
2025-03-08 21:10:42.919,-0.1200,0.4800,9.4900,0.0000,-0.0625,0.1250,0.0224,0.0025,-0.0488,0.9986,
2025-03-08 21:10:42.934,-0.1100,0.4500,9.5000,0.0625,-0.1250,0.0625,0.0224,0.0025,-0.0488,0.9986,
2025-03-08 21:10:42.940,-0.1200,0.4700,9.5400,-0.0625,0.0625,0.0625,0.0224,0.0025,-0.0488,0.9986,
2025-03-08 21:10:42.950,-0.1100,0.4700,9.5100,0.0000,0.0000,0.0000,0.0224,0.0025,-0.0488,0.9986,
2025-03-08 21:10:42.959,-0.1100,0.4500,9.5000,0.0625,0.0625,-0.0625,0.0224,0.0025,-0.0488,0.9986,
2025-03-08 21:10:42.969,-0.1300,0.4700,9.4900,0.0000,0.1250,0.0000,0.0224,0.0025,-0.0488,0.9986,
2025-03-08 21:10:42.980,-0.1100,0.4700,9.4800,0.1250,0.1250,0.0625,0.0224,0.0025,-0.0488,0.9986,
2025-03-08 21:10:42.986,-0.1300,0.4700,9.5200,-0.0625,-0.0625,0.0625,0.0224,0.0025,-0.0488,0.9986,
2025-03-08 21:10:42.996,-0.1100,0.4700,9.5300,0.0625,0.1250,0.0000,0.0224,0.0025,-0.0488,0.9986,
2025-03-08 21:10:43.007,-0.1100,0.4600,9.5100,0.0625,0.1250,0.0000,0.0224,0.0025,-0.0488,0.9986,
2025-03-08 21:10:43.017,-0.1000,0.4500,9.4900,0.0625,-0.1250,0.0000,0.0224,0.0025,-0.0488,0.9986,
2025-03-08 21:10:43.028,-0.1100,0.5000,9.5100,-0.1250,-0.1250,0.0000,0.0224,0.0025,-0.0488,0.9986,
2025-03-08 21:10:43.037,-0.0900,0.4700,9.4900,0.0000,0.0000,-0.0625,0.0224,0.0025,-0.0488,0.9986,
2025-03-08 21:10:43.048,-0.1000,0.4500,9.5000,-0.1250,0.0625,0.0625,0.0224,0.0025,-0.0488,0.9986,
2025-03-08 21:10:43.060,-0.1000,0.4800,9.4900,-0.0625,0.1875,-0.0625,0.0224,0.0025,-0.0488,0.9986,
2025-03-08 21:10:43.068,-0.1100,0.4700,9.4900,0.0000,-0.1875,0.0000,0.0224,0.0025,-0.0488,0.9986,
2025-03-08 21:10:43.079,-0.1100,0.4800,9.5100,-0.0625,-0.3125,0.0625,0.0224,0.0025,-0.0488,0.9986,
2025-03-08 21:10:43.090,-0.1100,0.4500,9.4900,0.0000,0.0625,0.0000,0.0224,0.0025,-0.0488,0.9986,
2025-03-08 21:10:43.099,-0.1100,0.4700,9.5000,-0.1250,0.1250,0.0000,0.0224,0.0025,-0.0488,0.9986,
2025-03-08 21:10:43.110,-0.1100,0.4500,9.5100,0.0000,-0.0625,0.0625,0.0224,0.0025,-0.0488,0.9986,
2025-03-08 21:10:43.147,-0.1100,0.4500,9.5000,0.0625,0.0000,0.1875,0.0224,0.0025,-0.0488,0.9986,
2025-03-08 21:10:43.147,-0.1000,0.4600,9.5000,-0.0625,0.0000,0.0000,0.0224,0.0025,-0.0488,0.9986,
2025-03-08 21:10:43.147,-0.1100,0.4600,9.5000,0.0000,0.0000,0.0000,0.0224,0.0025,-0.0488,0.9986,
2025-03-08 21:10:43.152,-0.1100,0.4600,9.5000,0.0625,0.0625,0.0625,0.0224,0.0025,-0.0488,0.9986,
2025-03-08 21:10:43.161,-0.1100,0.4600,9.5100,-0.1250,-0.0625,0.0000,0.0224,0.0025,-0.0488,0.9986,
2025-03-08 21:10:43.170,-0.1100,0.4700,9.4900,0.0000,0.0000,0.0000,0.0224,0.0025,-0.0488,0.9986,
2025-03-08 21:10:43.181,-0.1100,0.4800,9.4900,0.1250,-0.0625,0.1250,0.0224,0.0025,-0.0488,0.9986,
2025-03-08 21:10:43.181,-0.1100,0.4800,9.4900,0.0000,-0.0625,0.1250,0.0224,0.0025,-0.0488,0.9986,
2025-03-08 21:10:43.195,-0.1300,0.4600,9.5200,-0.1250,0.1250,0.0000,0.0224,0.0025,-0.0488,0.9986,
2025-03-08 21:10:43.201,-0.1200,0.4700,9.5200,-0.1250,0.0625,0.0000,0.0224,0.0025,-0.0488,0.9986,
2025-03-08 21:10:43.212,-0.1100,0.4700,9.5000,-0.1250,0.0000,0.0625,0.0224,0.0025,-0.0488,0.9986,
2025-03-08 21:10:43.232,-0.1200,0.4600,9.5100,-0.0625,-0.0625,0.0000,0.0224,0.0025,-0.0488,0.9986,
2025-03-08 21:10:43.232,-0.1100,0.4500,9.4900,-0.1250,-0.0625,0.0625,0.0224,0.0025,-0.0488,0.9986,
2025-03-08 21:10:43.247,-0.1000,0.4700,9.5000,-0.0625,-0.0625,0.0625,0.0224,0.0025,-0.0488,0.9986,
2025-03-08 21:10:43.252,-0.1000,0.4700,9.5100,0.0000,-0.0625,-0.0625,0.0224,0.0025,-0.0488,0.9986,
2025-03-08 21:10:43.263,-0.1100,0.4800,9.5100,0.0625,0.0625,0.0000,0.0224,0.0025,-0.0488,0.9986,
2025-03-08 21:10:43.272,-0.1200,0.4500,9.4900,0.0625,-0.0625,0.0000,0.0224,0.0025,-0.0488,0.9986,
2025-03-08 21:10:43.282,-0.1100,0.4600,9.4800,0.0000,0.0000,0.0625,0.0224,0.0025,-0.0488,0.9986,
2025-03-08 21:10:43.292,-0.1100,0.4800,9.5000,-0.0625,0.0000,-0.0625,0.0224,0.0025,-0.0488,0.9986,
2025-03-08 21:10:43.304,-0.0900,0.4700,9.5000,0.0000,0.0625,0.0625,0.0224,0.0025,-0.0488,0.9986,
2025-03-08 21:10:43.313,-0.1200,0.4700,9.5000,0.0000,0.2500,0.0000,0.0224,0.0025,-0.0488,0.9986,
2025-03-08 21:10:43.323,-0.1000,0.4900,9.4800,0.0625,0.0000,0.0625,0.0224,0.0025,-0.0488,0.9986,
2025-03-08 21:10:43.343,-0.1200,0.4700,9.5100,0.0625,0.0000,0.0000,0.0224,0.0025,-0.0488,0.9986,
2025-03-08 21:10:43.347,-0.1300,0.4700,9.5200,0.0625,0.0000,0.0000,0.0224,0.0025,-0.0488,0.9986,
2025-03-08 21:10:43.353,-0.1000,0.4700,9.5100,0.0000,0.1250,-0.0625,0.0224,0.0025,-0.0488,0.9986,
2025-03-08 21:10:43.373,-0.1100,0.4800,9.5100,0.0625,-0.1250,-0.0625,0.0224,0.0025,-0.0488,0.9986,
2025-03-08 21:10:43.384,-0.1200,0.4800,9.5100,0.0625,0.0000,0.0000,0.0224,0.0025,-0.0488,0.9986,
2025-03-08 21:10:43.384,-0.1100,0.4700,9.5000,0.0000,-0.0625,0.0000,0.0224,0.0025,-0.0488,0.9986,
2025-03-08 21:10:43.394,-0.1100,0.4600,9.5100,0.0000,-0.0625,0.0000,0.0224,0.0025,-0.0488,0.9986,
2025-03-08 21:10:43.434,-0.1000,0.4700,9.5100,-0.1250,0.1875,0.0000,0.0224,0.0025,-0.0488,0.9986,
2025-03-08 21:10:43.444,-0.1100,0.4600,9.5200,-0.0625,0.0000,-0.0625,0.0224,0.0025,-0.0488,0.9986,
2025-03-08 21:10:43.444,-0.1100,0.4800,9.5000,-0.0625,0.0625,0.0625,0.0224,0.0025,-0.0488,0.9986,
2025-03-08 21:10:43.444,-0.1100,0.4800,9.4900,-0.1875,0.1250,0.0625,0.0224,0.0025,-0.0488,0.9986,
2025-03-08 21:10:43.448,-0.1300,0.4700,9.5300,-0.1875,0.1250,0.0625,0.0224,0.0025,-0.0488,0.9986,
2025-03-08 21:10:43.455,-0.1100,0.4800,9.5000,-0.0625,-0.0625,0.0625,0.0224,0.0025,-0.0488,0.9986,
2025-03-08 21:10:43.466,-0.1100,0.4500,9.5000,-0.0625,0.0000,0.0000,0.0224,0.0025,-0.0488,0.9986,
2025-03-08 21:10:43.480,-0.1200,0.4800,9.5000,0.0625,0.0000,0.1250,0.0224,0.0025,-0.0488,0.9986,
2025-03-08 21:10:43.490,-0.1000,0.4500,9.5300,-0.0625,0.0000,-0.0625,0.0224,0.0025,-0.0488,0.9986,
2025-03-08 21:10:43.498,-0.1000,0.4700,9.5200,-0.0625,0.0000,-0.0625,0.0224,0.0025,-0.0488,0.9986,
2025-03-08 21:10:43.507,-0.1100,0.5000,9.5000,-0.1250,0.0625,0.0625,0.0224,0.0025,-0.0488,0.9986,
2025-03-08 21:10:43.528,-0.1100,0.4700,9.5100,0.0000,0.0625,-0.0625,0.0224,0.0025,-0.0488,0.9986,
2025-03-08 21:10:43.540,-0.1100,0.4700,9.4900,-0.0625,-0.0625,0.0000,0.0224,0.0025,-0.0488,0.9986,
2025-03-08 21:10:43.540,-0.1200,0.4700,9.5100,-0.0625,-0.0625,0.0000,0.0224,0.0025,-0.0488,0.9986,
2025-03-08 21:10:43.549,-0.1100,0.4500,9.5100,0.0000,0.0000,0.0000,0.0224,0.0025,-0.0488,0.9986,
2025-03-08 21:10:43.570,-0.1100,0.4900,9.5100,0.1250,0.0625,0.1875,0.0224,0.0025,-0.0488,0.9986,
2025-03-08 21:10:43.570,-0.0900,0.4700,9.5200,0.1250,0.0000,0.0000,0.0224,0.0025,-0.0488,0.9986,
2025-03-08 21:10:43.580,-0.1100,0.4800,9.4700,0.0625,-0.0625,0.0000,0.0224,0.0025,-0.0488,0.9986,
2025-03-08 21:10:43.591,-0.1100,0.4600,9.5000,-0.0625,0.0625,0.0000,0.0224,0.0025,-0.0488,0.9986,
2025-03-08 21:10:43.612,-0.1200,0.4500,9.5000,-0.0625,0.1250,-0.0625,0.0224,0.0025,-0.0488,0.9986,
2025-03-08 21:10:43.623,-0.1100,0.4800,9.5100,0.0000,0.0625,0.1250,0.0224,0.0025,-0.0488,0.9986,
2025-03-08 21:10:43.631,-0.1200,0.4900,9.4900,-0.0625,0.0000,0.0625,0.0224,0.0025,-0.0488,0.9986,
2025-03-08 21:10:43.648,-0.1200,0.4700,9.5000,0.0000,0.1250,0.1250,0.0224,0.0025,-0.0488,0.9986,
2025-03-08 21:10:43.766,-0.1100,0.4700,9.5100,0.0000,0.0000,0.1250,0.0224,0.0025,-0.0488,0.9986,
2025-03-08 21:10:43.766,-0.1200,0.4400,9.5100,0.0000,0.0000,-0.1250,0.0224,0.0025,-0.0488,0.9986,
2025-03-08 21:10:43.766,-0.1100,0.4600,9.4900,-0.1250,-0.1250,0.0000,0.0224,0.0025,-0.0488,0.9986,
2025-03-08 21:10:43.766,-0.1200,0.4800,9.5000,0.0000,0.0625,0.0000,0.0224,0.0025,-0.0488,0.9986,
2025-03-08 21:10:43.766,-0.1000,0.4600,9.4800,-0.0625,0.0625,0.0625,0.0224,0.0025,-0.0488,0.9986,
2025-03-08 21:10:43.766,-0.0900,0.4800,9.5100,-0.0625,0.0625,-0.0625,0.0224,0.0025,-0.0488,0.9986,
2025-03-08 21:10:43.766,-0.1200,0.4700,9.5100,-0.0625,-0.2500,0.0625,0.0224,0.0025,-0.0488,0.9986,
2025-03-08 21:10:43.766,-0.1200,0.4500,9.5000,0.0625,-0.1875,0.0000,0.0224,0.0025,-0.0488,0.9986,
2025-03-08 21:10:43.766,-0.1100,0.4700,9.5000,0.0000,0.0000,-0.0625,0.0224,0.0025,-0.0488,0.9986,
2025-03-08 21:10:43.786,-0.1100,0.4700,9.5100,-0.1250,-0.0625,0.0000,0.0224,0.0025,-0.0488,0.9986,
2025-03-08 21:10:43.796,-0.0900,0.4900,9.4900,0.0000,0.0000,-0.0625,0.0224,0.0025,-0.0488,0.9986,
2025-03-08 21:10:43.796,-0.1100,0.4800,9.5000,-0.0625,-0.1875,0.0000,0.0224,0.0025,-0.0488,0.9986,
2025-03-08 21:10:43.806,-0.1100,0.4800,9.5000,0.0000,0.1250,0.0625,0.0224,0.0025,-0.0488,0.9986,
2025-03-08 21:10:43.819,-0.1100,0.4800,9.4900,-0.0625,-0.0625,-0.0625,0.0224,0.0025,-0.0488,0.9986,
2025-03-08 21:10:43.826,-0.1200,0.4500,9.5000,-0.0625,-0.0625,-0.1250,0.0224,0.0025,-0.0488,0.9986,
2025-03-08 21:10:43.836,-0.1200,0.4600,9.5200,0.0000,-0.0625,-0.1250,0.0224,0.0025,-0.0488,0.9986,
2025-03-08 21:10:43.848,-0.1100,0.4700,9.5000,0.0000,0.0625,0.0000,0.0224,0.0025,-0.0488,0.9986,
2025-03-08 21:10:43.858,-0.1100,0.4700,9.5100,0.0000,-0.0625,0.0000,0.0224,0.0025,-0.0488,0.9986,
2025-03-08 21:10:43.866,-0.1300,0.4700,9.5000,0.0625,0.0625,0.0000,0.0224,0.0025,-0.0488,0.9986,
2025-03-08 21:10:43.876,-0.1000,0.4700,9.5100,0.0000,-0.0625,0.0000,0.0224,0.0025,-0.0488,0.9986,
2025-03-08 21:10:43.886,-0.1000,0.4800,9.5000,0.0000,0.0000,0.0000,0.0224,0.0025,-0.0488,0.9986,
2025-03-08 21:10:43.897,-0.1200,0.4500,9.5000,0.0000,0.0000,-0.1875,0.0224,0.0025,-0.0488,0.9986,
2025-03-08 21:10:43.908,-0.1000,0.4800,9.5200,0.1250,-0.1875,0.0625,0.0224,0.0025,-0.0488,0.9986,
2025-03-08 21:10:43.920,-0.1100,0.4700,9.5000,0.0625,0.0000,0.0000,0.0224,0.0025,-0.0488,0.9986,
2025-03-08 21:10:43.928,-0.1100,0.4700,9.4900,-0.0625,0.0000,-0.0625,0.0224,0.0025,-0.0488,0.9986,
2025-03-08 21:10:43.941,-0.1000,0.4600,9.5000,0.0000,0.0000,0.0625,0.0224,0.0025,-0.0488,0.9986,
2025-03-08 21:10:43.949,-0.0900,0.4500,9.5100,-0.1250,0.0000,-0.0625,0.0224,0.0025,-0.0488,0.9986,
2025-03-08 21:10:43.958,-0.1100,0.4600,9.5300,-0.0625,-0.2500,0.0000,0.0224,0.0025,-0.0488,0.9986,
2025-03-08 21:10:43.974,-0.1100,0.4500,9.5000,0.0625,-0.0625,0.1875,0.0224,0.0025,-0.0488,0.9986,
2025-03-08 21:10:43.980,-0.1100,0.4600,9.4800,-0.1250,-0.0625,0.0625,0.0224,0.0025,-0.0488,0.9986,
2025-03-08 21:10:43.991,-0.1300,0.4800,9.5100,0.0000,0.0625,-0.1875,0.0224,0.0025,-0.0488,0.9986,
2025-03-08 21:10:43.999,-0.1100,0.4500,9.5000,0.0625,-0.0625,-0.0625,0.0224,0.0025,-0.0488,0.9986,
2025-03-08 21:10:44.046,-0.1100,0.4600,9.5100,0.0000,-0.1250,0.0625,0.0224,0.0025,-0.0488,0.9986,
2025-03-08 21:10:44.046,-0.1300,0.4900,9.5300,0.0000,-0.0625,0.0000,0.0224,0.0025,-0.0488,0.9986,
2025-03-08 21:10:44.047,-0.1000,0.4700,9.5100,0.0000,0.0625,-0.1250,0.0224,0.0025,-0.0488,0.9986,
2025-03-08 21:10:44.047,-0.0900,0.4800,9.5200,-0.0625,0.0000,-0.1250,0.0224,0.0025,-0.0488,0.9986,
2025-03-08 21:10:44.049,-0.1100,0.4700,9.4900,0.1250,-0.1875,0.0000,0.0224,0.0025,-0.0488,0.9986,
2025-03-08 21:10:44.061,-0.1100,0.4800,9.5000,0.0625,-0.1875,-0.1250,0.0224,0.0025,-0.0488,0.9986,
2025-03-08 21:10:44.070,-0.1100,0.4700,9.5000,0.1250,-0.3125,-0.0625,0.0224,0.0025,-0.0488,0.9986,
2025-03-08 21:10:44.079,-0.1100,0.4500,9.5200,-0.0625,-0.1250,-0.0625,0.0224,0.0025,-0.0488,0.9986,
2025-03-08 21:10:44.090,-0.1000,0.4900,9.5100,-0.1250,-0.0625,-0.1250,0.0224,0.0025,-0.0488,0.9986,
2025-03-08 21:10:44.100,-0.1300,0.4600,9.5200,-0.0625,-0.1250,0.0000,0.0224,0.0025,-0.0488,0.9986,
2025-03-08 21:10:44.122,-0.1200,0.4600,9.5300,-0.0625,-0.0625,0.0000,0.0224,0.0025,-0.0488,0.9986,
2025-03-08 21:10:44.123,-0.1100,0.4600,9.4800,-0.0625,-0.0625,-0.1250,0.0224,0.0025,-0.0488,0.9986,
2025-03-08 21:10:44.129,-0.1200,0.4800,9.4800,-0.0625,0.0000,-0.1875,0.0224,0.0025,-0.0488,0.9986,
2025-03-08 21:10:44.146,-0.1000,0.4600,9.5200,0.0625,-0.2500,0.0625,0.0224,0.0025,-0.0488,0.9986,
2025-03-08 21:10:44.149,-0.1000,0.4500,9.5000,0.0000,-0.1875,0.0000,0.0224,0.0025,-0.0488,0.9986,
2025-03-08 21:10:44.161,-0.1200,0.4600,9.5200,0.0000,-0.0625,0.0000,0.0224,0.0025,-0.0488,0.9986,
2025-03-08 21:10:44.169,-0.1000,0.4600,9.5000,0.1875,-0.1250,0.1250,0.0224,0.0025,-0.0488,0.9986,
2025-03-08 21:10:44.180,-0.1100,0.4400,9.4800,-0.0625,0.0000,-0.0625,0.0224,0.0025,-0.0488,0.9986,
2025-03-08 21:10:44.188,-0.1200,0.4900,9.4700,-0.1875,0.2500,0.0000,0.0224,0.0025,-0.0488,0.9986,
2025-03-08 21:10:44.198,-0.1100,0.4600,9.5000,0.0625,0.1250,0.0000,0.0224,0.0025,-0.0488,0.9986,
2025-03-08 21:10:44.211,-0.1100,0.4800,9.5200,0.0000,0.0000,0.0000,0.0224,0.0025,-0.0488,0.9986,
2025-03-08 21:10:44.219,-0.1000,0.4500,9.5000,0.0000,0.0625,0.0000,0.0224,0.0025,-0.0488,0.9986,
2025-03-08 21:10:44.230,-0.1400,0.4600,9.4800,0.0000,0.0625,0.0625,0.0224,0.0025,-0.0488,0.9986,
2025-03-08 21:10:44.238,-0.1200,0.4600,9.5000,-0.1250,-0.1250,-0.0625,0.0224,0.0025,-0.0488,0.9986,
2025-03-08 21:10:44.248,-0.1100,0.4800,9.5200,-0.0625,0.0625,0.0625,0.0224,0.0025,-0.0488,0.9986,
2025-03-08 21:10:44.263,-0.1100,0.4600,9.5000,-0.1250,0.0625,0.0625,0.0224,0.0025,-0.0488,0.9986,
2025-03-08 21:10:44.268,-0.1200,0.4400,9.5000,0.0000,0.0000,0.0625,0.0224,0.0025,-0.0488,0.9986,
2025-03-08 21:10:44.279,-0.1100,0.4400,9.4700,0.0625,0.0625,-0.0625,0.0224,0.0025,-0.0488,0.9986,
2025-03-08 21:10:44.288,-0.1200,0.4600,9.4900,0.0625,0.1875,0.0000,0.0224,0.0025,-0.0488,0.9986,
2025-03-08 21:10:44.299,-0.1200,0.4700,9.5300,0.0000,0.0000,-0.0625,0.0224,0.0025,-0.0488,0.9986,
2025-03-08 21:10:44.345,-0.1100,0.4600,9.5000,-0.0625,0.0625,0.0000,0.0224,0.0025,-0.0488,0.9986,
2025-03-08 21:10:44.345,-0.1000,0.4600,9.5200,-0.0625,0.0000,-0.0625,0.0224,0.0025,-0.0488,0.9986,
2025-03-08 21:10:44.346,-0.1100,0.4800,9.5100,0.0625,0.0000,0.0000,0.0224,0.0025,-0.0488,0.9986,
2025-03-08 21:10:44.346,-0.1200,0.4600,9.5000,0.0625,0.0000,0.0000,0.0224,0.0025,-0.0488,0.9986,
2025-03-08 21:10:44.348,-0.1100,0.4700,9.5200,0.0000,0.0625,0.0000,0.0224,0.0025,-0.0488,0.9986,
2025-03-08 21:10:44.363,-0.1100,0.4700,9.5000,0.0625,-0.0625,0.0625,0.0224,0.0025,-0.0488,0.9986,
2025-03-08 21:10:44.369,-0.1000,0.4600,9.4900,0.0000,0.0000,-0.0625,0.0224,0.0025,-0.0488,0.9986,
2025-03-08 21:10:44.380,-0.1100,0.4700,9.5000,0.0000,0.2500,0.0000,0.0224,0.0025,-0.0488,0.9986,
2025-03-08 21:10:44.390,-0.1100,0.4600,9.5000,0.0000,0.0000,0.0000,0.0224,0.0025,-0.0488,0.9986,
2025-03-08 21:10:44.399,-0.1200,0.4500,9.5100,-0.0625,-0.0625,0.0000,0.0224,0.0025,-0.0488,0.9986,
2025-03-08 21:10:44.409,-0.1000,0.4600,9.5100,-0.0625,-0.1250,0.0000,0.0224,0.0025,-0.0488,0.9986,
2025-03-08 21:10:44.419,-0.1000,0.4600,9.5200,-0.0625,0.0000,0.0625,0.0224,0.0025,-0.0488,0.9986,
2025-03-08 21:10:44.430,-0.1200,0.4600,9.5000,0.0625,0.0625,0.0000,0.0224,0.0025,-0.0488,0.9986,
2025-03-08 21:10:44.439,-0.1200,0.4500,9.4900,-0.0625,0.0000,0.0625,0.0224,0.0025,-0.0488,0.9986,
2025-03-08 21:10:44.449,-0.1100,0.4700,9.5000,0.0000,0.0625,0.0000,0.0224,0.0025,-0.0488,0.9986,
2025-03-08 21:10:44.456,-0.1100,0.4500,9.4800,0.0625,0.1250,0.0000,0.0224,0.0025,-0.0488,0.9986,
2025-03-08 21:10:44.467,-0.1200,0.4700,9.4900,0.0625,-0.1250,0.0625,0.0224,0.0025,-0.0488,0.9986,
2025-03-08 21:10:44.492,-0.1000,0.4700,9.4900,0.0625,0.0625,-0.0625,0.0224,0.0025,-0.0488,0.9986,
2025-03-08 21:10:44.492,-0.1100,0.4500,9.5200,0.0625,-0.0625,-0.0625,0.0224,0.0025,-0.0488,0.9986,
2025-03-08 21:10:44.499,-0.1000,0.4600,9.5200,-0.0625,0.0625,0.0625,0.0224,0.0025,-0.0488,0.9986,
2025-03-08 21:10:44.509,-0.1000,0.4600,9.5000,-0.0625,-0.0625,0.0000,0.0224,0.0025,-0.0488,0.9986,
2025-03-08 21:10:44.525,-0.1100,0.4800,9.5000,0.1250,0.0625,0.0625,0.0224,0.0025,-0.0488,0.9986,
2025-03-08 21:10:44.529,-0.1000,0.4600,9.5000,0.0000,0.0625,0.0000,0.0224,0.0025,-0.0488,0.9986,
2025-03-08 21:10:44.539,-0.1200,0.4700,9.5000,-0.0625,-0.0625,-0.0625,0.0224,0.0025,-0.0488,0.9986,
2025-03-08 21:10:44.550,-0.1100,0.4500,9.5100,0.0000,-0.0625,-0.1250,0.0224,0.0025,-0.0488,0.9986,
2025-03-08 21:10:44.560,-0.1100,0.4600,9.5000,0.0625,-0.1250,0.0625,0.0224,0.0025,-0.0488,0.9986,
2025-03-08 21:10:44.570,-0.1100,0.4700,9.5100,0.0625,0.0000,0.0625,0.0224,0.0025,-0.0488,0.9986,
2025-03-08 21:10:44.580,-0.1100,0.4700,9.4900,0.0625,0.0625,0.1875,0.0224,0.0025,-0.0488,0.9986,
2025-03-08 21:10:44.591,-0.1100,0.4900,9.5000,0.0000,0.1250,0.0000,0.0224,0.0025,-0.0488,0.9986,
2025-03-08 21:10:44.599,-0.1100,0.4700,9.5100,-0.0625,-0.0625,0.0625,0.0224,0.0025,-0.0488,0.9986,
2025-03-08 21:10:44.646,-0.1300,0.4600,9.5400,-0.0625,-0.3125,0.0625,0.0224,0.0025,-0.0488,0.9986,
2025-03-08 21:10:44.646,-0.1200,0.4600,9.5000,0.0000,0.0000,0.0625,0.0224,0.0025,-0.0488,0.9986,
2025-03-08 21:10:44.646,-0.1100,0.4600,9.4500,0.0000,-0.0625,0.1250,0.0224,0.0025,-0.0488,0.9986,
2025-03-08 21:10:44.646,-0.1100,0.4800,9.5100,0.0625,0.0000,0.0625,0.0224,0.0025,-0.0488,0.9986,
2025-03-08 21:10:44.648,-0.1200,0.4700,9.5300,0.0000,-0.1250,0.0625,0.0224,0.0025,-0.0488,0.9986,
2025-03-08 21:10:44.660,-0.1000,0.4900,9.5100,-0.0625,-0.0625,0.0625,0.0224,0.0025,-0.0488,0.9986,
2025-03-08 21:10:44.672,-0.1000,0.4500,9.4900,0.0000,-0.0625,-0.1250,0.0224,0.0025,-0.0488,0.9986,
2025-03-08 21:10:44.679,-0.1100,0.4700,9.4900,0.0000,0.1250,-0.0625,0.0224,0.0025,-0.0488,0.9986,
2025-03-08 21:10:44.691,-0.0900,0.4700,9.5100,-0.0625,-0.0625,-0.0625,0.0224,0.0025,-0.0488,0.9986,
2025-03-08 21:10:44.700,-0.1000,0.4500,9.5200,-0.1250,0.0000,-0.0625,0.0224,0.0025,-0.0488,0.9986,
2025-03-08 21:10:44.710,-0.1000,0.4500,9.5200,0.0000,0.0625,-0.0625,0.0224,0.0025,-0.0488,0.9986,
2025-03-08 21:10:44.720,-0.1000,0.4400,9.4900,0.0000,-0.0625,0.0000,0.0224,0.0025,-0.0488,0.9986,
2025-03-08 21:10:44.730,-0.1100,0.4500,9.4800,0.0625,0.0000,0.0000,0.0224,0.0025,-0.0488,0.9986,
2025-03-08 21:10:44.742,-0.1100,0.4700,9.5000,0.0000,0.0000,0.0000,0.0224,0.0025,-0.0488,0.9986,
2025-03-08 21:10:44.751,-0.1100,0.4500,9.5200,0.0000,0.0000,-0.1250,0.0224,0.0025,-0.0488,0.9986,
2025-03-08 21:10:44.760,-0.1100,0.4600,9.5000,-0.0625,0.0625,0.0000,0.0224,0.0025,-0.0488,0.9986,
2025-03-08 21:10:44.772,-0.1100,0.4600,9.5000,-0.0625,-0.0625,0.0000,0.0224,0.0025,-0.0488,0.9986,
2025-03-08 21:10:44.783,-0.1100,0.4500,9.4800,0.0625,0.0000,-0.0625,0.0224,0.0025,-0.0488,0.9986,
2025-03-08 21:10:44.791,-0.1100,0.4400,9.5000,-0.0625,0.0000,-0.0625,0.0224,0.0025,-0.0488,0.9986,
2025-03-08 21:10:44.800,-0.1000,0.4800,9.5000,-0.0625,0.0000,-0.0625,0.0224,0.0025,-0.0488,0.9986,
2025-03-08 21:10:44.810,-0.1200,0.4500,9.4900,0.0000,0.0625,0.0000,0.0224,0.0025,-0.0488,0.9986,
2025-03-08 21:10:44.833,-0.1100,0.4500,9.5100,0.0000,-0.0625,0.0000,0.0224,0.0025,-0.0488,0.9986,
2025-03-08 21:10:44.839,-0.1100,0.4800,9.4800,0.1250,-0.0625,0.0000,0.0224,0.0025,-0.0488,0.9986,
2025-03-08 21:10:44.843,-0.1000,0.4300,9.5100,0.0625,0.0000,-0.0625,0.0224,0.0025,-0.0488,0.9986,
2025-03-08 21:10:44.850,-0.1200,0.4700,9.4800,0.0000,0.1875,-0.1250,0.0224,0.0025,-0.0488,0.9986,
2025-03-08 21:10:44.867,-0.1000,0.4800,9.5000,0.0000,0.0000,-0.1250,0.0224,0.0025,-0.0488,0.9986,
2025-03-08 21:10:44.879,-0.1200,0.4700,9.4800,0.0000,0.0000,-0.0625,0.0224,0.0025,-0.0488,0.9986,
2025-03-08 21:10:44.881,-0.1200,0.4600,9.4800,0.0000,0.0000,-0.0625,0.0224,0.0025,-0.0488,0.9986,
2025-03-08 21:10:44.892,-0.1200,0.4600,9.4800,0.0000,-0.0625,0.0000,0.0224,0.0025,-0.0488,0.9986,
2025-03-08 21:10:44.901,-0.1100,0.4500,9.4800,0.0000,0.0000,-0.1250,0.0224,0.0025,-0.0488,0.9986,
2025-03-08 21:10:44.926,-0.0900,0.4500,9.4900,-0.0625,-0.0625,-0.0625,0.0224,0.0025,-0.0488,0.9986,
2025-03-08 21:10:44.948,-0.1100,0.4600,9.5000,-0.1250,0.0000,-0.0625,0.0224,0.0025,-0.0488,0.9986,
2025-03-08 21:10:44.948,-0.1100,0.4800,9.5000,-0.1250,-0.1250,-0.1250,0.0224,0.0025,-0.0488,0.9986,
2025-03-08 21:10:44.948,-0.1100,0.4600,9.4900,0.0000,-0.1250,-0.0625,0.0224,0.0025,-0.0488,0.9986,
2025-03-08 21:10:44.951,-0.1300,0.4700,9.5000,0.1875,-0.0625,-0.0625,0.0224,0.0025,-0.0488,0.9986,
2025-03-08 21:10:44.960,-0.1200,0.4600,9.5100,0.1250,-0.0625,-0.0625,0.0224,0.0025,-0.0488,0.9986,
2025-03-08 21:10:44.970,-0.1100,0.4500,9.4900,0.0625,-0.1250,-0.1250,0.0224,0.0025,-0.0488,0.9986,
2025-03-08 21:10:44.984,-0.0900,0.4800,9.5000,-0.1250,0.1875,-0.1875,0.0224,0.0025,-0.0488,0.9986,
2025-03-08 21:10:44.996,-0.1200,0.4600,9.4900,-0.0625,0.0625,-0.0625,0.0224,0.0025,-0.0488,0.9986,
2025-03-08 21:10:45.003,-0.1300,0.4700,9.5000,0.0000,0.0625,-0.0625,0.0224,0.0025,-0.0488,0.9986,
2025-03-08 21:10:45.010,-0.1200,0.4600,9.5200,0.0000,0.0625,-0.0625,0.0224,0.0025,-0.0488,0.9986,
2025-03-08 21:10:45.021,-0.1100,0.4800,9.5000,0.1250,0.0625,0.0000,0.0224,0.0025,-0.0488,0.9986,
2025-03-08 21:10:45.031,-0.1200,0.4700,9.4800,0.0000,-0.0625,-0.1875,0.0224,0.0025,-0.0488,0.9986,
2025-03-08 21:10:45.040,-0.1000,0.4700,9.5000,0.0000,0.0625,-0.1250,0.0224,0.0025,-0.0488,0.9986,
2025-03-08 21:10:45.051,-0.1100,0.4600,9.5000,0.1250,0.0625,-0.1250,0.0224,0.0025,-0.0488,0.9986,
2025-03-08 21:10:45.060,-0.1200,0.4500,9.4900,0.1250,0.0625,-0.1250,0.0224,0.0025,-0.0488,0.9986,
2025-03-08 21:10:45.071,-0.1100,0.4700,9.4900,0.1250,-0.1875,0.0000,0.0224,0.0025,-0.0488,0.9986,
2025-03-08 21:10:45.082,-0.1100,0.4500,9.5200,0.0000,0.0000,0.0000,0.0224,0.0025,-0.0488,0.9986,
2025-03-08 21:10:45.094,-0.1100,0.4700,9.5200,0.0625,0.0625,0.0000,0.0224,0.0025,-0.0488,0.9986,
2025-03-08 21:10:45.101,-0.1100,0.4800,9.5200,0.0000,-0.0625,0.0000,0.0224,0.0025,-0.0488,0.9986,
2025-03-08 21:10:45.116,-0.1100,0.4500,9.5300,0.0000,-0.0625,0.0000,0.0224,0.0025,-0.0488,0.9986,
2025-03-08 21:10:45.126,-0.1000,0.4500,9.4900,-0.1250,0.1250,-0.0625,0.0224,0.0025,-0.0488,0.9986,
2025-03-08 21:10:45.133,-0.1100,0.4500,9.5000,-0.0625,-0.0625,-0.0625,0.0224,0.0025,-0.0488,0.9986,
2025-03-08 21:10:45.141,-0.1100,0.4700,9.4800,0.0000,0.0625,0.0000,0.0224,0.0025,-0.0488,0.9986,
2025-03-08 21:10:45.155,-0.1000,0.4400,9.4900,0.0625,-0.0625,0.0000,0.0224,0.0025,-0.0488,0.9986,
2025-03-08 21:10:45.160,-0.1100,0.4600,9.5300,0.0625,-0.0625,0.0000,0.0224,0.0025,-0.0488,0.9986,
2025-03-08 21:10:45.172,-0.1100,0.4500,9.5200,-0.0625,-0.0625,0.0000,0.0224,0.0025,-0.0488,0.9986,
2025-03-08 21:10:45.179,-0.1100,0.4600,9.5100,0.1250,-0.1250,0.0625,0.0224,0.0025,-0.0488,0.9986,
2025-03-08 21:10:45.190,-0.0900,0.4500,9.5100,0.0000,0.1875,-0.0625,0.0224,0.0025,-0.0488,0.9986,
2025-03-08 21:10:45.200,-0.1100,0.4600,9.4900,0.0000,-0.1250,0.0000,0.0224,0.0025,-0.0488,0.9986,
2025-03-08 21:10:45.240,-0.1300,0.4700,9.5100,0.0000,-0.1250,0.0000,0.0224,0.0025,-0.0488,0.9986,
2025-03-08 21:10:45.249,-0.1100,0.4800,9.5200,0.0000,-0.1250,0.1250,0.0224,0.0025,-0.0488,0.9986,
2025-03-08 21:10:45.249,-0.1100,0.4600,9.5100,0.0625,-0.0625,0.0625,0.0224,0.0025,-0.0488,0.9986,
2025-03-08 21:10:45.249,-0.1100,0.4500,9.4800,0.0000,0.0000,0.0625,0.0224,0.0025,-0.0488,0.9986,
2025-03-08 21:10:45.251,-0.1300,0.4400,9.4800,0.0000,0.0000,0.0625,0.0224,0.0025,-0.0488,0.9986,
2025-03-08 21:10:45.251,-0.1100,0.4600,9.5000,-0.1875,-0.1250,0.1250,0.0224,0.0025,-0.0488,0.9986,
2025-03-08 21:10:45.273,-0.1100,0.4600,9.5200,0.0000,0.0000,-0.0625,0.0224,0.0025,-0.0488,0.9986,
2025-03-08 21:10:45.281,-0.1000,0.4500,9.5100,0.1250,-0.0625,0.0625,0.0224,0.0025,-0.0488,0.9986,
2025-03-08 21:10:45.292,-0.1200,0.4500,9.5000,-0.0625,0.0000,0.1250,0.0224,0.0025,-0.0488,0.9986,
2025-03-08 21:10:45.302,-0.1100,0.4500,9.5000,-0.0625,-0.1250,0.1250,0.0224,0.0025,-0.0488,0.9986,
2025-03-08 21:10:45.321,-0.1100,0.4700,9.5000,0.0625,0.0000,0.1250,0.0224,0.0025,-0.0488,0.9986,
2025-03-08 21:10:45.333,-0.0900,0.4800,9.5200,0.0000,0.1250,0.0000,0.0224,0.0025,-0.0488,0.9986,
2025-03-08 21:10:45.333,-0.1100,0.4700,9.5000,0.0000,0.0000,0.0625,0.0224,0.0025,-0.0488,0.9986,
2025-03-08 21:10:45.349,-0.1200,0.4700,9.5000,0.0625,0.0000,-0.1250,0.0224,0.0025,-0.0488,0.9986,
2025-03-08 21:10:45.373,-0.1000,0.4700,9.5100,0.0000,0.1250,-0.0625,0.0224,0.0025,-0.0488,0.9986,
2025-03-08 21:10:45.391,-0.1100,0.4800,9.5100,-0.1250,0.0625,-0.0625,0.0224,0.0025,-0.0488,0.9986,
2025-03-08 21:10:45.407,-0.1000,0.4700,9.4600,-0.0625,0.0625,0.0625,0.0224,0.0025,-0.0488,0.9986,
2025-03-08 21:10:45.426,-0.0900,0.4500,9.5100,0.0625,0.0000,0.0625,0.0224,0.0025,-0.0488,0.9986,
2025-03-08 21:10:45.442,-0.1200,0.4700,9.5200,0.0625,-0.0625,0.0625,0.0224,0.0025,-0.0488,0.9986,
2025-03-08 21:10:45.457,-0.1000,0.4600,9.5000,0.0625,0.0000,0.0000,0.0224,0.0025,-0.0488,0.9986,
2025-03-08 21:10:45.459,-0.1000,0.4800,9.5100,0.0000,-0.0625,-0.0625,0.0224,0.0025,-0.0488,0.9986,
2025-03-08 21:10:45.472,-0.1200,0.4600,9.5100,-0.0625,-0.0625,0.0625,0.0224,0.0025,-0.0488,0.9986,
2025-03-08 21:10:45.482,-0.0800,0.4700,9.4800,0.0000,0.1250,0.1250,0.0224,0.0025,-0.0488,0.9986,
2025-03-08 21:10:45.492,-0.1100,0.4700,9.4900,-0.0625,0.0000,0.0625,0.0224,0.0025,-0.0488,0.9986,
2025-03-08 21:10:45.501,-0.1100,0.4800,9.5000,0.0000,0.0000,0.0625,0.0224,0.0025,-0.0488,0.9986,
2025-03-08 21:10:45.541,-0.1100,0.4700,9.5100,0.0000,0.0625,0.0625,0.0224,0.0025,-0.0488,0.9986,
2025-03-08 21:10:45.544,-0.1200,0.4600,9.5000,0.0000,-0.0625,-0.0625,0.0224,0.0025,-0.0488,0.9986,
2025-03-08 21:10:45.544,-0.1100,0.4700,9.5100,0.0625,-0.1250,0.1875,0.0224,0.0025,-0.0488,0.9986,
2025-03-08 21:10:45.544,-0.1100,0.4500,9.4600,-0.1250,0.0625,0.0000,0.0224,0.0025,-0.0488,0.9986,
2025-03-08 21:10:45.551,-0.1100,0.4900,9.4900,0.0000,-0.0625,-0.0625,0.0224,0.0025,-0.0488,0.9986,
2025-03-08 21:10:45.561,-0.1100,0.4600,9.5000,0.0000,0.0625,0.0625,0.0224,0.0025,-0.0488,0.9986,
2025-03-08 21:10:45.570,-0.1100,0.4500,9.5200,-0.1250,0.1250,-0.1875,0.0224,0.0025,-0.0488,0.9986,
2025-03-08 21:10:45.581,-0.1000,0.4600,9.5000,0.0000,0.1250,-0.0625,0.0224,0.0025,-0.0488,0.9986,
2025-03-08 21:10:45.591,-0.1100,0.4700,9.4600,0.0625,0.0000,-0.1250,0.0224,0.0025,-0.0488,0.9986,
2025-03-08 21:10:45.601,-0.1100,0.4700,9.5000,0.0000,0.0000,-0.0625,0.0224,0.0025,-0.0488,0.9986,
2025-03-08 21:10:45.611,-0.1100,0.4600,9.5100,-0.0625,0.0625,-0.0625,0.0224,0.0025,-0.0488,0.9986,
2025-03-08 21:10:45.621,-0.1100,0.4800,9.5200,-0.0625,-0.1250,-0.0625,0.0224,0.0025,-0.0488,0.9986,
2025-03-08 21:10:45.636,-0.1300,0.4800,9.5200,-0.0625,-0.1250,0.0625,0.0224,0.0025,-0.0488,0.9986,
2025-03-08 21:10:45.641,-0.1000,0.4600,9.4900,-0.0625,0.0625,-0.0625,0.0224,0.0025,-0.0488,0.9986,
2025-03-08 21:10:45.650,-0.1100,0.4600,9.5000,0.0625,-0.0625,0.0000,0.0224,0.0025,-0.0488,0.9986,
2025-03-08 21:10:45.663,-0.1400,0.4800,9.5000,-0.0625,0.2500,0.0000,0.0224,0.0025,-0.0488,0.9986,
2025-03-08 21:10:45.669,-0.1100,0.4700,9.5200,0.0625,-0.0625,0.0000,0.0224,0.0025,-0.0488,0.9986,
2025-03-08 21:10:45.681,-0.1100,0.4600,9.5300,-0.1250,-0.0625,0.0625,0.0224,0.0025,-0.0488,0.9986,
2025-03-08 21:10:45.693,-0.0900,0.4400,9.5000,-0.0625,0.0000,0.1250,0.0224,0.0025,-0.0488,0.9986,
2025-03-08 21:10:45.701,-0.1100,0.4600,9.5100,0.0000,0.0000,0.1250,0.0224,0.0025,-0.0488,0.9986,
2025-03-08 21:10:45.713,-0.1000,0.4500,9.5100,0.0000,0.1250,0.0000,0.0224,0.0025,-0.0488,0.9986,
2025-03-08 21:10:45.720,-0.1200,0.4600,9.4900,0.0000,-0.0625,-0.0625,0.0224,0.0025,-0.0488,0.9986,
2025-03-08 21:10:45.729,-0.1200,0.4500,9.4800,0.1250,-0.0625,0.0625,0.0224,0.0025,-0.0488,0.9986,
2025-03-08 21:10:45.740,-0.1100,0.4600,9.5000,0.0625,-0.1250,0.0625,0.0224,0.0025,-0.0488,0.9986,
2025-03-08 21:10:45.750,-0.1000,0.4600,9.4900,0.1250,-0.1250,0.1250,0.0224,0.0025,-0.0488,0.9986,
2025-03-08 21:10:45.758,-0.1000,0.4900,9.5000,0.0000,0.1250,0.1250,0.0224,0.0025,-0.0488,0.9986,
2025-03-08 21:10:45.769,-0.1000,0.4700,9.5000,0.0000,0.1250,0.0000,0.0224,0.0025,-0.0488,0.9986,
2025-03-08 21:10:45.779,-0.1100,0.4500,9.4800,0.1250,-0.1250,0.1250,0.0224,0.0025,-0.0488,0.9986,
2025-03-08 21:10:45.789,-0.1100,0.4600,9.5000,0.0625,0.0000,0.0625,0.0224,0.0025,-0.0488,0.9986,
2025-03-08 21:10:45.800,-0.1200,0.4800,9.5100,-0.0625,0.0000,-0.0625,0.0224,0.0025,-0.0488,0.9986,
2025-03-08 21:10:45.843,-0.0900,0.4600,9.5100,-0.0625,0.0625,-0.0625,0.0224,0.0025,-0.0488,0.9986,
2025-03-08 21:10:45.846,-0.0900,0.4900,9.5000,-0.0625,0.0625,0.0000,0.0224,0.0025,-0.0488,0.9986,
2025-03-08 21:10:45.846,-0.1200,0.4700,9.4900,0.0000,-0.0625,-0.1250,0.0224,0.0025,-0.0488,0.9986,
2025-03-08 21:10:45.846,-0.0900,0.4600,9.5300,0.0000,-0.1875,0.0625,0.0224,0.0025,-0.0488,0.9986,
2025-03-08 21:10:45.849,-0.1100,0.4600,9.5200,-0.0625,-0.0625,0.0625,0.0224,0.0025,-0.0488,0.9986,
2025-03-08 21:10:45.859,-0.1100,0.4600,9.5100,0.0000,-0.1250,0.1250,0.0224,0.0025,-0.0488,0.9986,
2025-03-08 21:10:45.869,-0.1000,0.4500,9.5100,-0.0625,0.0000,0.0000,0.0224,0.0025,-0.0488,0.9986,
2025-03-08 21:10:45.880,-0.1100,0.4500,9.5000,-0.0625,-0.0625,0.0625,0.0224,0.0025,-0.0488,0.9986,
2025-03-08 21:10:45.889,-0.1400,0.4400,9.5000,-0.0625,-0.0625,0.0000,0.0224,0.0025,-0.0488,0.9986,
2025-03-08 21:10:45.903,-0.1100,0.4700,9.5100,0.0000,-0.1250,0.1250,0.0224,0.0025,-0.0488,0.9986,
2025-03-08 21:10:45.909,-0.1200,0.4700,9.5100,0.0625,0.0000,0.1250,0.0224,0.0025,-0.0488,0.9986,
2025-03-08 21:10:45.919,-0.1100,0.4500,9.5100,0.0000,0.0625,0.1250,0.0224,0.0025,-0.0488,0.9986,
2025-03-08 21:10:45.929,-0.0900,0.4500,9.5000,0.0625,0.0000,-0.1250,0.0224,0.0025,-0.0488,0.9986,
2025-03-08 21:10:45.939,-0.1100,0.4500,9.4700,0.0625,0.0000,-0.1250,0.0224,0.0025,-0.0488,0.9986,
2025-03-08 21:10:45.949,-0.1100,0.4600,9.5100,0.0625,0.0000,0.1250,0.0224,0.0025,-0.0488,0.9986,
2025-03-08 21:10:45.960,-0.1000,0.4500,9.5100,0.0625,0.0000,-0.1250,0.0224,0.0025,-0.0488,0.9986,
2025-03-08 21:10:45.971,-0.1200,0.4700,9.5400,0.0625,0.0000,0.1250,0.0224,0.0025,-0.0488,0.9986,
2025-03-08 21:10:45.979,-0.1200,0.4700,9.4900,-0.0625,0.0625,-0.0625,0.0224,0.0025,-0.0488,0.9986,
2025-03-08 21:10:45.988,-0.1100,0.4400,9.4900,-0.0625,-0.1875,0.0625,0.0224,0.0025,-0.0488,0.9986,
2025-03-08 21:10:46.005,-0.1000,0.4500,9.4900,0.1250,-0.1875,0.0000,0.0224,0.0025,-0.0488,0.9986,
2025-03-08 21:10:46.013,-0.1200,0.4800,9.5000,0.0625,0.0625,0.1250,0.0224,0.0025,-0.0488,0.9986,
2025-03-08 21:10:46.020,-0.1100,0.4800,9.5400,0.0000,-0.0625,0.0000,0.0224,0.0025,-0.0488,0.9986,
2025-03-08 21:10:46.029,-0.1100,0.4700,9.5200,0.0000,0.0000,0.0000,0.0224,0.0025,-0.0488,0.9986,
2025-03-08 21:10:46.038,-0.0800,0.4500,9.4800,-0.0625,0.0625,-0.0625,0.0224,0.0025,-0.0488,0.9986,
2025-03-08 21:10:46.049,-0.1200,0.4700,9.5000,0.0000,0.0000,0.0000,0.0224,0.0025,-0.0488,0.9986,
2025-03-08 21:10:46.059,-0.1100,0.4500,9.5100,-0.0625,0.0625,-0.0625,0.0224,0.0025,-0.0488,0.9986,
2025-03-08 21:10:46.071,-0.1100,0.4600,9.5100,0.0000,0.0625,0.0625,0.0224,0.0025,-0.0488,0.9986,
2025-03-08 21:10:46.080,-0.1300,0.4600,9.5200,-0.0625,0.2500,0.0000,0.0224,0.0025,-0.0488,0.9986,
2025-03-08 21:10:46.089,-0.1100,0.4700,9.4800,0.0000,0.0000,-0.0625,0.0224,0.0025,-0.0488,0.9986,
2025-03-08 21:10:46.185,-0.1100,0.4800,9.4900,0.0000,-0.1250,0.0000,0.0224,0.0025,-0.0488,0.9986,
2025-03-08 21:10:46.185,-0.1200,0.4700,9.5200,-0.0625,0.0625,0.0000,0.0224,0.0025,-0.0488,0.9986,
2025-03-08 21:10:46.185,-0.1100,0.4900,9.5300,-0.0625,0.0625,0.0000,0.0224,0.0025,-0.0488,0.9986,
2025-03-08 21:10:46.186,-0.1200,0.4800,9.5100,0.0625,-0.0625,0.0625,0.0224,0.0025,-0.0488,0.9986,
2025-03-08 21:10:46.186,-0.1100,0.4700,9.4900,0.0000,0.0000,0.1250,0.0224,0.0025,-0.0488,0.9986,
2025-03-08 21:10:46.186,-0.1100,0.4800,9.5000,-0.0625,0.0625,-0.0625,0.0224,0.0025,-0.0488,0.9986,
2025-03-08 21:10:46.186,-0.1200,0.4400,9.4800,0.0000,0.0000,0.0625,0.0224,0.0025,-0.0488,0.9986,
2025-03-08 21:10:46.186,-0.1000,0.4700,9.5200,-0.0625,0.0625,-0.0625,0.0224,0.0025,-0.0488,0.9986,
2025-03-08 21:10:46.186,-0.1200,0.4600,9.5100,0.0000,0.1250,-0.1250,0.0224,0.0025,-0.0488,0.9986,
2025-03-08 21:10:46.189,-0.1100,0.4700,9.4900,0.0000,0.0000,0.0000,0.0224,0.0025,-0.0488,0.9986,
2025-03-08 21:10:46.202,-0.1100,0.4700,9.5000,0.0000,-0.1875,0.1250,0.0224,0.0025,-0.0488,0.9986,
2025-03-08 21:10:46.209,-0.1100,0.4700,9.5200,0.0000,0.0625,0.0000,0.0224,0.0025,-0.0488,0.9986,
2025-03-08 21:10:46.219,-0.1100,0.4700,9.5100,-0.0625,0.0625,0.0625,0.0224,0.0025,-0.0488,0.9986,
2025-03-08 21:10:46.232,-0.1100,0.4700,9.4800,-0.0625,-0.0625,0.0625,0.0224,0.0025,-0.0488,0.9986,
2025-03-08 21:10:46.242,-0.1100,0.4800,9.4800,-0.1250,0.0625,0.0625,0.0224,0.0025,-0.0488,0.9986,
2025-03-08 21:10:46.249,-0.1200,0.4700,9.5000,0.0000,0.0000,-0.0625,0.0224,0.0025,-0.0488,0.9986,
2025-03-08 21:10:46.261,-0.1100,0.4500,9.5000,0.0000,0.0000,0.0000,0.0224,0.0025,-0.0488,0.9986,
2025-03-08 21:10:46.271,-0.1200,0.4700,9.5100,-0.0625,-0.1875,0.0000,0.0224,0.0025,-0.0488,0.9986,
2025-03-08 21:10:46.284,-0.1200,0.4600,9.5000,0.0000,0.0000,0.0000,0.0224,0.0025,-0.0488,0.9986,
2025-03-08 21:10:46.290,-0.1000,0.4600,9.4800,0.0000,0.1875,0.1875,0.0224,0.0025,-0.0488,0.9986,
2025-03-08 21:10:46.299,-0.1100,0.4600,9.4800,0.0000,0.0000,-0.0625,0.0224,0.0025,-0.0488,0.9986,
2025-03-08 21:10:46.321,-0.1000,0.4600,9.5000,0.1250,0.0625,0.1250,0.0224,0.0025,-0.0488,0.9986,
2025-03-08 21:10:46.321,-0.1100,0.4600,9.5200,0.0625,-0.0625,0.1250,0.0224,0.0025,-0.0488,0.9986,
2025-03-08 21:10:46.330,-0.1100,0.4700,9.4900,-0.1250,-0.0625,0.0625,0.0224,0.0025,-0.0488,0.9986,
2025-03-08 21:10:46.339,-0.1100,0.4500,9.4800,0.1875,0.0625,0.0000,0.0224,0.0025,-0.0488,0.9986,
2025-03-08 21:10:46.349,-0.1100,0.4500,9.4800,-0.0625,-0.1250,0.0625,0.0224,0.0025,-0.0488,0.9986,
2025-03-08 21:10:46.352,-0.1000,0.4500,9.5000,0.0000,-0.1250,0.0000,0.0224,0.0025,-0.0488,0.9986,
2025-03-08 21:10:46.361,-0.1100,0.4700,9.5000,-0.0625,0.1250,0.0000,0.0224,0.0025,-0.0488,0.9986,
2025-03-08 21:10:46.381,-0.0900,0.4600,9.5100,-0.1250,-0.0625,0.0000,0.0224,0.0025,-0.0488,0.9986,
2025-03-08 21:10:46.381,-0.1200,0.4700,9.4700,0.0625,0.0000,0.0000,0.0224,0.0025,-0.0488,0.9986,
2025-03-08 21:10:46.402,-0.1200,0.4500,9.5300,-0.0625,0.0625,0.0000,0.0224,0.0025,-0.0488,0.9986,
2025-03-08 21:10:46.445,-0.1100,0.4500,9.5200,0.0625,-0.1250,0.1250,0.0224,0.0025,-0.0488,0.9986,
2025-03-08 21:10:46.445,-0.1300,0.4600,9.4900,0.0625,0.0625,-0.0625,0.0224,0.0025,-0.0488,0.9986,
2025-03-08 21:10:46.445,-0.1100,0.4500,9.5000,0.0000,0.0000,0.0625,0.0224,0.0025,-0.0488,0.9986,
2025-03-08 21:10:46.445,-0.1000,0.4700,9.4900,-0.0625,0.0625,-0.1250,0.0224,0.0025,-0.0488,0.9986,
2025-03-08 21:10:46.445,-0.1100,0.4500,9.4900,0.0625,0.1250,0.0000,0.0224,0.0025,-0.0488,0.9986,
2025-03-08 21:10:46.453,-0.1200,0.4700,9.5000,0.0000,0.0000,-0.0625,0.0224,0.0025,-0.0488,0.9986,
2025-03-08 21:10:46.469,-0.0900,0.4900,9.4800,-0.2500,0.0000,0.0000,0.0224,0.0025,-0.0488,0.9986,
2025-03-08 21:10:46.480,-0.1100,0.4500,9.5100,-0.0625,0.0000,0.0000,0.0224,0.0025,-0.0488,0.9986,
2025-03-08 21:10:46.490,-0.1000,0.4600,9.5000,0.0000,0.0000,0.1250,0.0224,0.0025,-0.0488,0.9986,
2025-03-08 21:10:46.500,-0.1000,0.4700,9.5100,0.0000,-0.1250,-0.0625,0.0224,0.0025,-0.0488,0.9986,
2025-03-08 21:10:46.515,-0.1100,0.4700,9.4900,-0.0625,0.1250,0.0625,0.0224,0.0025,-0.0488,0.9986,
2025-03-08 21:10:46.521,-0.1100,0.4500,9.5000,0.0625,-0.0625,0.0000,0.0224,0.0025,-0.0488,0.9986,
2025-03-08 21:10:46.538,-0.1000,0.4600,9.5100,0.0625,-0.0625,-0.0625,0.0224,0.0025,-0.0488,0.9986,
2025-03-08 21:10:46.541,-0.1000,0.4700,9.5000,-0.0625,0.0000,-0.0625,0.0224,0.0025,-0.0488,0.9986,
2025-03-08 21:10:46.562,-0.1200,0.4600,9.4900,0.0000,0.1250,0.1250,0.0224,0.0025,-0.0488,0.9986,
2025-03-08 21:10:46.582,-0.1100,0.4700,9.4700,-0.0625,0.0625,0.0000,0.0224,0.0025,-0.0488,0.9986,
2025-03-08 21:10:46.582,-0.1100,0.4700,9.4700,0.1875,0.1250,0.0625,0.0224,0.0025,-0.0488,0.9986,
2025-03-08 21:10:46.582,-0.1100,0.4700,9.4700,0.0000,0.0625,0.0000,0.0224,0.0025,-0.0488,0.9986,
2025-03-08 21:10:46.590,-0.1100,0.4700,9.4700,-0.0625,-0.0625,-0.1250,0.0224,0.0025,-0.0488,0.9986,
2025-03-08 21:10:46.600,-0.1100,0.4500,9.4900,0.0000,0.0625,0.0000,0.0224,0.0025,-0.0488,0.9986,
2025-03-08 21:10:46.610,-0.1200,0.4800,9.5000,-0.0625,-0.0625,0.0625,0.0224,0.0025,-0.0488,0.9986,
2025-03-08 21:10:46.621,-0.1200,0.4800,9.4900,0.0625,0.0000,0.1250,0.0224,0.0025,-0.0488,0.9986,
2025-03-08 21:10:46.630,-0.1000,0.4600,9.5300,0.1875,-0.0625,0.0000,0.0224,0.0025,-0.0488,0.9986,
2025-03-08 21:10:46.641,-0.1100,0.4800,9.5100,-0.0625,-0.0625,0.0625,0.0224,0.0025,-0.0488,0.9986,
2025-03-08 21:10:46.651,-0.1100,0.4700,9.4800,-0.1250,0.1875,-0.1250,0.0224,0.0025,-0.0488,0.9986,
2025-03-08 21:10:46.667,-0.1100,0.4600,9.5200,0.0000,-0.1875,0.0625,0.0224,0.0025,-0.0488,0.9986,
2025-03-08 21:10:46.670,-0.0900,0.4700,9.5100,0.0000,-0.1875,0.1250,0.0224,0.0025,-0.0488,0.9986,
2025-03-08 21:10:46.682,-0.1300,0.4900,9.5000,0.0000,0.0000,-0.0625,0.0224,0.0025,-0.0488,0.9986,
2025-03-08 21:10:46.697,-0.1300,0.4600,9.4900,-0.0625,-0.0625,0.0000,0.0224,0.0025,-0.0488,0.9986,
2025-03-08 21:10:46.700,-0.1100,0.4500,9.4800,0.0625,0.1250,-0.0625,0.0224,0.0025,-0.0488,0.9986,
2025-03-08 21:10:46.749,-0.1000,0.4700,9.5000,0.0000,-0.1250,0.0000,0.0224,0.0025,-0.0488,0.9986,
2025-03-08 21:10:46.754,-0.1100,0.4700,9.4900,0.0000,-0.1250,0.0000,0.0224,0.0025,-0.0488,0.9986,
2025-03-08 21:10:46.755,-0.1100,0.4900,9.4700,-0.0625,0.0625,0.0000,0.0224,0.0025,-0.0488,0.9986,
2025-03-08 21:10:46.755,-0.1100,0.4700,9.5100,0.0000,0.0625,0.0625,0.0224,0.0025,-0.0488,0.9986,
2025-03-08 21:10:46.755,-0.1100,0.4900,9.4800,-0.1250,0.0000,-0.0625,0.0224,0.0025,-0.0488,0.9986,
2025-03-08 21:10:46.762,-0.1000,0.4600,9.5000,0.0000,0.0000,0.0625,0.0224,0.0025,-0.0488,0.9986,
2025-03-08 21:10:46.773,-0.0900,0.4700,9.4900,0.0000,0.0000,0.0625,0.0224,0.0025,-0.0488,0.9986,
2025-03-08 21:10:46.781,-0.1100,0.4600,9.5000,-0.0625,0.1250,0.0000,0.0224,0.0025,-0.0488,0.9986,
2025-03-08 21:10:46.792,-0.1000,0.4800,9.5100,0.0000,0.0000,0.0000,0.0224,0.0025,-0.0488,0.9986,
2025-03-08 21:10:46.801,-0.1100,0.4600,9.4900,0.0000,0.0000,0.0625,0.0224,0.0025,-0.0488,0.9986,
2025-03-08 21:10:46.811,-0.1000,0.4800,9.5100,-0.0625,0.0000,0.0625,0.0224,0.0025,-0.0488,0.9986,
2025-03-08 21:10:46.820,-0.1100,0.4700,9.5000,-0.0625,0.0000,0.0625,0.0224,0.0025,-0.0488,0.9986,
2025-03-08 21:10:46.834,-0.1100,0.4500,9.5200,-0.1875,0.1875,0.1250,0.0224,0.0025,-0.0488,0.9986,
2025-03-08 21:10:46.838,-0.1100,0.4600,9.5000,0.1250,0.0625,-0.0625,0.0224,0.0025,-0.0488,0.9986,
2025-03-08 21:10:46.853,-0.1100,0.4600,9.4600,0.1250,-0.0625,0.0625,0.0224,0.0025,-0.0488,0.9986,
2025-03-08 21:10:46.853,-0.1100,0.4500,9.4900,0.0625,0.0000,0.0625,0.0224,0.0025,-0.0488,0.9986,
2025-03-08 21:10:46.863,-0.1000,0.4600,9.5000,0.0625,0.0000,0.0625,0.0224,0.0025,-0.0488,0.9986,
2025-03-08 21:10:46.878,-0.1100,0.4600,9.5000,-0.0625,0.0625,0.0000,0.0224,0.0025,-0.0488,0.9986,
2025-03-08 21:10:46.893,-0.1000,0.4500,9.4800,0.0625,0.0625,-0.1250,0.0224,0.0025,-0.0488,0.9986,
2025-03-08 21:10:46.899,-0.1100,0.4700,9.4900,0.0000,0.0625,0.0625,0.0224,0.0025,-0.0488,0.9986,
2025-03-08 21:10:46.903,-0.1100,0.4800,9.5000,-0.0625,0.0625,0.0625,0.0224,0.0025,-0.0488,0.9986,
2025-03-08 21:10:46.923,-0.1100,0.4500,9.5100,-0.0625,0.0625,0.0625,0.0224,0.0025,-0.0488,0.9986,
2025-03-08 21:10:46.923,-0.1100,0.4800,9.4900,0.0625,-0.0625,-0.0625,0.0224,0.0025,-0.0488,0.9986,
2025-03-08 21:10:46.934,-0.1100,0.4600,9.5000,0.0000,-0.1250,-0.0625,0.0224,0.0025,-0.0488,0.9986,
2025-03-08 21:10:46.954,-0.1100,0.4600,9.5000,-0.0625,-0.0625,0.0000,0.0224,0.0025,-0.0488,0.9986,
2025-03-08 21:10:46.964,-0.1000,0.4500,9.4800,0.0625,-0.0625,-0.0625,0.0224,0.0025,-0.0488,0.9986,
2025-03-08 21:10:46.984,-0.1100,0.4600,9.5100,0.0000,0.0000,-0.0625,0.0224,0.0025,-0.0488,0.9986,
2025-03-08 21:10:46.994,-0.1100,0.4500,9.4900,0.0625,-0.0625,0.0625,0.0224,0.0025,-0.0488,0.9986,
2025-03-08 21:10:46.994,-0.1000,0.4600,9.4800,0.1250,0.0625,0.0625,0.0224,0.0025,-0.0488,0.9986,
2025-03-08 21:10:47.046,-0.1100,0.4700,9.5000,-0.0625,0.0000,0.0000,0.0224,0.0025,-0.0488,0.9986,
2025-03-08 21:10:47.046,-0.1200,0.4600,9.5000,0.0000,0.0000,-0.0625,0.0224,0.0025,-0.0488,0.9986,
2025-03-08 21:10:47.046,-0.1100,0.4800,9.5100,0.0000,0.0000,-0.0625,0.0224,0.0025,-0.0488,0.9986,
2025-03-08 21:10:47.046,-0.1000,0.4700,9.4900,-0.0625,-0.0625,0.0625,0.0224,0.0025,-0.0488,0.9986,
2025-03-08 21:10:47.055,-0.1100,0.4800,9.5000,0.1250,-0.1250,0.1250,0.0224,0.0025,-0.0488,0.9986,
2025-03-08 21:10:47.076,-0.0900,0.4500,9.4800,0.1875,-0.0625,0.0625,0.0224,0.0025,-0.0488,0.9986,
2025-03-08 21:10:47.085,-0.1000,0.4600,9.4900,-0.0625,-0.0625,0.0000,0.0224,0.0025,-0.0488,0.9986,
2025-03-08 21:10:47.106,-0.1100,0.4700,9.4800,0.0000,0.0000,0.0625,0.0224,0.0025,-0.0488,0.9986,
2025-03-08 21:10:47.116,-0.0900,0.4500,9.5100,0.0625,0.0625,-0.1250,0.0224,0.0025,-0.0488,0.9986,
2025-03-08 21:10:47.136,-0.1100,0.4700,9.5200,-0.1250,0.0625,-0.0625,0.0224,0.0025,-0.0488,0.9986,
2025-03-08 21:10:47.136,-0.1100,0.4800,9.5000,-0.0625,-0.1250,0.0000,0.0224,0.0025,-0.0488,0.9986,
2025-03-08 21:10:47.158,-0.1300,0.4500,9.5100,-0.1250,0.0625,-0.0625,0.0224,0.0025,-0.0488,0.9986,
2025-03-08 21:10:47.167,-0.1100,0.4700,9.4800,0.0625,0.0000,0.0625,0.0224,0.0025,-0.0488,0.9986,
2025-03-08 21:10:47.176,-0.1000,0.4900,9.4900,-0.0625,0.0000,-0.0625,0.0224,0.0025,-0.0488,0.9986,
2025-03-08 21:10:47.187,-0.1200,0.4600,9.5000,0.0000,0.1250,0.0000,0.0224,0.0025,-0.0488,0.9986,
2025-03-08 21:10:47.198,-0.1000,0.4700,9.4900,-0.0625,0.0000,0.0000,0.0224,0.0025,-0.0488,0.9986,
2025-03-08 21:10:47.207,-0.1100,0.4700,9.4900,-0.1250,0.1250,0.0000,0.0224,0.0025,-0.0488,0.9986,
2025-03-08 21:10:47.217,-0.1100,0.4500,9.5000,0.0000,0.1250,0.0000,0.0224,0.0025,-0.0488,0.9986,
2025-03-08 21:10:47.227,-0.1000,0.4800,9.5000,-0.1250,-0.0625,0.0000,0.0224,0.0025,-0.0488,0.9986,
2025-03-08 21:10:47.238,-0.1100,0.4600,9.4900,0.0625,0.0625,0.0000,0.0224,0.0025,-0.0488,0.9986,
2025-03-08 21:10:47.249,-0.1000,0.4700,9.4800,-0.1250,-0.0625,0.0625,0.0224,0.0025,-0.0488,0.9986,
2025-03-08 21:10:47.260,-0.0900,0.4500,9.4800,0.0000,0.0000,-0.0625,0.0224,0.0025,-0.0488,0.9986,
2025-03-08 21:10:47.269,-0.1200,0.4500,9.5100,-0.0625,0.0625,-0.0625,0.0224,0.0025,-0.0488,0.9986,
2025-03-08 21:10:47.280,-0.1100,0.4800,9.4800,0.0625,0.0000,0.1875,0.0224,0.0025,-0.0488,0.9986,
2025-03-08 21:10:47.290,-0.1100,0.4800,9.5100,-0.0625,0.1250,0.1250,0.0224,0.0025,-0.0488,0.9986,
2025-03-08 21:10:47.300,-0.1100,0.4700,9.5000,0.0000,0.0000,0.1250,0.0224,0.0025,-0.0488,0.9986,
2025-03-08 21:10:47.341,-0.0900,0.4700,9.5100,0.0000,0.0625,-0.0625,0.0224,0.0025,-0.0488,0.9986,
2025-03-08 21:10:47.342,-0.1100,0.4700,9.5000,-0.0625,0.0000,0.0000,0.0224,0.0025,-0.0488,0.9986,
2025-03-08 21:10:47.342,-0.1100,0.4600,9.5000,0.0000,-0.0625,0.0625,0.0224,0.0025,-0.0488,0.9986,
2025-03-08 21:10:47.342,-0.1100,0.4600,9.5000,0.0000,-0.1250,0.0625,0.0224,0.0025,-0.0488,0.9986,
2025-03-08 21:10:47.347,-0.1100,0.4800,9.4800,0.0625,0.0625,0.0000,0.0224,0.0025,-0.0488,0.9986,
2025-03-08 21:10:47.361,-0.1000,0.4600,9.5000,0.0000,0.0000,0.1250,0.0224,0.0025,-0.0488,0.9986,
2025-03-08 21:10:47.361,-0.1200,0.4600,9.5000,0.0000,-0.0625,0.0625,0.0224,0.0025,-0.0488,0.9986,
2025-03-08 21:10:47.381,-0.1000,0.4700,9.4900,-0.0625,-0.1250,0.1250,0.0224,0.0025,-0.0488,0.9986,
2025-03-08 21:10:47.381,-0.1100,0.4600,9.5000,0.0625,0.0625,0.1250,0.0224,0.0025,-0.0488,0.9986,
2025-03-08 21:10:47.411,-0.1200,0.4600,9.4700,-0.0625,-0.1250,0.0625,0.0224,0.0025,-0.0488,0.9986,
2025-03-08 21:10:47.421,-0.1100,0.4700,9.5200,-0.0625,0.0625,0.0625,0.0224,0.0025,-0.0488,0.9986,
2025-03-08 21:10:47.421,-0.1100,0.4600,9.5100,-0.1250,0.0625,-0.0625,0.0224,0.0025,-0.0488,0.9986,
2025-03-08 21:10:47.432,-0.1200,0.4800,9.5100,-0.1250,0.0625,-0.0625,0.0224,0.0025,-0.0488,0.9986,
2025-03-08 21:10:47.432,-0.1100,0.4700,9.4900,0.0000,0.0000,0.0000,0.0224,0.0025,-0.0488,0.9986,
2025-03-08 21:10:47.442,-0.1200,0.4700,9.5000,-0.1875,0.1250,0.0625,0.0224,0.0025,-0.0488,0.9986,
2025-03-08 21:10:47.462,-0.1000,0.4600,9.5000,-0.1250,-0.0625,0.0625,0.0224,0.0025,-0.0488,0.9986,
2025-03-08 21:10:47.462,-0.1100,0.4700,9.5200,0.0000,-0.0625,0.1250,0.0224,0.0025,-0.0488,0.9986,
2025-03-08 21:10:47.472,-0.1100,0.4800,9.5000,0.0000,0.0000,0.1250,0.0224,0.0025,-0.0488,0.9986,
2025-03-08 21:10:47.482,-0.1100,0.4400,9.5300,-0.1250,0.1875,0.0000,0.0224,0.0025,-0.0488,0.9986,
2025-03-08 21:10:47.492,-0.1100,0.4800,9.5100,-0.0625,0.0625,0.0000,0.0224,0.0025,-0.0488,0.9986,
2025-03-08 21:10:47.502,-0.1100,0.4800,9.5500,0.0625,0.1875,-0.0625,0.0224,0.0025,-0.0488,0.9986,
2025-03-08 21:10:47.512,-0.1000,0.4600,9.5200,-0.0625,0.1250,0.0000,0.0224,0.0025,-0.0488,0.9986,
2025-03-08 21:10:47.522,-0.1100,0.4700,9.5100,0.0000,0.0000,0.1250,0.0224,0.0025,-0.0488,0.9986,
2025-03-08 21:10:47.532,-0.1300,0.4500,9.5100,0.1250,0.1250,-0.0625,0.0224,0.0025,-0.0488,0.9986,
2025-03-08 21:10:47.554,-0.0900,0.4600,9.5000,0.0000,-0.1250,-0.0625,0.0224,0.0025,-0.0488,0.9986,
2025-03-08 21:10:47.554,-0.1000,0.4700,9.4900,0.0000,0.0625,0.1875,0.0224,0.0025,-0.0488,0.9986,
2025-03-08 21:10:47.572,-0.1100,0.4500,9.5000,0.0625,0.0000,0.1250,0.0224,0.0025,-0.0488,0.9986,
2025-03-08 21:10:47.572,-0.1100,0.4800,9.5100,0.0000,-0.1250,0.1250,0.0224,0.0025,-0.0488,0.9986,
2025-03-08 21:10:47.582,-0.1100,0.4600,9.5000,-0.1250,-0.0625,-0.0625,0.0224,0.0025,-0.0488,0.9986,
2025-03-08 21:10:47.593,-0.1200,0.4300,9.5000,0.2500,0.0000,0.1250,0.0224,0.0025,-0.0488,0.9986,
2025-03-08 21:10:47.642,-0.0900,0.4700,9.4900,0.0000,-0.0625,0.2500,0.0224,0.0025,-0.0488,0.9986,
2025-03-08 21:10:47.642,-0.1100,0.4400,9.5100,-0.1250,-0.1250,0.0625,0.0224,0.0025,-0.0488,0.9986,
2025-03-08 21:10:47.642,-0.1200,0.4500,9.5300,-0.1875,-0.0625,-0.0625,0.0224,0.0025,-0.0488,0.9986,
2025-03-08 21:10:47.642,-0.0900,0.4600,9.5000,0.0000,-0.0625,0.0000,0.0224,0.0025,-0.0488,0.9986,
2025-03-08 21:10:47.642,-0.1200,0.4500,9.5000,0.0000,0.0625,0.0625,0.0224,0.0025,-0.0488,0.9986,
2025-03-08 21:10:47.763,-0.1100,0.4500,9.5100,0.0625,0.0625,0.0625,0.0224,0.0025,-0.0488,0.9986,
2025-03-08 21:10:47.763,-0.1100,0.4500,9.5000,0.0625,-0.0625,-0.0625,0.0224,0.0025,-0.0488,0.9986,
2025-03-08 21:10:47.763,-0.1200,0.4900,9.5100,0.0000,0.0000,0.0625,0.0224,0.0025,-0.0488,0.9986,
2025-03-08 21:10:47.763,-0.1300,0.4700,9.4900,0.1250,0.1250,0.0000,0.0224,0.0025,-0.0488,0.9986,
2025-03-08 21:10:47.763,-0.1200,0.4800,9.4900,0.0625,0.0000,0.0625,0.0224,0.0025,-0.0488,0.9986,
2025-03-08 21:10:47.763,-0.1100,0.4600,9.5000,-0.1250,0.0625,-0.1875,0.0224,0.0025,-0.0488,0.9986,
2025-03-08 21:10:47.763,-0.1000,0.4600,9.5000,0.0000,0.0625,-0.0625,0.0224,0.0025,-0.0488,0.9986,
2025-03-08 21:10:47.763,-0.1100,0.4500,9.5300,0.1875,-0.1250,0.0000,0.0224,0.0025,-0.0488,0.9986,
2025-03-08 21:10:47.763,-0.1100,0.4500,9.4900,-0.0625,-0.0625,-0.0625,0.0224,0.0025,-0.0488,0.9986,
2025-03-08 21:10:47.763,-0.1000,0.4500,9.4800,0.0625,0.0000,-0.0625,0.0224,0.0025,-0.0488,0.9986,
2025-03-08 21:10:47.763,-0.1100,0.4500,9.5100,0.0625,0.0000,-0.1875,0.0224,0.0025,-0.0488,0.9986,
2025-03-08 21:10:47.763,-0.1200,0.4600,9.5100,0.0625,-0.0625,0.0625,0.0224,0.0025,-0.0488,0.9986,
2025-03-08 21:10:47.783,-0.1200,0.4700,9.5300,-0.0625,-0.0625,-0.0625,0.0224,0.0025,-0.0488,0.9986,
2025-03-08 21:10:47.794,-0.1200,0.4500,9.5200,0.0000,0.0625,-0.0625,0.0224,0.0025,-0.0488,0.9986,
2025-03-08 21:10:47.804,-0.1200,0.4500,9.4600,-0.0625,0.0625,0.0000,0.0224,0.0025,-0.0488,0.9986,
2025-03-08 21:10:47.804,-0.1100,0.4400,9.5000,0.0625,-0.3125,0.0000,0.0224,0.0025,-0.0488,0.9986,
2025-03-08 21:10:47.814,-0.1100,0.4600,9.5100,-0.0625,0.0000,0.0000,0.0224,0.0025,-0.0488,0.9986,
2025-03-08 21:10:47.824,-0.1100,0.4600,9.5300,-0.0625,0.1250,0.0000,0.0224,0.0025,-0.0488,0.9986,
2025-03-08 21:10:47.834,-0.1100,0.4600,9.5200,0.0625,0.0000,-0.0625,0.0224,0.0025,-0.0488,0.9986,
2025-03-08 21:10:47.844,-0.1000,0.4500,9.4600,-0.0625,0.0000,0.0000,0.0224,0.0025,-0.0488,0.9986,
2025-03-08 21:10:47.855,-0.1100,0.4700,9.5000,-0.0625,0.1875,-0.1875,0.0224,0.0025,-0.0488,0.9986,
2025-03-08 21:10:47.868,-0.1200,0.4500,9.5100,0.0625,0.0000,0.0000,0.0224,0.0025,-0.0488,0.9986,
2025-03-08 21:10:47.884,-0.1000,0.4600,9.5000,0.2500,0.0625,-0.0625,0.0224,0.0025,-0.0488,0.9986,
2025-03-08 21:10:47.884,-0.1100,0.4500,9.5100,-0.0625,0.1250,-0.0625,0.0224,0.0025,-0.0488,0.9986,
2025-03-08 21:10:47.894,-0.1300,0.4500,9.5000,0.0000,-0.0625,0.1875,0.0224,0.0025,-0.0488,0.9986,
2025-03-08 21:10:47.946,-0.1100,0.4600,9.5000,-0.1250,0.0625,0.0000,0.0224,0.0025,-0.0488,0.9986,
2025-03-08 21:10:47.955,-0.1000,0.4600,9.5100,-0.0625,0.0625,-0.1250,0.0224,0.0025,-0.0488,0.9986,
2025-03-08 21:10:47.955,-0.1100,0.4700,9.5300,0.0000,0.0000,-0.1250,0.0224,0.0025,-0.0488,0.9986,
2025-03-08 21:10:47.955,-0.1200,0.4600,9.5200,-0.1250,-0.0625,0.0000,0.0224,0.0025,-0.0488,0.9986,
2025-03-08 21:10:47.955,-0.1000,0.4500,9.4800,0.0000,0.1250,0.0625,0.0224,0.0025,-0.0488,0.9986,
2025-03-08 21:10:47.955,-0.1100,0.4800,9.4800,-0.0625,0.0625,-0.0625,0.0224,0.0025,-0.0488,0.9986,
2025-03-08 21:10:47.965,-0.1300,0.4800,9.4900,0.0000,-0.0625,0.0000,0.0224,0.0025,-0.0488,0.9986,
2025-03-08 21:10:47.985,-0.1100,0.4900,9.5100,-0.2500,0.0000,-0.0625,0.0224,0.0025,-0.0488,0.9986,
2025-03-08 21:10:47.985,-0.1100,0.4600,9.4700,0.0000,-0.0625,-0.1250,0.0224,0.0025,-0.0488,0.9986,
2025-03-08 21:10:47.996,-0.1100,0.4800,9.4900,-0.1875,0.0000,0.0625,0.0224,0.0025,-0.0488,0.9986,
2025-03-08 21:10:48.007,-0.1100,0.4500,9.5000,0.0000,0.0000,0.0625,0.0224,0.0025,-0.0488,0.9986,
2025-03-08 21:10:48.016,-0.1100,0.4600,9.5200,0.1875,-0.0625,0.0625,0.0224,0.0025,-0.0488,0.9986,
2025-03-08 21:10:48.029,-0.1200,0.4500,9.5000,0.0000,0.0625,0.0000,0.0224,0.0025,-0.0488,0.9986,
2025-03-08 21:10:48.037,-0.1200,0.4600,9.5100,0.0000,0.0625,-0.1875,0.0224,0.0025,-0.0488,0.9986,
2025-03-08 21:10:48.048,-0.1200,0.4500,9.5000,0.0625,-0.0625,-0.0625,0.0224,0.0025,-0.0488,0.9986,
2025-03-08 21:10:48.058,-0.1100,0.4500,9.4900,0.0625,-0.1250,0.0625,0.0224,0.0025,-0.0488,0.9986,
2025-03-08 21:10:48.067,-0.1100,0.4700,9.5000,0.0000,0.0000,-0.1250,0.0224,0.0025,-0.0488,0.9986,
2025-03-08 21:10:48.078,-0.1100,0.4600,9.5100,-0.0625,0.0000,-0.1875,0.0224,0.0025,-0.0488,0.9986,
2025-03-08 21:10:48.091,-0.1100,0.4700,9.4900,-0.0625,0.0000,-0.0625,0.0224,0.0025,-0.0488,0.9986,
2025-03-08 21:10:48.097,-0.1200,0.4700,9.5000,-0.1250,0.1250,-0.0625,0.0224,0.0025,-0.0488,0.9986,
2025-03-08 21:10:48.108,-0.1100,0.4800,9.4800,0.0000,0.0625,0.0625,0.0224,0.0025,-0.0488,0.9986,
2025-03-08 21:10:48.118,-0.1000,0.4500,9.5200,-0.0625,0.1250,-0.1250,0.0224,0.0025,-0.0488,0.9986,
2025-03-08 21:10:48.129,-0.1100,0.4800,9.5100,0.0000,-0.1250,0.0000,0.0224,0.0025,-0.0488,0.9986,
2025-03-08 21:10:48.138,-0.1200,0.4500,9.5000,0.0000,-0.0625,-0.1250,0.0224,0.0025,-0.0488,0.9986,
2025-03-08 21:10:48.155,-0.1000,0.4500,9.4800,-0.0625,0.0625,-0.0625,0.0224,0.0025,-0.0488,0.9986,
2025-03-08 21:10:48.158,-0.1200,0.4600,9.5400,0.0000,0.0625,-0.1875,0.0224,0.0025,-0.0488,0.9986,
2025-03-08 21:10:48.168,-0.1100,0.4600,9.5200,-0.0625,-0.0625,-0.1250,0.0224,0.0025,-0.0488,0.9986,
2025-03-08 21:10:48.178,-0.1100,0.4400,9.5000,0.0000,0.0000,0.0000,0.0224,0.0025,-0.0488,0.9986,
2025-03-08 21:10:48.188,-0.0900,0.4800,9.4900,0.0625,-0.0625,0.1250,0.0224,0.0025,-0.0488,0.9986,
2025-03-08 21:10:48.198,-0.1000,0.4700,9.4900,-0.0625,0.0000,0.0625,0.0224,0.0025,-0.0488,0.9986,
2025-03-08 21:10:48.248,-0.1200,0.4700,9.4800,0.0000,0.1250,0.0000,0.0224,0.0025,-0.0488,0.9986,
2025-03-08 21:10:48.248,-0.1200,0.4700,9.4900,0.0625,0.1250,-0.0625,0.0224,0.0025,-0.0488,0.9986,
2025-03-08 21:10:48.255,-0.1000,0.4600,9.5300,0.0625,0.0625,-0.1250,0.0224,0.0025,-0.0488,0.9986,
2025-03-08 21:10:48.255,-0.1200,0.4600,9.5000,0.0000,-0.1875,0.0000,0.0224,0.0025,-0.0488,0.9986,
2025-03-08 21:10:48.255,-0.1000,0.4700,9.4900,0.0000,0.0625,0.1250,0.0224,0.0025,-0.0488,0.9986,
2025-03-08 21:10:48.258,-0.1100,0.4700,9.5200,0.0625,-0.0625,0.1250,0.0224,0.0025,-0.0488,0.9986,
2025-03-08 21:10:48.269,-0.1200,0.4600,9.5000,0.0625,0.0625,-0.0625,0.0224,0.0025,-0.0488,0.9986,
2025-03-08 21:10:48.278,-0.1100,0.4500,9.4900,0.0000,0.0000,0.0625,0.0224,0.0025,-0.0488,0.9986,
2025-03-08 21:10:48.289,-0.1100,0.4500,9.4900,-0.1875,0.0625,0.1250,0.0224,0.0025,-0.0488,0.9986,
2025-03-08 21:10:48.298,-0.1100,0.4900,9.5000,-0.1250,0.0625,0.0000,0.0224,0.0025,-0.0488,0.9986,
2025-03-08 21:10:48.310,-0.1100,0.4600,9.4600,-0.0625,0.0000,0.0000,0.0224,0.0025,-0.0488,0.9986,
2025-03-08 21:10:48.319,-0.1100,0.4500,9.5000,-0.1250,0.1250,0.0000,0.0224,0.0025,-0.0488,0.9986,
2025-03-08 21:10:48.329,-0.0900,0.4500,9.5000,0.0000,-0.0625,-0.0625,0.0224,0.0025,-0.0488,0.9986,
2025-03-08 21:10:48.339,-0.1100,0.5000,9.5000,0.0000,-0.1250,0.1250,0.0224,0.0025,-0.0488,0.9986,
2025-03-08 21:10:48.349,-0.1100,0.4800,9.5200,0.0000,0.1250,0.0000,0.0224,0.0025,-0.0488,0.9986,
2025-03-08 21:10:48.359,-0.1100,0.4600,9.5000,0.0000,0.0000,0.0000,0.0224,0.0025,-0.0488,0.9986,
2025-03-08 21:10:48.377,-0.1300,0.4600,9.5000,0.0625,-0.1250,0.0625,0.0224,0.0025,-0.0488,0.9986,
2025-03-08 21:10:48.380,-0.1200,0.4600,9.5000,0.0000,-0.0625,0.0000,0.0224,0.0025,-0.0488,0.9986,
2025-03-08 21:10:48.391,-0.1200,0.4900,9.5200,0.0625,0.0000,0.0625,0.0224,0.0025,-0.0488,0.9986,
2025-03-08 21:10:48.400,-0.1000,0.4800,9.5000,0.0625,0.0625,0.0625,0.0224,0.0025,-0.0488,0.9986,
2025-03-08 21:10:48.410,-0.1100,0.4700,9.5000,-0.0625,0.0625,-0.0625,0.0224,0.0025,-0.0488,0.9986,
2025-03-08 21:10:48.420,-0.1100,0.4600,9.5500,-0.0625,0.1250,0.0000,0.0224,0.0025,-0.0488,0.9986,
2025-03-08 21:10:48.430,-0.1100,0.4600,9.5000,-0.0625,0.1250,0.0000,0.0224,0.0025,-0.0488,0.9986,
2025-03-08 21:10:48.440,-0.1100,0.4600,9.5100,0.0000,0.0000,0.0625,0.0224,0.0025,-0.0488,0.9986,
2025-03-08 21:10:48.451,-0.1100,0.4600,9.4700,-0.1250,-0.0625,-0.0625,0.0224,0.0025,-0.0488,0.9986,
2025-03-08 21:10:48.461,-0.1100,0.4700,9.4800,-0.1875,0.1250,0.1250,0.0224,0.0025,-0.0488,0.9986,
2025-03-08 21:10:48.471,-0.1100,0.4700,9.4800,0.0625,0.1250,-0.0625,0.0224,0.0025,-0.0488,0.9986,
2025-03-08 21:10:48.481,-0.1100,0.4700,9.5000,0.0625,0.1250,-0.0625,0.0224,0.0025,-0.0488,0.9986,
2025-03-08 21:10:48.491,-0.1100,0.4800,9.5100,0.0000,0.0625,0.0000,0.0224,0.0025,-0.0488,0.9986,
2025-03-08 21:10:48.521,-0.1300,0.4500,9.5200,-0.0625,0.0625,-0.0625,0.0224,0.0025,-0.0488,0.9986,
2025-03-08 21:10:48.541,-0.1100,0.4600,9.5000,-0.1250,0.0000,0.0000,0.0224,0.0025,-0.0488,0.9986,
2025-03-08 21:10:48.541,-0.1200,0.4700,9.5100,0.0000,-0.1250,-0.1250,0.0224,0.0025,-0.0488,0.9986,
2025-03-08 21:10:48.541,-0.1200,0.4600,9.5000,0.0000,-0.1250,-0.1250,0.0224,0.0025,-0.0488,0.9986,
2025-03-08 21:10:48.541,-0.1200,0.4600,9.5100,-0.0625,0.0625,0.0625,0.0224,0.0025,-0.0488,0.9986,
2025-03-08 21:10:48.551,-0.1400,0.4600,9.4900,-0.0625,0.0625,0.0000,0.0224,0.0025,-0.0488,0.9986,
2025-03-08 21:10:48.564,-0.1200,0.4500,9.5000,-0.1250,0.0000,0.0000,0.0224,0.0025,-0.0488,0.9986,
2025-03-08 21:10:48.572,-0.1100,0.4500,9.4900,-0.0625,0.0000,0.0625,0.0224,0.0025,-0.0488,0.9986,
2025-03-08 21:10:48.582,-0.1200,0.4600,9.5000,-0.0625,0.0000,0.0625,0.0224,0.0025,-0.0488,0.9986,
2025-03-08 21:10:48.592,-0.1100,0.4900,9.5000,0.0625,-0.0625,-0.0625,0.0224,0.0025,-0.0488,0.9986,
2025-03-08 21:10:48.602,-0.1100,0.4800,9.5000,0.0000,-0.0625,0.1250,0.0224,0.0025,-0.0488,0.9986,
2025-03-08 21:10:48.603,-0.1200,0.4700,9.4800,0.0625,-0.0625,0.0000,0.0224,0.0025,-0.0488,0.9986,
2025-03-08 21:10:48.613,-0.1100,0.4700,9.5100,0.0000,0.0000,0.1250,0.0224,0.0025,-0.0488,0.9986,
2025-03-08 21:10:48.625,-0.1100,0.4800,9.5000,0.0000,0.0000,0.1250,0.0224,0.0025,-0.0488,0.9986,
2025-03-08 21:10:48.643,-0.1200,0.4600,9.5200,-0.0625,0.0625,-0.0625,0.0224,0.0025,-0.0488,0.9986,
2025-03-08 21:10:48.643,-0.1300,0.4600,9.4900,-0.0625,0.0625,0.0625,0.0224,0.0025,-0.0488,0.9986,
2025-03-08 21:10:48.673,-0.1000,0.4700,9.4900,-0.0625,0.0000,0.0625,0.0224,0.0025,-0.0488,0.9986,
2025-03-08 21:10:48.673,-0.1300,0.4600,9.5000,0.0000,0.0625,-0.1250,0.0224,0.0025,-0.0488,0.9986,
2025-03-08 21:10:48.673,-0.1100,0.4500,9.5100,-0.1250,0.1250,0.0625,0.0224,0.0025,-0.0488,0.9986,
2025-03-08 21:10:48.705,-0.1100,0.4800,9.5200,0.0000,0.1250,0.0000,0.0224,0.0025,-0.0488,0.9986,
2025-03-08 21:10:48.705,-0.1200,0.4600,9.5000,0.0625,0.0625,0.0000,0.0224,0.0025,-0.0488,0.9986,
2025-03-08 21:10:48.705,-0.1100,0.4600,9.4800,0.0625,0.0000,0.1250,0.0224,0.0025,-0.0488,0.9986,
2025-03-08 21:10:48.725,-0.1300,0.4700,9.5100,0.0000,-0.0625,0.0625,0.0224,0.0025,-0.0488,0.9986,
2025-03-08 21:10:48.725,-0.1100,0.4800,9.5000,0.0000,-0.1250,0.0625,0.0224,0.0025,-0.0488,0.9986,
2025-03-08 21:10:48.746,-0.1100,0.4600,9.5300,0.1875,-0.0625,0.0625,0.0224,0.0025,-0.0488,0.9986,
2025-03-08 21:10:48.755,-0.1200,0.4500,9.5100,0.0625,-0.1250,0.0000,0.0224,0.0025,-0.0488,0.9986,
2025-03-08 21:10:48.757,-0.1200,0.4600,9.4800,0.0625,-0.0625,0.0000,0.0224,0.0025,-0.0488,0.9986,
2025-03-08 21:10:48.775,-0.1100,0.4600,9.5000,0.0625,0.0000,0.1250,0.0224,0.0025,-0.0488,0.9986,
2025-03-08 21:10:48.795,-0.1000,0.4900,9.5100,-0.1250,0.0000,0.0625,0.0224,0.0025,-0.0488,0.9986,
2025-03-08 21:10:48.795,-0.1300,0.4800,9.5200,0.0625,-0.0625,0.1250,0.0224,0.0025,-0.0488,0.9986,
2025-03-08 21:10:48.836,-0.1000,0.4700,9.4800,0.0625,-0.0625,0.0000,0.0224,0.0025,-0.0488,0.9986,
2025-03-08 21:10:48.836,-0.1100,0.4700,9.5100,0.0000,-0.1250,0.0000,0.0224,0.0025,-0.0488,0.9986,
2025-03-08 21:10:48.846,-0.1300,0.4700,9.4800,0.0000,0.0000,0.0625,0.0224,0.0025,-0.0488,0.9986,
2025-03-08 21:10:48.846,-0.1100,0.4700,9.5200,0.0625,-0.1875,0.0000,0.0224,0.0025,-0.0488,0.9986,
2025-03-08 21:10:48.857,-0.1000,0.4900,9.4800,0.0000,-0.1250,0.1250,0.0224,0.0025,-0.0488,0.9986,
2025-03-08 21:10:48.867,-0.1200,0.4600,9.5000,0.0000,0.0625,0.0000,0.0224,0.0025,-0.0488,0.9986,
2025-03-08 21:10:48.876,-0.1000,0.4600,9.5100,0.0625,0.0000,0.0625,0.0224,0.0025,-0.0488,0.9986,
2025-03-08 21:10:48.895,-0.1000,0.4800,9.5100,0.1250,0.0000,0.0000,0.0224,0.0025,-0.0488,0.9986,
2025-03-08 21:10:48.896,-0.1000,0.4700,9.5200,0.0000,-0.0625,0.0000,0.0224,0.0025,-0.0488,0.9986,
2025-03-08 21:10:48.911,-0.1000,0.4600,9.5000,0.0625,-0.0625,0.0000,0.0224,0.0025,-0.0488,0.9986,
2025-03-08 21:10:48.916,-0.1100,0.4500,9.4900,0.0000,-0.0625,0.1250,0.0224,0.0025,-0.0488,0.9986,
2025-03-08 21:10:48.928,-0.0900,0.4800,9.5000,0.1250,-0.1250,-0.0625,0.0224,0.0025,-0.0488,0.9986,
2025-03-08 21:10:48.938,-0.1100,0.4600,9.5100,0.0625,0.0625,0.0000,0.0224,0.0025,-0.0488,0.9986,
2025-03-08 21:10:48.947,-0.1100,0.4800,9.4900,0.0000,-0.1250,0.0625,0.0224,0.0025,-0.0488,0.9986,
2025-03-08 21:10:48.959,-0.1100,0.4700,9.4900,-0.0625,0.0000,-0.0625,0.0224,0.0025,-0.0488,0.9986,
2025-03-08 21:10:48.968,-0.1300,0.4700,9.5000,0.1250,0.0625,-0.1250,0.0224,0.0025,-0.0488,0.9986,
2025-03-08 21:10:48.978,-0.1000,0.4600,9.5000,0.1250,-0.2500,0.1250,0.0224,0.0025,-0.0488,0.9986,
2025-03-08 21:10:48.988,-0.0900,0.4600,9.5200,0.0000,-0.0625,-0.0625,0.0224,0.0025,-0.0488,0.9986,
2025-03-08 21:10:48.998,-0.1100,0.4700,9.5000,0.1250,0.0000,0.0000,0.0224,0.0025,-0.0488,0.9986,
2025-03-08 21:10:49.008,-0.1000,0.4600,9.4900,0.0625,0.0000,0.0625,0.0224,0.0025,-0.0488,0.9986,
2025-03-08 21:10:49.018,-0.1000,0.4700,9.5000,0.0625,0.0000,0.1250,0.0224,0.0025,-0.0488,0.9986,
2025-03-08 21:10:49.028,-0.1000,0.4900,9.5100,0.0000,-0.0625,0.0000,0.0224,0.0025,-0.0488,0.9986,
2025-03-08 21:10:49.038,-0.1000,0.4500,9.5000,0.1250,-0.0625,0.0625,0.0224,0.0025,-0.0488,0.9986,
2025-03-08 21:10:49.048,-0.1100,0.4700,9.5000,0.0000,0.1250,0.1250,0.0224,0.0025,-0.0488,0.9986,
2025-03-08 21:10:49.058,-0.1100,0.4800,9.4800,0.0625,0.1875,0.0625,0.0224,0.0025,-0.0488,0.9986,
2025-03-08 21:10:49.068,-0.1100,0.4700,9.5100,0.0625,-0.1250,0.0000,0.0224,0.0025,-0.0488,0.9986,
2025-03-08 21:10:49.078,-0.1100,0.4600,9.5000,0.0000,0.0625,-0.1250,0.0224,0.0025,-0.0488,0.9986,
2025-03-08 21:10:49.088,-0.1100,0.4600,9.4900,0.0625,0.0625,-0.0625,0.0224,0.0025,-0.0488,0.9986,
2025-03-08 21:10:49.098,-0.1000,0.4700,9.5100,0.0000,0.0625,0.0000,0.0224,0.0025,-0.0488,0.9986,
2025-03-08 21:10:49.128,-0.1100,0.4700,9.4700,0.1875,-0.1250,0.0625,0.0224,0.0025,-0.0488,0.9986,
2025-03-08 21:10:49.138,-0.1100,0.4700,9.5000,0.0000,0.0625,-0.0625,0.0224,0.0025,-0.0488,0.9986,
2025-03-08 21:10:49.138,-0.1100,0.4700,9.5000,0.0625,-0.0625,0.0000,0.0224,0.0025,-0.0488,0.9986,
2025-03-08 21:10:49.148,-0.1100,0.4800,9.5100,0.0625,-0.2500,0.0625,0.0224,0.0025,-0.0488,0.9986,
2025-03-08 21:10:49.148,-0.1100,0.4800,9.5200,0.1875,0.0625,0.0625,0.0224,0.0025,-0.0488,0.9986,
2025-03-08 21:10:49.158,-0.1100,0.4600,9.5000,-0.0625,0.0000,0.0000,0.0224,0.0025,-0.0488,0.9986,
2025-03-08 21:10:49.178,-0.1100,0.4700,9.5000,0.1250,0.1250,-0.0625,0.0224,0.0025,-0.0488,0.9986,
2025-03-08 21:10:49.178,-0.1000,0.4600,9.5100,0.1250,0.0000,0.0625,0.0224,0.0025,-0.0488,0.9986,
2025-03-08 21:10:49.188,-0.1100,0.4700,9.4700,-0.0625,-0.1250,-0.1250,0.0224,0.0025,-0.0488,0.9986,
2025-03-08 21:10:49.198,-0.1100,0.4600,9.5300,-0.1250,0.1875,-0.1875,0.0224,0.0025,-0.0488,0.9986,
2025-03-08 21:10:49.208,-0.1200,0.4500,9.4800,-0.0625,-0.1250,-0.0625,0.0224,0.0025,-0.0488,0.9986,
2025-03-08 21:10:49.218,-0.1200,0.4700,9.4900,0.1250,-0.0625,0.0625,0.0224,0.0025,-0.0488,0.9986,
2025-03-08 21:10:49.228,-0.1200,0.4400,9.5100,0.0000,-0.0625,0.0625,0.0224,0.0025,-0.0488,0.9986,
2025-03-08 21:10:49.238,-0.1000,0.4500,9.5100,-0.1250,-0.1250,0.0000,0.0224,0.0025,-0.0488,0.9986,
2025-03-08 21:10:49.248,-0.1000,0.4800,9.4900,0.0000,-0.0625,0.0625,0.0224,0.0025,-0.0488,0.9986,
2025-03-08 21:10:49.258,-0.1000,0.4600,9.5000,0.0000,-0.1875,-0.0625,0.0224,0.0025,-0.0488,0.9986,
2025-03-08 21:10:49.268,-0.1100,0.4700,9.5100,-0.0625,-0.0625,0.0625,0.0224,0.0025,-0.0488,0.9986,
2025-03-08 21:10:49.278,-0.1100,0.4700,9.5000,0.0625,0.0000,0.0625,0.0224,0.0025,-0.0488,0.9986,
2025-03-08 21:10:49.288,-0.1000,0.5000,9.5000,0.0000,-0.0625,0.1250,0.0224,0.0025,-0.0488,0.9986,
2025-03-08 21:10:49.298,-0.1100,0.4700,9.5100,-0.0625,0.0000,0.0000,0.0224,0.0025,-0.0488,0.9986,
2025-03-08 21:10:49.308,-0.1000,0.4800,9.4900,0.0000,0.0000,0.0000,0.0224,0.0025,-0.0488,0.9986,
2025-03-08 21:10:49.318,-0.1100,0.4700,9.5100,0.0000,-0.0625,-0.1250,0.0224,0.0025,-0.0488,0.9986,
2025-03-08 21:10:49.328,-0.1100,0.4800,9.5100,0.0000,-0.0625,-0.1250,0.0224,0.0025,-0.0488,0.9986,
2025-03-08 21:10:49.338,-0.1100,0.4700,9.5100,0.0000,-0.0625,0.0625,0.0224,0.0025,-0.0488,0.9986,
2025-03-08 21:10:49.348,-0.1200,0.4600,9.5400,-0.1250,-0.1250,0.0000,0.0224,0.0025,-0.0488,0.9986,
2025-03-08 21:10:49.358,-0.1000,0.4600,9.5100,-0.0625,0.0625,-0.0625,0.0224,0.0025,-0.0488,0.9986,
2025-03-08 21:10:49.369,-0.1200,0.4700,9.4800,-0.1250,0.0000,0.1250,0.0224,0.0025,-0.0488,0.9986,
2025-03-08 21:10:49.379,-0.1100,0.4900,9.4900,0.0000,0.0625,0.0000,0.0224,0.0025,-0.0488,0.9986,
2025-03-08 21:10:49.389,-0.1100,0.4900,9.5100,-0.0625,-0.0625,0.0000,0.0224,0.0025,-0.0488,0.9986,
2025-03-08 21:10:49.399,-0.1100,0.4600,9.5000,0.0000,-0.0625,0.0625,0.0224,0.0025,-0.0488,0.9986,
2025-03-08 21:10:49.441,-0.1000,0.4500,9.5000,0.0000,-0.1250,-0.0625,0.0224,0.0025,-0.0488,0.9986,
2025-03-08 21:10:49.441,-0.1200,0.4600,9.5000,-0.1250,-0.1250,0.0000,0.0224,0.0025,-0.0488,0.9986,
2025-03-08 21:10:49.441,-0.1200,0.4800,9.5100,0.0000,-0.0625,0.1250,0.0224,0.0025,-0.0488,0.9986,
2025-03-08 21:10:49.441,-0.1100,0.4500,9.5000,-0.1250,-0.0625,0.0625,0.0224,0.0025,-0.0488,0.9986,
2025-03-08 21:10:49.441,-0.1100,0.4500,9.5200,0.0625,0.0000,0.1250,0.0224,0.0025,-0.0488,0.9986,
2025-03-08 21:10:49.461,-0.1100,0.4600,9.4900,0.0625,-0.2500,-0.0625,0.0224,0.0025,-0.0488,0.9986,
2025-03-08 21:10:49.478,-0.1000,0.4600,9.4900,0.0000,0.0000,0.0000,0.0224,0.0025,-0.0488,0.9986,
2025-03-08 21:10:49.483,-0.0800,0.4500,9.5000,-0.0625,-0.0625,0.0000,0.0224,0.0025,-0.0488,0.9986,
2025-03-08 21:10:49.484,-0.1200,0.4600,9.5100,0.0625,-0.0625,0.0625,0.0224,0.0025,-0.0488,0.9986,
2025-03-08 21:10:49.501,-0.1000,0.4700,9.5300,0.0625,0.0000,-0.0625,0.0224,0.0025,-0.0488,0.9986,
2025-03-08 21:10:49.501,-0.1100,0.4600,9.4900,0.0000,-0.0625,0.0000,0.0224,0.0025,-0.0488,0.9986,
2025-03-08 21:10:49.511,-0.1200,0.4700,9.4900,-0.0625,-0.1875,0.1250,0.0224,0.0025,-0.0488,0.9986,
2025-03-08 21:10:49.521,-0.1000,0.4700,9.5100,0.0000,0.0625,-0.0625,0.0224,0.0025,-0.0488,0.9986,
2025-03-08 21:10:49.531,-0.1100,0.4700,9.5000,-0.0625,-0.0625,0.0625,0.0224,0.0025,-0.0488,0.9986,
2025-03-08 21:10:49.541,-0.1100,0.4800,9.5000,-0.0625,0.0000,0.0000,0.0224,0.0025,-0.0488,0.9986,
2025-03-08 21:10:49.559,-0.1100,0.4700,9.5000,0.0000,-0.1250,0.0000,0.0224,0.0025,-0.0488,0.9986,
2025-03-08 21:10:49.571,-0.1100,0.4400,9.4800,0.0000,-0.0625,0.0000,0.0224,0.0025,-0.0488,0.9986,
2025-03-08 21:10:49.571,-0.1100,0.4500,9.5100,0.0625,-0.2500,0.0625,0.0224,0.0025,-0.0488,0.9986,
2025-03-08 21:10:49.581,-0.1200,0.4600,9.5200,0.0625,-0.0625,0.1250,0.0224,0.0025,-0.0488,0.9986,
2025-03-08 21:10:49.592,-0.1100,0.4600,9.5000,-0.0625,0.1875,0.0625,0.0224,0.0025,-0.0488,0.9986,
2025-03-08 21:10:49.602,-0.1100,0.4700,9.4900,0.0000,0.1250,-0.1875,0.0224,0.0025,-0.0488,0.9986,
2025-03-08 21:10:49.612,-0.1000,0.4500,9.5100,-0.1250,0.0000,-0.0625,0.0224,0.0025,-0.0488,0.9986,
2025-03-08 21:10:49.631,-0.1200,0.4600,9.5000,-0.1250,-0.1250,0.1875,0.0224,0.0025,-0.0488,0.9986,
2025-03-08 21:10:49.631,-0.1100,0.4600,9.5000,-0.1250,-0.1250,0.1250,0.0224,0.0025,-0.0488,0.9986,
2025-03-08 21:10:49.642,-0.1100,0.4600,9.5100,-0.1250,0.0000,0.1250,0.0224,0.0025,-0.0488,0.9986,
2025-03-08 21:10:49.659,-0.1000,0.4600,9.4800,-0.2500,0.0625,0.0000,0.0224,0.0025,-0.0488,0.9986,
2025-03-08 21:10:49.662,-0.1200,0.4600,9.5100,-0.1250,-0.1250,0.1250,0.0224,0.0025,-0.0488,0.9986,
2025-03-08 21:10:49.675,-0.1000,0.4400,9.4800,-0.0625,0.0000,0.0000,0.0224,0.0025,-0.0488,0.9986,
2025-03-08 21:10:49.682,-0.1100,0.4900,9.4800,0.0000,-0.0625,-0.0625,0.0224,0.0025,-0.0488,0.9986,
2025-03-08 21:10:49.692,-0.1000,0.4800,9.5100,0.1250,0.0625,0.0625,0.0224,0.0025,-0.0488,0.9986,
2025-03-08 21:10:49.742,-0.1200,0.4700,9.4900,0.0625,-0.1250,-0.0625,0.0224,0.0025,-0.0488,0.9986,
2025-03-08 21:10:49.742,-0.1200,0.4700,9.5000,0.0625,0.1250,0.1875,0.0224,0.0025,-0.0488,0.9986,
2025-03-08 21:10:49.742,-0.1300,0.4600,9.5000,0.0000,0.0625,-0.1250,0.0224,0.0025,-0.0488,0.9986,
2025-03-08 21:10:49.742,-0.1100,0.4700,9.5000,0.0625,0.0625,0.0625,0.0224,0.0025,-0.0488,0.9986,
2025-03-08 21:10:49.742,-0.1000,0.4700,9.4900,-0.0625,0.0000,0.0625,0.0224,0.0025,-0.0488,0.9986,
2025-03-08 21:10:49.760,-0.1000,0.4500,9.5000,0.0625,0.0625,0.0000,0.0224,0.0025,-0.0488,0.9986,
2025-03-08 21:10:49.782,-0.1100,0.4600,9.5000,0.0625,0.1250,0.0000,0.0224,0.0025,-0.0488,0.9986,
2025-03-08 21:10:49.943,-0.1100,0.4500,9.5000,0.1250,0.0625,0.0000,0.0224,0.0025,-0.0488,0.9986,
2025-03-08 21:10:49.943,-0.1200,0.4700,9.5000,0.1250,0.0625,0.1250,0.0224,0.0025,-0.0488,0.9986,
2025-03-08 21:10:49.943,-0.1100,0.4700,9.5100,0.0000,-0.0625,0.0625,0.0224,0.0025,-0.0488,0.9986,
2025-03-08 21:10:49.944,-0.1100,0.4600,9.4700,0.0625,0.0625,0.0000,0.0224,0.0025,-0.0488,0.9986,
2025-03-08 21:10:49.944,-0.1300,0.4700,9.4800,0.0625,0.1250,0.0000,0.0224,0.0025,-0.0488,0.9986,
2025-03-08 21:10:49.944,-0.1200,0.4700,9.5200,0.0000,-0.0625,0.1250,0.0224,0.0025,-0.0488,0.9986,
2025-03-08 21:10:49.944,-0.1000,0.4400,9.5100,0.1250,-0.1250,0.1250,0.0224,0.0025,-0.0488,0.9986,
2025-03-08 21:10:49.944,-0.1100,0.4500,9.5100,0.0625,-0.0625,0.0625,0.0224,0.0025,-0.0488,0.9986,
2025-03-08 21:10:49.944,-0.1100,0.4900,9.5000,0.0625,0.0000,0.0000,0.0224,0.0025,-0.0488,0.9986,
2025-03-08 21:10:49.944,-0.1000,0.4800,9.5000,0.0625,0.0625,0.0000,0.0224,0.0025,-0.0488,0.9986,
