A1,,,,,,,,,,,
time,accx,accy,accz,gyrox,gyroy,gyroz,w1,w2,w3,w4,
2025-03-08 19:37:26.274,9.8800,1.4300,0.5600,2.1250,-0.1250,0.1250,-0.6917,0.0197,-0.7117,-0.1209,
2025-03-08 19:37:26.280,9.8500,1.4500,0.5600,2.5625,-0.0625,0.1875,-0.6917,0.0195,-0.7117,-0.1207,
2025-03-08 19:37:26.290,9.8300,1.5100,0.5700,2.5625,0.3750,0.1250,-0.6917,0.0195,-0.7117,-0.1207,
2025-03-08 19:37:26.302,9.8000,1.5200,0.5600,2.2500,0.6250,0.0000,-0.6917,0.0193,-0.7118,-0.1206,
2025-03-08 19:37:26.310,9.8200,1.5400,0.5300,1.5000,0.4375,0.0625,-0.6917,0.0190,-0.7119,-0.1204,
2025-03-08 19:37:26.321,9.8300,1.5000,0.5300,0.9375,0.6250,0.0000,-0.6916,0.0189,-0.7119,-0.1204,
2025-03-08 19:37:26.334,9.8500,1.4700,0.5500,0.2500,0.4375,-0.1250,-0.6916,0.0189,-0.7119,-0.1204,
2025-03-08 19:37:26.340,9.8600,1.4100,0.5500,-0.1250,0.5000,-0.1875,-0.6916,0.0189,-0.7119,-0.1204,
2025-03-08 19:37:26.355,9.8700,1.3800,0.5900,-0.1250,0.3125,0.0625,-0.6915,0.0189,-0.7120,-0.1205,
2025-03-08 19:37:26.366,9.8800,1.3700,0.5900,0.2500,0.5000,0.1875,-0.6915,0.0189,-0.7120,-0.1205,
2025-03-08 19:37:26.370,9.8700,1.3900,0.5800,0.5625,0.5625,0.4375,-0.6915,0.0189,-0.7120,-0.1205,
2025-03-08 19:37:26.382,9.8800,1.4300,0.5800,0.8750,0.6250,0.4375,-0.6915,0.0189,-0.7120,-0.1205,
2025-03-08 19:37:26.393,9.8600,1.4500,0.5900,0.8750,0.8125,0.1875,-0.6914,0.0188,-0.7121,-0.1204,
2025-03-08 19:37:26.400,9.8500,1.4600,0.6000,0.8125,0.9375,0.1250,-0.6914,0.0187,-0.7122,-0.1204,
2025-03-08 19:37:26.412,9.7900,1.4900,0.5400,0.8750,0.8125,-0.2500,-0.6913,0.0187,-0.7123,-0.1204,
2025-03-08 19:37:26.422,9.7800,1.4600,0.6000,0.6250,0.8125,-0.5000,-0.6912,0.0186,-0.7123,-0.1204,
2025-03-08 19:37:26.436,9.7600,1.4100,0.5800,0.5625,0.7500,-0.8125,-0.6911,0.0185,-0.7124,-0.1203,
2025-03-08 19:37:26.440,9.7500,1.4300,0.6000,0.4375,0.6250,-1.0625,-0.6911,0.0184,-0.7125,-0.1204,
2025-03-08 19:37:26.454,9.8000,1.3700,0.5500,0.2500,0.6250,-1.2500,-0.6910,0.0184,-0.7125,-0.1205,
2025-03-08 19:37:26.463,9.8400,1.3400,0.5500,0.1875,0.4375,-1.1875,-0.6909,0.0183,-0.7126,-0.1205,
2025-03-08 19:37:26.489,9.8700,1.3700,0.5900,0.6250,0.4375,-1.0000,-0.6909,0.0182,-0.7126,-0.1206,
2025-03-08 19:37:26.492,9.9100,1.4100,0.5600,1.1250,0.6875,-0.9375,-0.6909,0.0181,-0.7126,-0.1207,
2025-03-08 19:37:26.492,9.9100,1.4100,0.5600,1.3125,0.3750,-0.7500,-0.6908,0.0180,-0.7126,-0.1207,
2025-03-08 19:37:26.498,9.9000,1.4200,0.5500,2.0000,0.2500,-0.4375,-0.6909,0.0179,-0.7126,-0.1206,
2025-03-08 19:37:26.512,9.8400,1.4400,0.5500,1.8750,0.1250,-0.6875,-0.6909,0.0178,-0.7127,-0.1205,
2025-03-08 19:37:26.525,9.8000,1.4800,0.5900,1.5000,-0.1875,-0.5625,-0.6909,0.0176,-0.7127,-0.1204,
2025-03-08 19:37:26.532,9.7900,1.4200,0.5900,1.0000,-0.2500,-0.6250,-0.6908,0.0175,-0.7127,-0.1204,
2025-03-08 19:37:26.546,9.7700,1.4400,0.6100,0.6250,-0.1875,-0.8125,-0.6908,0.0174,-0.7127,-0.1204,
2025-03-08 19:37:26.554,9.7900,1.4300,0.6100,0.9375,0.0625,-1.0000,-0.6908,0.0173,-0.7127,-0.1204,
2025-03-08 19:37:26.562,9.7900,1.4500,0.5800,1.3750,0.0625,-1.0000,-0.6908,0.0172,-0.7128,-0.1204,
2025-03-08 19:37:26.572,9.8000,1.4900,0.6000,1.8750,-0.1875,-0.6875,-0.6908,0.0170,-0.7128,-0.1204,
2025-03-08 19:37:26.582,9.8000,1.5200,0.5900,2.1250,-0.2500,-0.5625,-0.6908,0.0168,-0.7128,-0.1203,
2025-03-08 19:37:26.592,9.8000,1.5200,0.5900,2.0000,-0.1250,-0.3750,-0.6908,0.0167,-0.7128,-0.1202,
2025-03-08 19:37:26.602,9.8000,1.5400,0.5400,1.5625,-0.1875,-0.1250,-0.6908,0.0165,-0.7128,-0.1201,
2025-03-08 19:37:26.612,9.7800,1.5600,0.5300,0.9375,0.0000,-0.0625,-0.6908,0.0164,-0.7129,-0.1201,
2025-03-08 19:37:26.622,9.8000,1.5300,0.5500,0.1875,0.1875,0.0000,-0.6907,0.0164,-0.7129,-0.1201,
2025-03-08 19:37:26.632,9.8000,1.5200,0.5600,-0.5000,0.1250,-0.1875,-0.6907,0.0164,-0.7129,-0.1201,
2025-03-08 19:37:26.642,9.8300,1.4600,0.6000,-0.8125,0.1250,-0.1875,-0.6907,0.0163,-0.7129,-0.1201,
2025-03-08 19:37:26.659,9.8100,1.4600,0.6000,-0.9375,0.1250,-0.1875,-0.6907,0.0164,-0.7129,-0.1202,
2025-03-08 19:37:26.677,9.8700,1.4100,0.6400,-0.6250,0.0000,-0.0625,-0.6906,0.0164,-0.7130,-0.1202,
2025-03-08 19:37:26.677,9.8600,1.3900,0.6400,-0.1250,-0.3125,0.1875,-0.6906,0.0164,-0.7130,-0.1203,
2025-03-08 19:37:26.682,9.8500,1.4200,0.6400,0.2500,-0.0625,0.1875,-0.6906,0.0164,-0.7130,-0.1203,
2025-03-08 19:37:26.712,9.8100,1.4500,0.6100,0.7500,-0.1250,0.4375,-0.6906,0.0164,-0.7130,-0.1203,
2025-03-08 19:37:26.712,9.7700,1.4500,0.5900,1.0625,0.1875,0.2500,-0.6906,0.0164,-0.7130,-0.1202,
2025-03-08 19:37:26.712,9.7700,1.4200,0.5500,1.2500,0.1875,0.1250,-0.6906,0.0163,-0.7130,-0.1202,
2025-03-08 19:37:26.722,9.7900,1.4300,0.5600,1.0625,0.0625,0.0625,-0.6905,0.0162,-0.7131,-0.1201,
2025-03-08 19:37:26.732,9.8400,1.4300,0.5700,0.9375,-0.3750,0.0625,-0.6905,0.0162,-0.7131,-0.1201,
2025-03-08 19:37:26.742,9.8400,1.4300,0.5700,1.0000,-0.5000,0.0000,-0.6906,0.0161,-0.7130,-0.1200,
2025-03-08 19:37:26.755,9.8400,1.4400,0.6100,1.2500,-0.3125,-0.1875,-0.6906,0.0161,-0.7131,-0.1199,
2025-03-08 19:37:26.782,9.8600,1.4300,0.5900,1.4375,-0.1250,-0.0625,-0.6906,0.0160,-0.7131,-0.1199,
2025-03-08 19:37:26.792,9.8400,1.4600,0.6400,1.5000,-0.1875,0.0000,-0.6906,0.0159,-0.7131,-0.1198,
2025-03-08 19:37:26.792,9.8400,1.4600,0.6400,1.8125,0.0625,0.0000,-0.6906,0.0158,-0.7131,-0.1197,
2025-03-08 19:37:26.792,9.8400,1.4800,0.6300,1.8125,0.0625,0.0000,-0.6907,0.0157,-0.7131,-0.1196,
2025-03-08 19:37:26.802,9.8100,1.4700,0.6200,2.0625,-0.1250,0.1250,-0.6907,0.0156,-0.7131,-0.1194,
2025-03-08 19:37:26.812,9.8100,1.4700,0.5500,2.0625,-0.1250,-0.0625,-0.6907,0.0154,-0.7131,-0.1193,
2025-03-08 19:37:26.822,9.8100,1.5100,0.5500,1.8750,-0.1875,-0.0625,-0.6907,0.0153,-0.7131,-0.1192,
2025-03-08 19:37:26.832,9.8000,1.4900,0.5500,1.5625,-0.1875,-0.2500,-0.6907,0.0152,-0.7131,-0.1191,
2025-03-08 19:37:26.842,9.8000,1.5000,0.5400,1.5625,-0.1875,-0.2500,-0.6907,0.0151,-0.7131,-0.1190,
2025-03-08 19:37:26.842,9.8500,1.4500,0.5700,1.3125,-0.2500,-0.1250,-0.6908,0.0150,-0.7131,-0.1190,
2025-03-08 19:37:26.862,9.8500,1.4600,0.5800,2.0000,0.1250,0.0625,-0.6908,0.0149,-0.7131,-0.1188,
2025-03-08 19:37:26.872,9.8700,1.5000,0.5500,2.2500,0.6250,0.1875,-0.6908,0.0148,-0.7131,-0.1187,
2025-03-08 19:37:26.882,9.8600,1.5900,0.6000,1.8125,0.6875,0.3750,-0.6908,0.0146,-0.7131,-0.1186,
2025-03-08 19:37:26.892,9.8600,1.6000,0.6000,1.8125,0.6875,0.3750,-0.6908,0.0145,-0.7132,-0.1185,
2025-03-08 19:37:26.902,9.8600,1.6000,0.5600,0.1250,0.5625,0.0625,-0.6907,0.0145,-0.7132,-0.1185,
2025-03-08 19:37:26.914,9.8500,1.5700,0.5400,-0.3750,0.6250,0.0000,-0.6907,0.0145,-0.7132,-0.1185,
2025-03-08 19:37:26.922,9.8300,1.5200,0.5200,-0.6250,0.3125,0.1875,-0.6907,0.0145,-0.7133,-0.1185,
2025-03-08 19:37:26.937,9.8300,1.4600,0.5400,-0.6250,0.1875,0.1875,-0.6907,0.0145,-0.7133,-0.1185,
2025-03-08 19:37:26.942,9.8200,1.4200,0.5200,-0.6250,0.1875,0.1875,-0.6907,0.0145,-0.7132,-0.1185,
2025-03-08 19:37:26.955,9.8200,1.4400,0.5800,-0.5000,-0.1875,0.3125,-0.6907,0.0146,-0.7132,-0.1185,
2025-03-08 19:37:26.962,9.8200,1.4300,0.5900,-0.3750,-0.2500,0.3125,-0.6907,0.0146,-0.7132,-0.1185,
2025-03-08 19:37:26.972,9.8000,1.4400,0.5900,-0.1250,-0.2500,0.2500,-0.6907,0.0146,-0.7132,-0.1185,
2025-03-08 19:37:27.002,9.7900,1.4400,0.5900,-0.0625,-0.1875,0.1250,-0.6907,0.0146,-0.7132,-0.1185,
2025-03-08 19:37:27.002,9.7800,1.4500,0.6000,-0.0625,-0.1875,0.1250,-0.6907,0.0146,-0.7132,-0.1185,
2025-03-08 19:37:27.002,9.7700,1.4500,0.5800,0.4375,-0.7500,0.2500,-0.6907,0.0146,-0.7132,-0.1185,
2025-03-08 19:37:27.019,9.7700,1.4500,0.5800,0.5000,-0.6250,0.0625,-0.6907,0.0146,-0.7132,-0.1185,
2025-03-08 19:37:27.022,9.8000,1.4100,0.5700,0.3750,-0.7500,0.1250,-0.6908,0.0146,-0.7132,-0.1185,
2025-03-08 19:37:27.032,9.8100,1.4200,0.5900,0.2500,-0.6875,0.3125,-0.6908,0.0146,-0.7131,-0.1185,
2025-03-08 19:37:27.042,9.8000,1.4300,0.5900,0.2500,-0.6875,0.3125,-0.6909,0.0146,-0.7131,-0.1185,
2025-03-08 19:37:27.055,9.7800,1.4200,0.5800,1.3125,-0.6250,0.3750,-0.6909,0.0146,-0.7130,-0.1185,
2025-03-08 19:37:27.082,9.8200,1.4200,0.5800,2.0625,-0.6875,0.4375,-0.6909,0.0145,-0.7130,-0.1184,
2025-03-08 19:37:27.098,9.8800,1.4500,0.5900,2.4375,-0.6250,0.5625,-0.6910,0.0144,-0.7130,-0.1183,
2025-03-08 19:37:27.098,9.8700,1.4600,0.5900,2.6875,-0.8125,0.6250,-0.6911,0.0142,-0.7129,-0.1182,
2025-03-08 19:37:27.098,9.8700,1.5500,0.6300,2.6875,-0.8125,0.6250,-0.6911,0.0141,-0.7129,-0.1180,
2025-03-08 19:37:27.100,9.8700,1.5900,0.6600,2.5000,-0.6250,0.7500,-0.6912,0.0140,-0.7128,-0.1178,
2025-03-08 19:37:27.122,9.8700,1.6300,0.6100,1.6875,-0.3125,0.8750,-0.6912,0.0140,-0.7129,-0.1176,
2025-03-08 19:37:27.123,9.8800,1.6100,0.5700,0.6875,0.2500,0.8125,-0.6912,0.0140,-0.7129,-0.1176,
2025-03-08 19:37:27.155,9.8200,1.5300,0.5500,-0.3750,0.8750,0.6250,-0.6912,0.0140,-0.7129,-0.1175,
2025-03-08 19:37:27.155,9.8300,1.4600,0.5200,-1.0000,1.1875,0.7500,-0.6911,0.0141,-0.7130,-0.1175,
2025-03-08 19:37:27.155,9.8300,1.4000,0.5200,-1.0625,0.8750,0.5000,-0.6910,0.0142,-0.7131,-0.1176,
2025-03-08 19:37:27.164,9.8300,1.4000,0.5600,-0.5625,0.1875,0.8125,-0.6910,0.0142,-0.7131,-0.1175,
2025-03-08 19:37:27.174,9.8400,1.4500,0.6100,0.1875,-0.3125,0.8125,-0.6910,0.0142,-0.7131,-0.1175,
2025-03-08 19:37:27.184,9.8200,1.4600,0.6200,0.7500,-0.8750,0.8750,-0.6911,0.0143,-0.7130,-0.1174,
2025-03-08 19:37:27.205,9.7700,1.5100,0.6100,0.7500,-0.6250,0.5000,-0.6912,0.0142,-0.7129,-0.1172,
2025-03-08 19:37:27.212,9.8000,1.4600,0.6200,0.0625,-0.2500,0.4375,-0.6912,0.0142,-0.7129,-0.1172,
2025-03-08 19:37:27.226,9.8000,1.4400,0.6000,-0.5000,-0.2500,0.6250,-0.6912,0.0142,-0.7129,-0.1172,
2025-03-08 19:37:27.236,9.8000,1.4100,0.5700,-0.9375,-0.0625,0.4375,-0.6912,0.0143,-0.7130,-0.1173,
2025-03-08 19:37:27.257,9.8900,1.3800,0.5400,0.1250,-0.5625,0.7500,-0.6912,0.0143,-0.7130,-0.1172,
2025-03-08 19:37:27.268,9.8800,1.4300,0.5400,0.6875,-0.6250,0.5000,-0.6912,0.0143,-0.7129,-0.1171,
2025-03-08 19:37:27.278,9.8300,1.5000,0.5300,1.0625,-0.6875,0.7500,-0.6913,0.0143,-0.7129,-0.1171,
2025-03-08 19:37:27.292,9.8200,1.4600,0.6000,0.7500,-1.4375,0.6875,-0.6915,0.0143,-0.7128,-0.1169,
2025-03-08 19:37:27.302,9.8300,1.4600,0.6400,0.3750,-1.2500,0.8750,-0.6915,0.0143,-0.7127,-0.1168,
2025-03-08 19:37:27.319,9.8500,1.3900,0.6300,-0.1250,-0.8750,0.6875,-0.6916,0.0144,-0.7126,-0.1168,
2025-03-08 19:37:27.322,9.8100,1.3700,0.6400,-0.6875,-0.0625,1.0000,-0.6916,0.0145,-0.7126,-0.1168,
2025-03-08 19:37:27.332,9.7800,1.3400,0.6200,-0.5000,0.6875,1.1250,-0.6915,0.0146,-0.7127,-0.1167,
2025-03-08 19:37:27.340,9.7700,1.3700,0.5600,0.3125,0.6250,1.2500,-0.6915,0.0146,-0.7128,-0.1166,
2025-03-08 19:37:27.352,9.7700,1.4100,0.5500,1.3750,0.0000,1.3125,-0.6915,0.0146,-0.7128,-0.1165,
2025-03-08 19:37:27.362,9.7700,1.4300,0.5100,1.9375,-0.6875,0.8750,-0.6915,0.0146,-0.7128,-0.1163,
2025-03-08 19:37:27.382,9.7900,1.4600,0.4700,2.8750,-1.1875,0.6875,-0.6916,0.0145,-0.7127,-0.1160,
2025-03-08 19:37:27.382,9.8200,1.5300,0.4800,2.8750,-2.0625,0.3125,-0.6918,0.0143,-0.7126,-0.1159,
2025-03-08 19:37:27.392,9.8300,1.5700,0.5100,2.6875,-2.7500,0.4375,-0.6920,0.0142,-0.7124,-0.1157,
2025-03-08 19:37:27.392,9.8500,1.6500,0.5200,1.6875,-3.1250,0.5625,-0.6922,0.0140,-0.7123,-0.1157,
2025-03-08 19:37:27.412,9.8900,1.6700,0.5800,0.1875,-2.4375,0.5000,-0.6923,0.0140,-0.7121,-0.1157,
2025-03-08 19:37:27.422,9.8900,1.6000,0.6000,-1.0625,-1.5000,0.6250,-0.6923,0.0140,-0.7121,-0.1158,
2025-03-08 19:37:27.432,9.9100,1.5200,0.6100,-2.0000,-0.5625,0.3750,-0.6922,0.0141,-0.7121,-0.1160,
2025-03-08 19:37:27.442,9.9200,1.4600,0.6000,-2.5000,-0.1250,0.4375,-0.6922,0.0142,-0.7122,-0.1162,
2025-03-08 19:37:27.442,9.8800,1.3200,0.5900,-2.7500,-0.1250,0.1875,-0.6921,0.0144,-0.7122,-0.1164,
2025-03-08 19:37:27.456,9.8500,1.3400,0.5900,-2.3750,0.0625,0.0625,-0.6921,0.0145,-0.7122,-0.1165,
2025-03-08 19:37:27.472,9.8000,1.3300,0.5900,-1.5000,0.1875,-0.0625,-0.6920,0.0146,-0.7123,-0.1166,
2025-03-08 19:37:27.482,9.8100,1.3500,0.5800,-0.6875,0.1875,-0.3750,-0.6920,0.0146,-0.7123,-0.1166,
2025-03-08 19:37:27.491,9.8400,1.3900,0.5300,-0.0625,-0.2500,-0.5625,-0.6920,0.0146,-0.7123,-0.1166,
2025-03-08 19:37:27.502,9.8300,1.4200,0.5100,0.5625,-1.0625,-0.3125,-0.6920,0.0147,-0.7123,-0.1166,
2025-03-08 19:37:27.512,9.8600,1.4100,0.5200,0.1875,-0.8750,-0.1250,-0.6920,0.0147,-0.7122,-0.1166,
2025-03-08 19:37:27.522,9.8200,1.4300,0.5100,-0.0625,-0.1875,0.1875,-0.6920,0.0147,-0.7122,-0.1166,
2025-03-08 19:37:27.534,9.8100,1.4400,0.5200,-0.5000,0.0625,0.2500,-0.6920,0.0147,-0.7123,-0.1166,
2025-03-08 19:37:27.542,9.8000,1.4400,0.5400,-0.5000,0.0625,0.0000,-0.6920,0.0146,-0.7123,-0.1166,
2025-03-08 19:37:27.551,9.8000,1.4400,0.5600,-0.5000,-0.1875,0.2500,-0.6920,0.0146,-0.7123,-0.1167,
2025-03-08 19:37:27.562,9.7900,1.4000,0.5800,-0.5625,-0.4375,0.0000,-0.6919,0.0146,-0.7123,-0.1167,
2025-03-08 19:37:27.572,9.8300,1.4000,0.5300,-0.5625,-0.7500,-0.1250,-0.6920,0.0146,-0.7123,-0.1167,
2025-03-08 19:37:27.582,9.8300,1.4000,0.5400,-0.3750,-1.0000,-0.1875,-0.6920,0.0146,-0.7123,-0.1167,
2025-03-08 19:37:27.592,9.9000,1.4100,0.5500,0.1875,-1.0000,0.0000,-0.6920,0.0147,-0.7122,-0.1167,
2025-03-08 19:37:27.602,9.8600,1.4500,0.5400,0.4375,-1.0000,0.0625,-0.6921,0.0147,-0.7122,-0.1167,
2025-03-08 19:37:27.612,9.8500,1.4800,0.5500,0.1875,-0.8125,-0.1250,-0.6921,0.0147,-0.7122,-0.1167,
2025-03-08 19:37:27.622,9.8600,1.4900,0.5500,-0.2500,-0.6875,-0.1875,-0.6921,0.0146,-0.7121,-0.1167,
2025-03-08 19:37:27.632,9.8200,1.4500,0.5500,-0.5625,-0.1875,-0.5000,-0.6921,0.0146,-0.7122,-0.1168,
2025-03-08 19:37:27.642,9.8400,1.3800,0.5300,-0.7500,0.2500,-0.2500,-0.6921,0.0147,-0.7122,-0.1168,
2025-03-08 19:37:27.652,9.8500,1.3500,0.5700,-0.6250,0.6250,-0.1875,-0.6920,0.0147,-0.7122,-0.1168,
2025-03-08 19:37:27.657,9.8500,1.2700,0.5000,-0.4375,0.4375,0.1250,-0.6920,0.0148,-0.7122,-0.1168,
2025-03-08 19:37:27.682,9.8700,1.2700,0.5100,0.0000,0.0000,0.6250,-0.6920,0.0148,-0.7123,-0.1168,
2025-03-08 19:37:27.682,9.8500,1.2900,0.5400,0.6875,-0.4375,0.8750,-0.6920,0.0148,-0.7123,-0.1167,
2025-03-08 19:37:27.692,9.8200,1.3500,0.5500,1.3750,-0.8750,1.1250,-0.6920,0.0148,-0.7123,-0.1165,
2025-03-08 19:37:27.701,9.8000,1.4500,0.5400,1.8750,-1.0625,0.9375,-0.6921,0.0148,-0.7123,-0.1163,
2025-03-08 19:37:27.712,9.7900,1.5100,0.5700,2.1875,-1.1875,0.6875,-0.6921,0.0147,-0.7122,-0.1162,
2025-03-08 19:37:27.712,9.8100,1.5300,0.5200,1.8750,-1.1250,0.6875,-0.6922,0.0146,-0.7122,-0.1161,
2025-03-08 19:37:27.731,9.8200,1.5500,0.4700,1.3750,-0.7500,0.3750,-0.6922,0.0145,-0.7122,-0.1160,
2025-03-08 19:37:27.742,9.8400,1.5300,0.4800,0.6250,-0.3750,0.3125,-0.6922,0.0144,-0.7122,-0.1160,
2025-03-08 19:37:27.752,9.8300,1.4900,0.4900,0.2500,0.0000,0.3750,-0.6922,0.0144,-0.7122,-0.1160,
2025-03-08 19:37:27.762,9.8500,1.4600,0.4800,-0.3750,0.0000,0.6250,-0.6922,0.0144,-0.7122,-0.1160,
2025-03-08 19:37:27.772,9.8900,1.4000,0.5300,-0.8125,-0.1875,0.9375,-0.6921,0.0145,-0.7122,-0.1160,
2025-03-08 19:37:27.772,9.9200,1.3700,0.5500,-1.3750,-0.3125,0.8750,-0.6921,0.0146,-0.7122,-0.1160,
2025-03-08 19:37:27.792,9.9100,1.3400,0.5800,-1.6250,-0.4375,0.6250,-0.6921,0.0148,-0.7123,-0.1161,
2025-03-08 19:37:27.802,9.8400,1.3400,0.5900,-1.2500,-0.3125,0.3750,-0.6920,0.0149,-0.7123,-0.1162,
2025-03-08 19:37:27.812,9.8100,1.3100,0.5900,-0.0625,-0.5000,0.0625,-0.6920,0.0149,-0.7123,-0.1161,
2025-03-08 19:37:27.821,9.7300,1.2400,0.6700,1.2500,-0.6250,-0.1250,-0.6920,0.0148,-0.7123,-0.1161,
2025-03-08 19:37:27.832,9.7300,1.2900,0.6700,2.0000,-0.6875,-0.3125,-0.6920,0.0147,-0.7123,-0.1160,
2025-03-08 19:37:27.842,9.7100,1.3000,0.6200,2.3125,-0.5000,-0.2500,-0.6920,0.0146,-0.7124,-0.1158,
2025-03-08 19:37:27.852,9.7200,1.3100,0.6100,1.9375,-0.5625,-0.0625,-0.6920,0.0145,-0.7125,-0.1157,
2025-03-08 19:37:27.862,9.7200,1.3200,0.5900,1.3750,-0.3125,0.0625,-0.6919,0.0144,-0.7125,-0.1156,
2025-03-08 19:37:27.872,9.6900,1.3400,0.5600,0.6875,0.0000,0.1250,-0.6919,0.0144,-0.7125,-0.1155,
2025-03-08 19:37:27.882,9.6800,1.3500,0.5900,0.2500,-0.0625,0.0625,-0.6919,0.0144,-0.7126,-0.1155,
2025-03-08 19:37:27.892,9.6900,1.3200,0.6200,-0.0625,-0.1250,-0.0625,-0.6918,0.0144,-0.7126,-0.1155,
2025-03-08 19:37:27.901,9.7000,1.3100,0.6000,-0.3125,-0.7500,-0.3125,-0.6918,0.0144,-0.7126,-0.1155,
2025-03-08 19:37:27.912,9.7600,1.3000,0.6500,-0.1875,-1.0000,-0.4375,-0.6918,0.0145,-0.7126,-0.1155,
2025-03-08 19:37:27.922,9.7600,1.3000,0.6500,0.0625,-1.1250,-0.5625,-0.6919,0.0145,-0.7126,-0.1155,
2025-03-08 19:37:27.932,9.7300,1.2900,0.6200,0.8750,-0.9375,-0.6250,-0.6919,0.0144,-0.7126,-0.1155,
2025-03-08 19:37:27.942,9.7100,1.3000,0.6600,1.5625,-0.6875,-0.7500,-0.6919,0.0143,-0.7126,-0.1155,
2025-03-08 19:37:27.962,9.6300,1.2900,0.6000,1.8750,-0.5000,-0.8750,-0.6919,0.0141,-0.7126,-0.1154,
2025-03-08 19:37:27.962,9.6500,1.3000,0.6000,2.4375,-0.4375,-0.6250,-0.6918,0.0140,-0.7127,-0.1153,
2025-03-08 19:37:27.982,9.6800,1.3500,0.5800,2.3125,-0.8750,-0.5625,-0.6919,0.0139,-0.7126,-0.1152,
2025-03-08 19:37:28.002,9.8000,1.4100,0.5900,1.8750,-1.0000,-0.4375,-0.6919,0.0137,-0.7126,-0.1151,
2025-03-08 19:37:28.002,9.8300,1.4900,0.6200,0.7500,-0.7500,-0.5625,-0.6919,0.0137,-0.7126,-0.1151,
2025-03-08 19:37:28.002,9.8200,1.5600,0.6000,-0.3125,-0.3750,-0.8125,-0.6919,0.0137,-0.7126,-0.1151,
2025-03-08 19:37:28.022,9.8300,1.5600,0.5600,-1.2500,0.0625,-1.0000,-0.6919,0.0136,-0.7126,-0.1151,
2025-03-08 19:37:28.022,9.7700,1.4000,0.4900,-1.7500,0.6250,-1.3750,-0.6918,0.0135,-0.7127,-0.1153,
2025-03-08 19:37:28.032,9.7300,1.2900,0.4800,-1.6875,0.4375,-1.1250,-0.6917,0.0136,-0.7127,-0.1155,
2025-03-08 19:37:28.044,9.7000,1.2000,0.5200,-1.8750,0.3125,-0.6875,-0.6917,0.0136,-0.7127,-0.1157,
2025-03-08 19:37:28.051,9.6900,1.1000,0.6000,-1.7500,0.0625,-0.0625,-0.6917,0.0137,-0.7127,-0.1158,
2025-03-08 19:37:28.057,9.7000,1.1800,0.6700,-1.3750,-0.1875,0.1250,-0.6917,0.0138,-0.7127,-0.1159,
2025-03-08 19:37:28.072,9.7300,1.2700,0.6900,-0.6250,-0.2500,0.5000,-0.6917,0.0139,-0.7127,-0.1160,
2025-03-08 19:37:28.082,9.7200,1.3800,0.7300,0.3125,-0.3750,0.5000,-0.6917,0.0139,-0.7127,-0.1160,
2025-03-08 19:37:28.105,9.6900,1.4100,0.6700,1.0625,-0.3750,0.3750,-0.6917,0.0139,-0.7127,-0.1160,
2025-03-08 19:37:28.110,9.6900,1.4100,0.6200,1.4375,-0.1875,0.1875,-0.6916,0.0139,-0.7128,-0.1160,
2025-03-08 19:37:28.110,9.7100,1.3700,0.5800,1.1875,0.0000,0.0625,-0.6915,0.0138,-0.7128,-0.1159,
2025-03-08 19:37:28.125,9.6700,1.3200,0.5300,0.8125,0.6875,0.3125,-0.6915,0.0137,-0.7129,-0.1158,
2025-03-08 19:37:28.132,9.6600,1.3500,0.5500,0.4375,1.1250,0.3750,-0.6915,0.0137,-0.7129,-0.1158,
2025-03-08 19:37:28.142,9.6700,1.3600,0.5700,0.0625,1.0000,0.4375,-0.6913,0.0137,-0.7131,-0.1158,
2025-03-08 19:37:28.146,9.7000,1.4000,0.6300,0.0625,0.4375,0.3125,-0.6913,0.0136,-0.7131,-0.1158,
2025-03-08 19:37:28.162,9.7600,1.4000,0.6100,0.2500,0.0625,0.1875,-0.6912,0.0136,-0.7132,-0.1158,
2025-03-08 19:37:28.172,9.7900,1.3700,0.5900,-0.1250,0.2500,-0.0625,-0.6912,0.0136,-0.7132,-0.1158,
2025-03-08 19:37:28.182,9.7600,1.3300,0.6400,-0.5625,0.3125,-0.2500,-0.6912,0.0136,-0.7132,-0.1158,
2025-03-08 19:37:28.192,9.7900,1.2900,0.6700,-0.6875,-0.2500,-0.3125,-0.6912,0.0136,-0.7132,-0.1158,
2025-03-08 19:37:28.202,9.7600,1.3000,0.6900,-0.1875,-0.4375,-0.3750,-0.6911,0.0137,-0.7133,-0.1158,
2025-03-08 19:37:28.218,9.7400,1.3500,0.6700,0.4375,-0.3125,-0.4375,-0.6911,0.0137,-0.7133,-0.1158,
2025-03-08 19:37:28.226,9.7100,1.3700,0.6500,0.9375,-0.0625,-0.5000,-0.6910,0.0137,-0.7134,-0.1158,
2025-03-08 19:37:28.232,9.7100,1.3900,0.6300,1.3125,0.3750,-0.6250,-0.6910,0.0137,-0.7134,-0.1158,
2025-03-08 19:37:28.242,9.7200,1.3600,0.6100,0.9375,0.4375,-0.6250,-0.6909,0.0135,-0.7135,-0.1157,
2025-03-08 19:37:28.252,9.7200,1.3500,0.5800,0.3125,0.6250,-0.6250,-0.6909,0.0135,-0.7135,-0.1157,
2025-03-08 19:37:28.262,9.7000,1.3300,0.5900,-0.0625,0.5000,-0.5625,-0.6908,0.0134,-0.7136,-0.1158,
2025-03-08 19:37:28.293,9.6800,1.3400,0.5500,0.0000,-0.0625,-0.5000,-0.6908,0.0134,-0.7136,-0.1158,
2025-03-08 19:37:28.293,9.6800,1.3500,0.5900,0.2500,-0.5000,-0.6875,-0.6908,0.0134,-0.7136,-0.1158,
2025-03-08 19:37:28.293,9.7000,1.3800,0.5900,0.6250,-0.9375,-0.6250,-0.6907,0.0134,-0.7136,-0.1158,
2025-03-08 19:37:28.302,9.7100,1.4100,0.6200,0.6250,-0.9375,-0.7500,-0.6908,0.0133,-0.7136,-0.1158,
2025-03-08 19:37:28.312,9.7300,1.4000,0.5900,0.2500,-0.8125,-0.7500,-0.6908,0.0132,-0.7135,-0.1158,
2025-03-08 19:37:28.322,9.7000,1.3600,0.6000,-0.3125,0.0000,-0.5625,-0.6909,0.0132,-0.7135,-0.1158,
2025-03-08 19:37:28.332,9.7100,1.3600,0.5700,-1.0000,0.5000,-0.5625,-0.6908,0.0132,-0.7135,-0.1158,
2025-03-08 19:37:28.342,9.7700,1.3500,0.6200,-1.9375,0.6250,-0.5625,-0.6908,0.0133,-0.7136,-0.1159,
2025-03-08 19:37:28.342,9.7700,1.3500,0.6200,-1.9375,0.6250,-0.5625,-0.6907,0.0134,-0.7136,-0.1160,
2025-03-08 19:37:28.358,9.7600,1.3600,0.6300,-2.4375,0.6250,-0.7500,-0.6906,0.0135,-0.7137,-0.1162,
2025-03-08 19:37:28.372,9.8600,1.3400,0.6200,-2.1875,0.3750,-1.0625,-0.6906,0.0136,-0.7137,-0.1165,
2025-03-08 19:37:28.382,10.0000,1.3500,0.6000,-1.2500,-0.0625,-1.9375,-0.6905,0.0137,-0.7137,-0.1166,
2025-03-08 19:37:28.392,10.0100,1.3900,0.6100,-0.3125,0.1875,-3.6875,-0.6905,0.0137,-0.7137,-0.1168,
2025-03-08 19:37:28.402,10.0100,1.3900,0.6100,-0.3125,0.1875,-3.6875,-0.6905,0.0134,-0.7137,-0.1170,
2025-03-08 19:37:28.412,10.0500,1.3700,0.5100,-0.4375,2.6875,-6.1250,-0.6903,0.0131,-0.7138,-0.1174,
2025-03-08 19:37:28.422,9.8600,1.1500,0.3500,-14.5625,11.5000,-9.8125,-0.6898,0.0128,-0.7142,-0.1182,
2025-03-08 19:37:28.432,9.8600,1.1500,0.3500,-18.6875,13.0625,-10.2500,-0.6890,0.0131,-0.7147,-0.1196,
2025-03-08 19:37:28.442,9.7400,0.7900,0.6100,-12.0000,12.9375,-9.9375,-0.6880,0.0135,-0.7154,-0.1213,
2025-03-08 19:37:28.452,9.6400,0.6300,0.8900,-12.0000,12.9375,-9.9375,-0.6871,0.0135,-0.7160,-0.1227,
2025-03-08 19:37:28.462,9.5800,0.9300,1.1000,0.6875,14.1875,-9.6250,-0.6863,0.0128,-0.7167,-0.1232,
2025-03-08 19:37:28.472,9.5700,1.3600,1.2000,11.7500,16.1875,-12.6250,-0.6854,0.0114,-0.7175,-0.1234,
2025-03-08 19:37:28.482,9.5400,1.7900,1.2800,8.1875,14.7500,-12.6875,-0.6846,0.0097,-0.7183,-0.1234,
2025-03-08 19:37:28.492,9.5300,2.3900,1.3700,3.6875,12.6250,-11.9375,-0.6838,0.0084,-0.7191,-0.1237,
2025-03-08 19:37:28.502,9.7400,2.4200,1.2600,3.6875,12.6250,-11.9375,-0.6831,0.0073,-0.7197,-0.1243,
2025-03-08 19:37:28.512,10.0000,2.2500,1.1300,0.3125,13.4375,-11.6875,-0.6822,0.0065,-0.7203,-0.1250,
2025-03-08 19:37:28.522,10.2100,2.1500,1.1400,-3.5000,23.3125,-12.3125,-0.6812,0.0057,-0.7212,-0.1259,
2025-03-08 19:37:28.532,10.3300,2.3600,1.4000,-7.9375,29.1875,-11.2500,-0.6797,0.0049,-0.7224,-0.1268,
2025-03-08 19:37:28.542,10.4300,2.5200,1.5800,-13.6250,33.2500,-11.0625,-0.6778,0.0045,-0.7240,-0.1280,
2025-03-08 19:37:28.552,10.5100,2.6400,1.7000,-13.6250,33.2500,-11.0625,-0.6756,0.0043,-0.7258,-0.1295,
2025-03-08 19:37:28.559,10.4800,2.5000,1.9200,-18.5625,36.7500,-12.6875,-0.6756,0.0043,-0.7258,-0.1295,
2025-03-08 19:37:28.587,10.4900,2.3100,1.9400,-26.3125,43.9375,-16.3125,-0.6705,0.0039,-0.7299,-0.1329,
2025-03-08 19:37:28.592,10.4000,2.1400,1.9800,-28.1875,47.6250,-17.0000,-0.6675,0.0041,-0.7322,-0.1354,
2025-03-08 19:37:28.592,10.3800,1.9700,2.0200,-29.8750,52.0625,-16.9375,-0.6642,0.0043,-0.7347,-0.1381,
2025-03-08 19:37:28.592,10.3100,2.0000,2.0900,-29.8750,52.0625,-16.9375,-0.6606,0.0046,-0.7374,-0.1409,
2025-03-08 19:37:28.612,10.2000,2.1300,2.1400,-29.7500,57.3750,-16.7500,-0.6567,0.0048,-0.7404,-0.1434,
2025-03-08 19:37:28.622,10.2300,2.2700,2.1300,-32.1875,68.0625,-16.5625,-0.6524,0.0049,-0.7437,-0.1461,
2025-03-08 19:37:28.632,10.3500,2.5400,2.2700,-37.3125,71.6250,-16.9375,-0.6477,0.0052,-0.7472,-0.1489,
2025-03-08 19:37:28.642,10.3400,2.5400,2.3300,-43.0625,74.7500,-18.0000,-0.6427,0.0057,-0.7508,-0.1521,
2025-03-08 19:37:28.652,10.3300,2.5300,2.4200,-43.0625,74.7500,-18.0000,-0.6374,0.0065,-0.7546,-0.1556,
2025-03-08 19:37:28.659,10.2700,2.4200,2.5500,-47.7500,76.8750,-19.0000,-0.6318,0.0074,-0.7585,-0.1592,
2025-03-08 19:37:28.672,10.1500,2.2900,2.8800,-52.6875,83.6250,-22.1250,-0.6260,0.0084,-0.7625,-0.1633,
2025-03-08 19:37:28.682,10.0900,2.2300,3.0300,-54.5000,86.9375,-24.3750,-0.6199,0.0095,-0.7665,-0.1675,
2025-03-08 19:37:28.692,10.1100,2.4000,3.0900,-58.5000,89.8750,-26.4375,-0.6135,0.0106,-0.7707,-0.1721,
2025-03-08 19:37:28.702,10.3700,2.6900,3.2000,-58.5000,89.8750,-26.4375,-0.6068,0.0117,-0.7749,-0.1769,
2025-03-08 19:37:28.711,10.1300,2.9700,3.3500,-64.0625,93.5625,-29.3750,-0.5997,0.0133,-0.7790,-0.1826,
2025-03-08 19:37:28.722,10.0800,3.2000,3.4400,-76.3125,103.5000,-34.4375,-0.5922,0.0147,-0.7834,-0.1883,
2025-03-08 19:37:28.732,10.1400,3.1700,3.6000,-86.4375,107.3750,-38.3125,-0.5841,0.0164,-0.7878,-0.1945,
2025-03-08 19:37:28.742,9.8800,2.7800,4.0700,-95.0000,110.5625,-40.5625,-0.5756,0.0185,-0.7923,-0.2015,
2025-03-08 19:37:28.752,9.6300,2.4600,4.3200,-95.0000,110.5625,-40.5625,-0.5665,0.0210,-0.7968,-0.2090,
2025-03-08 19:37:28.762,9.4200,2.1200,4.5600,-99.8125,114.6250,-41.0625,-0.5571,0.0238,-0.8013,-0.2168,
2025-03-08 19:37:28.772,9.4200,1.7200,4.8900,-100.8750,118.5625,-41.7500,-0.5472,0.0265,-0.8058,-0.2246,
2025-03-08 19:37:28.787,9.4200,1.5100,5.1000,-100.0000,122.5000,-42.3750,-0.5370,0.0290,-0.8104,-0.2324,
2025-03-08 19:37:28.796,9.4200,1.3100,5.2300,-98.3750,125.8125,-43.3125,-0.5266,0.0313,-0.8149,-0.2401,
2025-03-08 19:37:28.801,9.3200,1.0900,5.3200,-94.5000,128.4375,-43.9375,-0.5159,0.0332,-0.8194,-0.2476,
2025-03-08 19:37:28.802,9.1300,0.9400,5.5100,-87.8750,130.5625,-43.3125,-0.5050,0.0349,-0.8238,-0.2551,
2025-03-08 19:37:28.822,8.9800,1.0900,5.5600,-79.1250,130.6875,-40.0625,-0.4943,0.0359,-0.8282,-0.2617,
2025-03-08 19:37:28.832,8.8300,1.3500,5.5800,-68.0625,130.1875,-35.7500,-0.4838,0.0363,-0.8326,-0.2674,
2025-03-08 19:37:28.842,8.4600,1.7600,5.6000,-58.5000,128.5000,-33.0625,-0.4734,0.0361,-0.8368,-0.2725,
2025-03-08 19:37:28.862,8.3500,1.9300,5.6600,-49.5625,123.8125,-32.0625,-0.4535,0.0350,-0.8448,-0.2817,
2025-03-08 19:37:28.882,8.3500,2.0300,5.7600,-50.1250,121.8125,-31.1250,-0.4437,0.0345,-0.8486,-0.2862,
2025-03-08 19:37:28.882,8.3300,1.9900,5.8700,-51.9375,119.6250,-29.1250,-0.4339,0.0342,-0.8521,-0.2906,
2025-03-08 19:37:28.892,8.1900,1.9900,5.9700,-54.1250,118.2500,-27.3750,-0.4241,0.0342,-0.8556,-0.2949,
2025-03-08 19:37:28.912,7.3900,1.9200,6.2300,-59.7500,116.1250,-25.6250,-0.4044,0.0352,-0.8619,-0.3039,
2025-03-08 19:37:28.922,7.2900,1.7600,6.3400,-60.1250,113.9375,-23.8750,-0.3946,0.0358,-0.8650,-0.3080,
2025-03-08 19:37:28.942,6.9900,1.5800,6.5400,-61.0000,109.6250,-22.2500,-0.3753,0.0374,-0.8706,-0.3159,
2025-03-08 19:37:28.959,7.0100,1.4300,6.9400,-59.3125,103.2500,-18.1875,-0.3567,0.0394,-0.8756,-0.3232,
2025-03-08 19:37:28.974,6.8500,1.3900,7.0000,-57.8125,101.3750,-16.6250,-0.3477,0.0405,-0.8780,-0.3265,
2025-03-08 19:37:28.984,6.5900,1.3500,6.9600,-55.8125,100.2500,-14.5625,-0.3387,0.0414,-0.8803,-0.3296,
2025-03-08 19:37:28.992,6.1500,1.4400,7.2600,-55.1875,98.9375,-12.8750,-0.3298,0.0424,-0.8826,-0.3325,
2025-03-08 19:37:29.011,5.9600,1.4800,7.6600,-50.0625,95.4375,-11.8750,-0.3125,0.0443,-0.8866,-0.3381,
2025-03-08 19:37:29.022,6.0100,1.4000,8.1600,-47.5625,94.1250,-12.3750,-0.3041,0.0449,-0.8885,-0.3406,
2025-03-08 19:37:29.032,6.0600,1.1800,8.2400,-47.3750,92.0625,-12.6250,-0.2959,0.0455,-0.8903,-0.3431,
2025-03-08 19:37:29.042,5.9600,0.9300,8.3000,-45.8125,92.0000,-11.8750,-0.2877,0.0460,-0.8920,-0.3455,
2025-03-08 19:37:29.042,5.7100,0.7400,8.2400,-39.5625,93.4375,-10.4375,-0.2795,0.0460,-0.8938,-0.3476,
2025-03-08 19:37:29.062,5.2700,0.7200,8.2000,-30.6250,94.5000,-8.3750,-0.2715,0.0453,-0.8956,-0.3496,
2025-03-08 19:37:29.072,5.1500,0.9100,8.1400,-21.0000,93.5625,-6.3125,-0.2638,0.0440,-0.8974,-0.3508,
2025-03-08 19:37:29.085,5.1300,1.0300,8.0900,-11.5625,91.1875,-5.8125,-0.2565,0.0421,-0.8992,-0.3519,
2025-03-08 19:37:29.096,5.1400,1.0700,8.0600,-4.5625,89.0625,-5.2500,-0.2496,0.0397,-0.9010,-0.3527,
2025-03-08 19:37:29.100,5.0600,1.0900,7.9500,-2.8750,87.7500,-4.6875,-0.2429,0.0372,-0.9026,-0.3534,
2025-03-08 19:37:29.116,5.0000,0.9600,7.9000,-5.4375,85.8750,-3.7500,-0.2362,0.0350,-0.9042,-0.3542,
2025-03-08 19:37:29.132,4.8000,0.8300,7.9100,-9.6875,84.6250,-2.6875,-0.2294,0.0331,-0.9057,-0.3549,
2025-03-08 19:37:29.134,4.4900,1.0800,8.0100,-14.1875,81.6875,-3.0625,-0.2228,0.0317,-0.9072,-0.3556,
2025-03-08 19:37:29.147,4.2600,1.3200,8.1600,-18.5625,78.8750,-2.9375,-0.2162,0.0307,-0.9085,-0.3564,
2025-03-08 19:37:29.153,4.0900,1.4500,8.2800,-24.6250,76.2500,-4.2500,-0.2096,0.0302,-0.9096,-0.3574,
2025-03-08 19:37:29.164,3.7700,1.0500,8.5400,-32.8750,74.5625,-6.8125,-0.2029,0.0305,-0.9106,-0.3588,
2025-03-08 19:37:29.192,3.5900,0.5800,8.5100,-39.6875,75.5000,-9.3125,-0.1959,0.0311,-0.9115,-0.3604,
2025-03-08 19:37:29.192,3.5000,0.1600,8.4800,-42.6875,77.3750,-9.8125,-0.1886,0.0318,-0.9123,-0.3621,
2025-03-08 19:37:29.194,3.4000,-0.1200,8.5800,-41.6250,77.7500,-7.0000,-0.1814,0.0325,-0.9132,-0.3635,
2025-03-08 19:37:29.201,3.2200,0.1100,8.7200,-36.8125,75.7500,-4.3125,-0.1744,0.0330,-0.9141,-0.3646,
2025-03-08 19:37:29.225,3.2300,0.3900,8.7500,-29.0000,72.6250,-2.0000,-0.1679,0.0330,-0.9149,-0.3657,
2025-03-08 19:37:29.225,3.5100,0.5200,8.7400,-22.7500,69.8125,-0.6875,-0.1618,0.0326,-0.9158,-0.3663,
2025-03-08 19:37:29.231,3.5300,0.4400,8.9200,-20.4375,68.5625,-0.8750,-0.1558,0.0320,-0.9166,-0.3668,
2025-03-08 19:37:29.252,3.3400,0.2900,8.8700,-21.7500,67.8750,-2.3750,-0.1499,0.0316,-0.9173,-0.3675,
2025-03-08 19:37:29.255,3.0600,0.1700,8.8700,-23.0000,67.0625,-3.3125,-0.1440,0.0313,-0.9180,-0.3682,
2025-03-08 19:37:29.262,2.8200,0.1300,8.8300,-22.5000,65.1250,-3.8125,-0.1382,0.0311,-0.9182,-0.3699,
2025-03-08 19:37:29.274,2.4000,0.2300,8.8200,-19.1250,64.1250,-3.8125,-0.1327,0.0305,-0.9188,-0.3706,
2025-03-08 19:37:29.282,2.4300,0.1700,8.8200,-15.3125,62.8750,-4.1875,-0.1273,0.0297,-0.9193,-0.3712,
2025-03-08 19:37:29.292,2.3700,0.0000,8.8000,-12.1250,62.5625,-3.6250,-0.1221,0.0286,-0.9198,-0.3718,
2025-03-08 19:37:29.304,2.4100,-0.0600,8.7300,-10.9375,61.6250,-2.5000,-0.1169,0.0275,-0.9203,-0.3722,
2025-03-08 19:37:29.310,2.3000,0.0500,8.8400,-12.2500,55.0000,-0.7500,-0.1122,0.0267,-0.9207,-0.3727,
2025-03-08 19:37:29.322,2.2100,0.1400,8.8500,-12.2500,55.0000,-0.7500,-0.1076,0.0259,-0.9212,-0.3730,
2025-03-08 19:37:29.334,2.1600,0.2600,8.9000,-13.7500,52.0000,-1.0625,-0.1032,0.0254,-0.9216,-0.3734,
2025-03-08 19:37:29.342,2.1700,0.3800,8.9200,-15.6875,46.5000,0.2500,-0.0990,0.0251,-0.9219,-0.3736,
2025-03-08 19:37:29.352,2.1300,0.3600,9.0100,-16.5000,45.0625,0.5000,-0.0950,0.0250,-0.9223,-0.3738,
2025-03-08 19:37:29.365,1.9900,0.3500,9.0700,-18.0000,43.0000,0.3125,-0.0911,0.0251,-0.9226,-0.3740,
2025-03-08 19:37:29.372,1.8700,0.2700,9.0500,-20.1250,41.1250,0.6875,-0.0872,0.0253,-0.9229,-0.3742,
2025-03-08 19:37:29.382,1.6000,0.0000,9.0000,-21.6875,39.4375,0.1875,-0.0834,0.0258,-0.9231,-0.3745,
2025-03-08 19:37:29.392,1.5100,-0.1100,9.0900,-20.8125,37.6875,-0.1250,-0.0798,0.0262,-0.9233,-0.3747,
2025-03-08 19:37:29.402,1.5900,-0.2800,9.0100,-17.9375,36.4375,0.6250,-0.0764,0.0265,-0.9235,-0.3749,
2025-03-08 19:37:29.406,1.4400,-0.3900,8.9700,-15.2500,35.3125,1.6250,-0.0732,0.0266,-0.9238,-0.3749,
2025-03-08 19:37:29.422,1.3500,-0.4000,8.9600,-12.6250,33.1250,3.1875,-0.0702,0.0265,-0.9241,-0.3748,
2025-03-08 19:37:29.432,1.2700,-0.3300,8.9300,-10.4375,30.0625,5.5000,-0.0675,0.0264,-0.9244,-0.3745,
2025-03-08 19:37:29.438,1.2600,-0.2900,8.8300,-10.1875,28.1875,7.5625,-0.0649,0.0264,-0.9248,-0.3740,
2025-03-08 19:37:29.452,1.1500,-0.3100,9.0200,-10.4375,25.7500,6.8125,-0.0626,0.0264,-0.9251,-0.3736,
2025-03-08 19:37:29.460,1.2900,-0.3100,9.1800,-11.6875,24.3125,6.1250,-0.0603,0.0266,-0.9254,-0.3733,
2025-03-08 19:37:29.482,1.3500,-0.3000,9.2100,-12.9375,23.6875,7.0625,-0.0580,0.0269,-0.9257,-0.3729,
2025-03-08 19:37:29.482,1.2000,-0.4400,9.1700,-12.6875,22.3125,9.1250,-0.0558,0.0274,-0.9260,-0.3723,
2025-03-08 19:37:29.492,1.1500,-0.5500,9.0000,-11.8750,20.6250,10.3125,-0.0538,0.0280,-0.9264,-0.3716,
2025-03-08 19:37:29.500,0.9200,-0.6100,8.8400,-11.2500,18.3750,11.7500,-0.0519,0.0286,-0.9269,-0.3707,
2025-03-08 19:37:29.512,0.6400,-0.4600,8.6100,-11.1250,14.8750,12.8750,-0.0504,0.0291,-0.9273,-0.3699,
2025-03-08 19:37:29.512,0.8000,-0.4000,8.5700,-10.7500,11.9375,14.7500,-0.0490,0.0297,-0.9277,-0.3688,
2025-03-08 19:37:29.522,1.1100,-0.7900,8.6400,-10.2500,10.6875,14.7500,-0.0479,0.0302,-0.9282,-0.3677,
2025-03-08 19:37:29.542,1.1000,-0.7000,9.0400,-9.6250,7.3750,13.1250,-0.0469,0.0308,-0.9286,-0.3668,
2025-03-08 19:37:29.552,1.1500,-0.5700,9.1300,-7.8125,3.3125,14.5000,-0.0464,0.0313,-0.9291,-0.3657,
2025-03-08 19:37:29.560,1.0000,-0.3500,9.1700,-5.8750,0.6250,15.3750,-0.0461,0.0319,-0.9292,-0.3654,
2025-03-08 19:37:29.572,0.9200,-0.3700,9.2300,-4.2500,-1.4375,13.8750,-0.0460,0.0323,-0.9296,-0.3643,
2025-03-08 19:37:29.582,1.1100,-0.4700,8.9500,-1.8750,-2.5000,13.5000,-0.0461,0.0326,-0.9300,-0.3632,
2025-03-08 19:37:29.591,0.9400,-0.5800,8.9100,0.6875,-2.1250,13.8750,-0.0463,0.0327,-0.9304,-0.3621,
2025-03-08 19:37:29.602,0.7800,-0.3700,9.0600,2.7500,-4.9375,14.3125,-0.0466,0.0327,-0.9308,-0.3610,
2025-03-08 19:37:29.612,1.1100,-0.1200,8.9500,3.3750,-8.3125,14.4375,-0.0474,0.0328,-0.9313,-0.3598,
2025-03-08 19:37:29.622,1.2600,-0.3600,9.0600,2.8750,-8.0000,11.7500,-0.0480,0.0328,-0.9316,-0.3588,
2025-03-08 19:37:29.632,1.2600,-0.6400,9.0900,4.2500,-9.3125,9.4375,-0.0489,0.0330,-0.9318,-0.3580,
2025-03-08 19:37:29.642,1.1500,-0.5700,8.8400,10.0625,-12.1875,10.5000,-0.0502,0.0326,-0.9321,-0.3571,
2025-03-08 19:37:29.652,0.9700,-0.3800,8.7400,14.0625,-17.6875,11.7500,-0.0519,0.0320,-0.9325,-0.3561,
2025-03-08 19:37:29.662,0.9700,0.1000,8.7600,14.0000,-23.5000,12.0625,-0.0519,0.0320,-0.9325,-0.3561,
2025-03-08 19:37:29.662,1.2800,0.1200,8.8300,11.2500,-26.2500,12.0625,-0.0542,0.0317,-0.9328,-0.3549,
2025-03-08 19:37:29.682,1.2200,0.0000,8.9900,7.1875,-26.5625,11.0000,-0.0566,0.0317,-0.9331,-0.3538,
2025-03-08 19:37:29.692,1.2800,-0.1700,9.0800,4.2500,-28.6250,9.8750,-0.0588,0.0320,-0.9333,-0.3528,
2025-03-08 19:37:29.702,1.2700,-0.3900,9.1000,3.5000,-30.0625,9.5625,-0.0612,0.0325,-0.9334,-0.3520,
2025-03-08 19:37:29.707,1.1300,-0.3600,9.0200,4.3125,-31.6250,8.5625,-0.0637,0.0332,-0.9336,-0.3511,
2025-03-08 19:37:29.722,1.1200,-0.3500,8.8200,5.8125,-32.4375,8.0625,-0.0662,0.0339,-0.9335,-0.3507,
2025-03-08 19:37:29.732,1.4300,-0.5300,8.7300,7.1250,-33.0000,8.0625,-0.0690,0.0344,-0.9336,-0.3498,
2025-03-08 19:37:29.742,1.5400,-0.5100,8.8900,9.6875,-37.4375,8.3125,-0.0717,0.0348,-0.9337,-0.3491,
2025-03-08 19:37:29.761,1.7300,-0.3400,8.9200,13.4375,-44.0000,8.8750,-0.0750,0.0352,-0.9337,-0.3483,
2025-03-08 19:37:29.761,1.9000,-0.0300,9.0600,15.5625,-49.6875,8.9375,-0.0788,0.0355,-0.9337,-0.3474,
2025-03-08 19:37:29.782,2.1100,0.5700,9.1100,14.1250,-53.6250,7.8125,-0.0831,0.0358,-0.9337,-0.3464,
2025-03-08 19:37:29.782,2.1300,0.5800,9.0100,9.7500,-53.5000,5.8125,-0.0878,0.0363,-0.9336,-0.3455,
2025-03-08 19:37:29.792,2.0000,0.3300,9.1000,4.6875,-51.0000,3.1250,-0.0922,0.0372,-0.9334,-0.3448,
2025-03-08 19:37:29.802,1.9000,-0.4900,8.7200,2.5000,-49.0625,1.8125,-0.0964,0.0383,-0.9331,-0.3444,
2025-03-08 19:37:29.812,1.8200,-0.7700,8.6700,4.3125,-48.5625,3.3125,-0.1003,0.0396,-0.9328,-0.3440,
2025-03-08 19:37:29.822,1.8100,-0.9000,8.6300,9.6250,-52.0625,5.5625,-0.1042,0.0406,-0.9324,-0.3436,
2025-03-08 19:37:29.832,1.9200,-0.6600,8.6800,16.4375,-57.8125,6.6875,-0.1086,0.0414,-0.9322,-0.3428,
2025-03-08 19:37:29.842,2.5500,-0.0700,8.9200,21.2500,-62.6875,7.7500,-0.1136,0.0419,-0.9319,-0.3420,
2025-03-08 19:37:29.852,3.0000,0.0700,9.0600,22.0000,-64.8125,7.0000,-0.1191,0.0421,-0.9316,-0.3409,
2025-03-08 19:37:29.862,3.0000,0.0700,9.0600,19.6875,-65.4375,5.3125,-0.1249,0.0423,-0.9312,-0.3399,
2025-03-08 19:37:29.872,3.2900,0.1800,9.1200,17.5000,-65.1875,4.5000,-0.1306,0.0427,-0.9307,-0.3391,
2025-03-08 19:37:29.882,2.8000,0.2300,8.8800,15.8750,-65.3750,3.5625,-0.1362,0.0432,-0.9301,-0.3383,
2025-03-08 19:37:29.912,2.7000,0.1900,8.4800,14.6250,-68.2500,2.3750,-0.1417,0.0439,-0.9295,-0.3376,
2025-03-08 19:37:29.922,2.7300,0.1300,8.0900,13.1250,-69.6875,3.2500,-0.1475,0.0447,-0.9288,-0.3370,
2025-03-08 19:37:29.922,2.7300,0.1300,8.0900,13.5625,-71.9375,6.7500,-0.1534,0.0457,-0.9281,-0.3362,
2025-03-08 19:37:29.922,2.6800,0.3000,8.6500,14.5625,-76.7500,10.0000,-0.1594,0.0468,-0.9273,-0.3354,
2025-03-08 19:37:29.942,3.5600,0.3200,9.0600,13.3750,-81.6250,8.8750,-0.1657,0.0480,-0.9266,-0.3340,
2025-03-08 19:37:29.942,4.2900,0.4400,8.9900,12.3750,-82.8125,7.3750,-0.1725,0.0493,-0.9258,-0.3328,
2025-03-08 19:37:29.952,4.0700,0.3800,8.8500,11.5000,-81.5000,7.5000,-0.1793,0.0508,-0.9248,-0.3317,
2025-03-08 19:37:29.962,4.0700,0.3800,8.8500,10.8125,-82.8125,7.8125,-0.1859,0.0523,-0.9238,-0.3306,
2025-03-08 19:37:29.972,3.8700,0.3300,8.8200,10.8125,-82.8125,7.8125,-0.1926,0.0539,-0.9227,-0.3295,
2025-03-08 19:37:29.982,4.2800,-0.4500,7.6700,9.1250,-81.5625,4.1250,-0.1994,0.0556,-0.9216,-0.3284,
2025-03-08 19:37:29.992,4.0700,-0.1500,8.1900,15.0000,-83.5625,2.6875,-0.2060,0.0573,-0.9203,-0.3275,
2025-03-08 19:37:30.002,3.9900,0.0000,8.5500,24.8125,-87.3125,7.0000,-0.2129,0.0585,-0.9190,-0.3266,
2025-03-08 19:37:30.012,3.9900,0.0000,8.5500,30.1250,-91.1875,10.0000,-0.2203,0.0590,-0.9177,-0.3252,
2025-03-08 19:37:30.022,4.0900,-0.0200,8.5400,31.0000,-96.0000,12.0625,-0.2281,0.0594,-0.9165,-0.3232,
2025-03-08 19:37:30.052,4.8200,0.2200,8.1500,32.1875,-98.7500,17.2500,-0.2364,0.0598,-0.9151,-0.3212,
2025-03-08 19:37:30.052,4.7300,0.5100,8.3100,31.7500,-101.8125,24.2500,-0.2448,0.0604,-0.9137,-0.3187,
2025-03-08 19:37:30.052,6.2000,0.0700,6.4000,28.8750,-106.1250,28.5000,-0.2534,0.0612,-0.9124,-0.3157,
2025-03-08 19:37:30.062,6.2000,0.0700,6.4000,28.8750,-106.1250,28.5000,-0.2622,0.0623,-0.9110,-0.3123,
2025-03-08 19:37:30.082,6.2100,-0.2300,6.4600,24.5625,-99.2500,24.2500,-0.2703,0.0636,-0.9095,-0.3093,
2025-03-08 19:37:30.082,5.4900,0.5100,7.9500,36.1875,-102.5625,13.0625,-0.2785,0.0646,-0.9078,-0.3069,
2025-03-08 19:37:30.092,5.2600,0.8400,8.0400,47.0000,-105.2500,10.9375,-0.2872,0.0648,-0.9059,-0.3045,
2025-03-08 19:37:30.103,5.5000,0.8200,7.7800,50.0625,-108.6875,8.6250,-0.2964,0.0641,-0.9038,-0.3019,
2025-03-08 19:37:30.115,5.5000,0.8200,7.7800,50.0625,-108.6875,8.6250,-0.3059,0.0633,-0.9015,-0.2994,
2025-03-08 19:37:30.115,5.8600,0.9400,7.5400,48.8125,-111.0625,11.6875,-0.3155,0.0627,-0.8992,-0.2966,
2025-03-08 19:37:30.132,6.1200,0.9700,7.7900,42.9375,-116.3125,28.3125,-0.3251,0.0625,-0.8969,-0.2933,
2025-03-08 19:37:30.142,7.1600,0.7200,6.6700,39.6875,-112.7500,32.8750,-0.3348,0.0629,-0.8945,-0.2894,
2025-03-08 19:37:30.157,7.6400,0.0400,5.4200,38.9375,-105.1875,29.0625,-0.3441,0.0636,-0.8923,-0.2851,
2025-03-08 19:37:30.161,7.3500,-0.1600,5.7400,38.9375,-105.1875,29.0625,-0.3528,0.0640,-0.8901,-0.2812,
2025-03-08 19:37:30.176,7.2300,0.7300,7.3200,43.6250,-111.3750,24.0625,-0.3621,0.0638,-0.8878,-0.2769,
2025-03-08 19:37:30.183,7.2600,1.2600,7.3300,63.3125,-119.8750,21.0625,-0.3721,0.0632,-0.8850,-0.2728,
2025-03-08 19:37:30.192,7.4200,1.4000,7.0200,65.1875,-120.1250,21.7500,-0.3824,0.0618,-0.8819,-0.2686,
2025-03-08 19:37:30.206,7.5000,1.2500,6.6100,61.6250,-119.3750,24.8125,-0.3926,0.0604,-0.8788,-0.2643,
2025-03-08 19:37:30.207,7.3500,1.2200,6.6600,61.6250,-119.3750,24.8125,-0.4027,0.0593,-0.8757,-0.2598,
2025-03-08 19:37:30.221,7.8300,1.3700,6.7000,55.1875,-120.9375,29.6875,-0.4127,0.0588,-0.8725,-0.2547,
2025-03-08 19:37:30.237,8.5600,1.0500,5.0800,42.0000,-111.6250,36.0625,-0.4225,0.0591,-0.8692,-0.2499,
2025-03-08 19:37:30.243,7.8700,0.3600,5.5100,40.2500,-111.1250,30.8125,-0.4314,0.0596,-0.8662,-0.2451,
2025-03-08 19:37:30.256,7.8300,0.7000,6.2500,48.1875,-116.1875,25.1875,-0.4402,0.0601,-0.8629,-0.2408,
2025-03-08 19:37:30.262,7.9200,1.0700,6.5400,48.1875,-116.1875,25.1875,-0.4495,0.0599,-0.8593,-0.2366,
2025-03-08 19:37:30.272,8.3700,0.8200,6.2000,59.4375,-117.8750,22.1250,-0.4591,0.0587,-0.8556,-0.2319,
2025-03-08 19:37:30.282,8.4900,0.6100,6.0200,76.6250,-115.6250,23.2500,-0.4688,0.0568,-0.8517,-0.2271,
2025-03-08 19:37:30.297,8.5500,0.5400,5.8200,83.1875,-113.5625,28.2500,-0.4785,0.0544,-0.8479,-0.2218,
2025-03-08 19:37:30.303,8.5300,0.6900,5.6700,87.5625,-113.3750,35.9375,-0.4880,0.0517,-0.8442,-0.2159,
2025-03-08 19:37:30.311,9.3800,1.3700,5.0900,87.5625,-113.3750,35.9375,-0.4975,0.0490,-0.8404,-0.2092,
2025-03-08 19:37:30.323,10.1500,1.6400,4.1700,90.9375,-116.3125,45.7500,-0.5071,0.0462,-0.8368,-0.2012,
2025-03-08 19:37:30.333,10.1100,1.4100,3.6000,83.4375,-114.1250,46.2500,-0.5166,0.0440,-0.8330,-0.1931,
2025-03-08 19:37:30.345,9.6700,1.3300,3.8600,79.1250,-116.1250,40.3125,-0.5258,0.0421,-0.8290,-0.1858,
2025-03-08 19:37:30.356,9.8900,1.7000,4.0900,75.8125,-116.8125,34.8750,-0.5350,0.0401,-0.8247,-0.1790,
2025-03-08 19:37:30.361,10.1200,1.7500,3.9700,75.8125,-116.8125,34.8750,-0.5441,0.0381,-0.8201,-0.1728,
2025-03-08 19:37:30.380,10.1100,1.6300,3.8400,68.8125,-113.3125,29.6875,-0.5529,0.0360,-0.8157,-0.1664,
2025-03-08 19:37:30.381,10.0900,1.4900,3.9100,56.6250,-108.8750,30.8750,-0.5612,0.0345,-0.8111,-0.1613,
2025-03-08 19:37:30.391,10.9900,1.6600,3.7700,53.3750,-109.0625,36.4375,-0.5693,0.0336,-0.8065,-0.1562,
2025-03-08 19:37:30.401,10.9800,1.4900,3.2300,52.1250,-104.6250,37.1875,-0.5773,0.0331,-0.8018,-0.1508,
2025-03-08 19:37:30.453,10.3400,1.1100,3.5800,52.1250,-104.6250,37.1875,-0.5849,0.0327,-0.7973,-0.1454,
2025-03-08 19:37:30.453,10.3000,1.1500,3.8900,57.6250,-102.9375,31.8750,-0.5925,0.0313,-0.7928,-0.1396,
2025-03-08 19:37:30.453,10.5700,1.5200,3.8100,75.9375,-98.8750,25.3750,-0.6000,0.0294,-0.7881,-0.1342,
2025-03-08 19:37:30.453,10.6900,1.8900,3.7400,80.1875,-94.1250,24.8750,-0.6073,0.0267,-0.7835,-0.1284,
2025-03-08 19:37:30.453,10.6000,2.0500,3.5600,79.8125,-89.9375,24.9375,-0.6144,0.0237,-0.7791,-0.1224,
2025-03-08 19:37:30.462,10.5100,2.0200,3.4900,79.8125,-89.9375,24.9375,-0.6210,0.0207,-0.7748,-0.1164,
2025-03-08 19:37:30.472,10.3700,1.9800,3.3400,78.3125,-85.4375,25.6250,-0.6273,0.0176,-0.7707,-0.1103,
2025-03-08 19:37:30.482,10.3000,1.9000,3.2600,74.8125,-81.7500,25.6875,-0.6332,0.0149,-0.7667,-0.1045,
2025-03-08 19:37:30.492,10.6300,1.6900,2.6800,70.6250,-80.9375,25.8125,-0.6391,0.0124,-0.7627,-0.0989,
2025-03-08 19:37:30.512,10.6100,1.5400,2.4200,66.5625,-81.1875,25.9375,-0.6448,0.0102,-0.7585,-0.0936,
2025-03-08 19:37:30.512,10.7700,1.3700,2.1700,61.0000,-81.5000,23.9375,-0.6505,0.0082,-0.7543,-0.0887,
2025-03-08 19:37:30.522,10.8500,1.4300,1.6900,53.5000,-79.5000,20.6250,-0.6559,0.0059,-0.7502,-0.0836,
2025-03-08 19:37:30.552,10.5500,1.6300,1.7000,46.4375,-73.8125,17.4375,-0.6609,0.0045,-0.7462,-0.0799,
2025-03-08 19:37:30.552,10.3500,1.8400,1.6500,41.3750,-67.5625,15.6875,-0.6654,0.0032,-0.7425,-0.0766,
2025-03-08 19:37:30.553,10.2800,1.9800,1.6300,38.1250,-62.8750,15.4375,-0.6696,0.0021,-0.7391,-0.0735,
2025-03-08 19:37:30.562,10.1600,2.0400,1.7000,33.1250,-57.0000,14.6875,-0.6772,-0.0001,-0.7327,-0.0673,
2025-03-08 19:37:30.582,10.1800,1.9100,1.6400,30.7500,-53.8750,14.5000,-0.6807,-0.0009,-0.7297,-0.0647,
2025-03-08 19:37:30.602,10.3100,1.6800,1.5900,21.3125,-46.3125,15.2500,-0.6869,-0.0016,-0.7242,-0.0600,
2025-03-08 19:37:30.602,10.3400,1.7400,1.5700,15.0000,-41.1875,13.7500,-0.6884,-0.0024,-0.7229,-0.0593,
2025-03-08 19:37:30.622,10.3800,1.9100,1.5200,10.2500,-34.1250,11.5000,-0.6894,-0.0032,-0.7219,-0.0590,
2025-03-08 19:37:30.632,10.4200,1.8800,1.3300,6.6250,-26.4375,8.8125,-0.6901,-0.0039,-0.7213,-0.0591,
2025-03-08 19:37:30.647,10.5400,1.6900,0.9600,3.3125,-19.0625,6.3750,-0.6913,-0.0037,-0.7202,-0.0585,
2025-03-08 19:37:30.661,10.1100,1.2800,0.9500,-0.2500,-2.3125,-2.7500,-0.6921,-0.0037,-0.7194,-0.0585,
2025-03-08 19:37:30.684,10.2600,1.5900,1.1400,-1.6875,3.6875,-5.7500,-0.6918,-0.0039,-0.7196,-0.0590,
2025-03-08 19:37:30.684,10.3200,1.8000,1.3300,-4.0000,7.6875,-7.1875,-0.6914,-0.0041,-0.7200,-0.0596,
2025-03-08 19:37:30.692,10.2300,1.9100,1.3700,-4.5625,10.8125,-8.6875,-0.6907,-0.0044,-0.7206,-0.0604,
2025-03-08 19:37:30.702,10.2300,1.7100,1.2800,-5.0625,14.3750,-9.5625,-0.6898,-0.0047,-0.7214,-0.0613,
2025-03-08 19:37:30.712,10.3700,1.4700,1.1300,-9.3750,18.0625,-9.3750,-0.6886,-0.0048,-0.7224,-0.0624,
2025-03-08 19:37:30.712,10.3200,1.2600,0.9400,-14.6875,22.6875,-9.3750,-0.6871,-0.0045,-0.7237,-0.0639,
2025-03-08 19:37:30.732,10.1900,1.2500,0.9100,-17.6250,28.3125,-10.6875,-0.6853,-0.0042,-0.7253,-0.0656,
2025-03-08 19:37:30.742,10.5500,1.8500,0.7300,-19.3125,34.8125,-11.8125,-0.6831,-0.0039,-0.7272,-0.0674,
2025-03-08 19:37:30.755,10.6200,2.3600,1.2100,-16.5625,41.0625,-14.5625,-0.6804,-0.0039,-0.7295,-0.0692,
2025-03-08 19:37:30.762,10.6400,2.5900,1.5600,-27.7500,43.0625,-13.4375,-0.6776,-0.0032,-0.7319,-0.0717,
2025-03-08 19:37:30.772,10.9100,2.8800,1.8800,-32.3750,47.3125,-13.5625,-0.6744,-0.0022,-0.7346,-0.0745,
2025-03-08 19:37:30.782,11.0100,2.5000,2.0400,-39.6250,52.7500,-13.5625,-0.6709,-0.0009,-0.7375,-0.0776,
2025-03-08 19:37:30.792,10.9700,2.0500,2.2600,-49.7500,58.5000,-14.6250,-0.6669,0.0010,-0.7407,-0.0813,
2025-03-08 19:37:30.802,10.8800,1.7600,2.4600,-59.8750,64.3750,-17.1250,-0.6625,0.0034,-0.7442,-0.0857,
2025-03-08 19:37:30.802,10.7500,1.5100,2.6600,-69.3125,69.6250,-20.4375,-0.6576,0.0061,-0.7479,-0.0909,
2025-03-08 19:37:30.822,10.7600,1.5500,2.7700,-76.7500,74.3125,-24.3125,-0.6523,0.0092,-0.7517,-0.0970,
2025-03-08 19:37:30.832,10.8000,1.6100,2.8500,-79.9375,79.8750,-26.3750,-0.6465,0.0122,-0.7558,-0.1031,
2025-03-08 19:37:30.842,10.7600,1.5000,2.9700,-81.4375,86.6875,-27.5000,-0.6402,0.0151,-0.7602,-0.1094,
2025-03-08 19:37:30.852,10.5600,1.2500,2.9600,-83.1250,94.5000,-27.8125,-0.6334,0.0181,-0.7649,-0.1158,
2025-03-08 19:37:30.862,10.3100,1.0300,3.0000,-83.8125,101.5625,-28.5625,-0.6260,0.0210,-0.7698,-0.1223,
2025-03-08 19:37:30.871,10.0600,0.9400,3.1200,-83.1250,107.1250,-30.0000,-0.6182,0.0241,-0.7749,-0.1293,
2025-03-08 19:37:30.882,9.8500,1.0000,3.6300,-84.9375,110.7500,-31.9375,-0.6100,0.0268,-0.7801,-0.1360,
2025-03-08 19:37:30.891,9.9600,1.3600,3.9900,-89.4375,112.3750,-32.1250,-0.6016,0.0297,-0.7853,-0.1431,
2025-03-08 19:37:30.901,10.2000,1.8300,4.3700,-95.1875,115.9375,-29.1875,-0.5928,0.0331,-0.7905,-0.1501,
2025-03-08 19:37:30.901,10.6800,1.2700,4.9900,-100.1875,124.5000,-24.6250,-0.5833,0.0370,-0.7961,-0.1571,
2025-03-08 19:37:30.922,10.7100,0.7000,5.3200,-107.5000,137.6875,-23.0625,-0.5726,0.0417,-0.8020,-0.1649,
2025-03-08 19:37:30.932,10.2400,0.3900,5.5100,-114.5625,148.7500,-26.5625,-0.5609,0.0461,-0.8083,-0.1727,
2025-03-08 19:37:30.943,9.8700,0.3300,5.7400,-116.8750,157.4375,-31.6875,-0.5485,0.0502,-0.8148,-0.1810,
2025-03-08 19:37:30.953,9.7500,0.6200,5.6000,-113.1250,160.3125,-34.4375,-0.5358,0.0540,-0.8211,-0.1893,
2025-03-08 19:37:30.953,9.6600,0.7400,5.7500,-104.4375,159.8750,-34.3750,-0.5231,0.0571,-0.8272,-0.1971,
2025-03-08 19:37:30.983,9.7400,0.8600,5.7900,-94.8125,160.0625,-32.5625,-0.5104,0.0598,-0.8331,-0.2046,
2025-03-08 19:37:30.992,9.5200,0.8800,5.7800,-85.3750,160.7500,-29.7500,-0.4977,0.0618,-0.8389,-0.2112,
2025-03-08 19:37:30.992,9.4900,0.9400,5.8700,-78.5625,161.8750,-27.8125,-0.4849,0.0632,-0.8447,-0.2174,
2025-03-08 19:37:31.002,9.4700,0.8800,5.8700,-74.0625,162.0000,-27.5000,-0.4721,0.0644,-0.8504,-0.2231,
2025-03-08 19:37:31.012,9.3800,0.8100,5.8900,-72.0000,161.0000,-26.1875,-0.4593,0.0655,-0.8558,-0.2288,
2025-03-08 19:37:31.014,8.9400,0.3800,5.7900,-70.9375,160.0625,-25.0000,-0.4464,0.0668,-0.8609,-0.2347,
2025-03-08 19:37:31.032,8.6300,0.5000,6.0200,-68.2500,159.3125,-23.3125,-0.4335,0.0678,-0.8660,-0.2398,
2025-03-08 19:37:31.047,8.4900,0.6500,6.1500,-62.4375,158.7500,-20.0000,-0.4207,0.0684,-0.8710,-0.2444,
2025-03-08 19:37:31.052,8.7300,1.1500,6.5500,-56.6875,156.8750,-16.9375,-0.4081,0.0687,-0.8758,-0.2486,
2025-03-08 19:37:31.073,8.8100,1.2200,6.6600,-52.7500,153.9375,-15.6250,-0.3956,0.0688,-0.8804,-0.2524,
2025-03-08 19:37:31.073,8.7800,1.0800,6.8300,-51.0625,151.8750,-14.7500,-0.3832,0.0690,-0.8846,-0.2565,
2025-03-08 19:37:31.082,8.4500,1.0300,6.8700,-51.9375,150.8750,-14.1875,-0.3709,0.0692,-0.8888,-0.2600,
2025-03-08 19:37:31.092,7.5800,0.6800,6.7800,-51.1875,150.4375,-12.8125,-0.3585,0.0693,-0.8929,-0.2635,
2025-03-08 19:37:31.108,7.1400,0.5000,6.8900,-50.8125,149.3750,-12.2500,-0.3462,0.0694,-0.8968,-0.2668,
2025-03-08 19:37:31.114,6.7800,0.3300,6.9200,-49.8125,147.4375,-13.6250,-0.3339,0.0695,-0.9004,-0.2701,
2025-03-08 19:37:31.115,6.5000,0.2400,6.7500,-47.1250,144.8750,-14.5625,-0.3218,0.0695,-0.9036,-0.2741,
2025-03-08 19:37:31.135,6.2500,0.1600,7.2900,-47.3750,141.5000,-15.3125,-0.3100,0.0695,-0.9067,-0.2773,
2025-03-08 19:37:31.141,6.2700,0.0900,7.3300,-38.7500,138.6250,-12.8750,-0.2985,0.0688,-0.9098,-0.2801,
2025-03-08 19:37:31.145,6.2000,-0.0100,7.3800,-33.4375,136.7500,-9.5625,-0.2873,0.0679,-0.9127,-0.2825,
2025-03-08 19:37:31.172,5.7200,-0.1400,7.3700,-29.1250,134.0000,-5.8125,-0.2763,0.0668,-0.9156,-0.2844,
2025-03-08 19:37:31.176,5.4400,-0.1500,7.3600,-19.3750,127.1250,0.3750,-0.2659,0.0655,-0.9182,-0.2862,
2025-03-08 19:37:31.181,5.3100,-0.0600,7.1600,-19.3750,127.1250,0.3750,-0.2556,0.0639,-0.9209,-0.2874,
2025-03-08 19:37:31.198,5.0200,0.0200,7.0800,-17.3125,122.9375,0.5625,-0.2455,0.0623,-0.9234,-0.2884,
2025-03-08 19:37:31.198,4.3300,0.3200,7.2600,-16.1250,120.4375,0.3125,-0.2357,0.0606,-0.9258,-0.2893,
2025-03-08 19:37:31.211,4.2000,0.6200,7.3400,-21.0000,113.2500,0.8750,-0.2264,0.0595,-0.9279,-0.2902,
2025-03-08 19:37:31.222,4.2200,0.8100,7.4000,-27.2500,110.4375,1.3750,-0.2170,0.0591,-0.9297,-0.2917,
2025-03-08 19:37:31.227,4.2600,0.4400,7.4600,-34.8125,108.3125,1.1875,-0.2076,0.0591,-0.9315,-0.2928,
2025-03-08 19:37:31.247,4.0900,0.3000,7.5000,-42.3125,106.0000,1.8125,-0.1982,0.0599,-0.9331,-0.2939,
2025-03-08 19:37:31.253,3.7900,0.0700,7.4900,-47.9375,103.0000,2.1875,-0.1888,0.0612,-0.9346,-0.2950,
2025-03-08 19:37:31.264,3.4100,-0.0500,7.4100,-49.5000,99.0625,2.1875,-0.1798,0.0626,-0.9360,-0.2961,
2025-03-08 19:37:31.295,2.6200,-0.0600,7.2800,-47.9375,95.1875,3.5000,-0.1798,0.0626,-0.9360,-0.2961,
2025-03-08 19:37:31.295,2.3900,-0.0800,7.1600,-48.0625,90.0625,4.6250,-0.1710,0.0641,-0.9371,-0.2974,
2025-03-08 19:37:31.295,2.2600,-0.1600,7.0700,-47.6875,86.5000,4.5625,-0.1545,0.0674,-0.9393,-0.2989,
2025-03-08 19:37:31.305,2.1900,-0.5300,7.1600,-46.3750,83.4375,4.6875,-0.1467,0.0690,-0.9402,-0.2996,
2025-03-08 19:37:31.312,2.3200,-0.8300,7.3600,-45.1875,78.8125,4.1875,-0.1393,0.0707,-0.9410,-0.3003,
2025-03-08 19:37:31.322,2.5500,-1.0700,7.5400,-42.0625,73.0625,4.8750,-0.1393,0.0707,-0.9410,-0.3003,
2025-03-08 19:37:31.336,2.5800,-1.1300,7.6600,-36.8750,66.0625,6.5625,-0.1324,0.0723,-0.9416,-0.3011,
2025-03-08 19:37:31.346,2.4300,-0.8200,7.6700,-31.3750,60.1250,7.4375,-0.1205,0.0746,-0.9429,-0.3015,
2025-03-08 19:37:31.352,2.2100,-0.6400,7.7100,-26.5625,53.7500,7.9375,-0.1155,0.0754,-0.9435,-0.3014,
2025-03-08 19:37:31.362,2.1200,-0.6300,7.6900,-23.0000,47.6250,8.1875,-0.1110,0.0762,-0.9440,-0.3013,
2025-03-08 19:37:31.378,2.0200,-0.8400,7.5900,-21.8125,42.1875,7.3750,-0.1110,0.0762,-0.9440,-0.3013,
2025-03-08 19:37:31.382,2.0500,-0.8800,7.5900,-22.1875,36.5000,7.1250,-0.1071,0.0770,-0.9442,-0.3017,
2025-03-08 19:37:31.392,2.0800,-0.8200,7.7700,-22.5625,31.0625,7.4375,-0.1035,0.0779,-0.9446,-0.3016,
2025-03-08 19:37:31.402,2.1100,-0.9000,7.9500,-23.5625,26.0000,7.0625,-0.1004,0.0789,-0.9449,-0.3013,
2025-03-08 19:37:31.412,2.0000,-1.3300,8.1100,-22.7500,20.8750,6.3125,-0.0977,0.0802,-0.9452,-0.3011,
2025-03-08 19:37:31.422,1.9400,-1.5400,8.0800,-19.0625,15.5000,7.1875,-0.0954,0.0815,-0.9453,-0.3010,
2025-03-08 19:37:31.432,1.6600,-1.7000,8.1100,-12.8125,8.2500,9.2500,-0.0936,0.0828,-0.9455,-0.3007,
2025-03-08 19:37:31.442,1.4300,-1.7600,7.9700,-5.7500,0.5625,10.3750,-0.0925,0.0836,-0.9457,-0.3001,
2025-03-08 19:37:31.452,1.2700,-1.1900,7.7900,-1.3125,-3.3125,11.3125,-0.0923,0.0842,-0.9459,-0.2993,
2025-03-08 19:37:31.463,1.5100,-1.3000,7.5000,1.0625,-7.3750,12.3750,-0.0925,0.0845,-0.9462,-0.2984,
2025-03-08 19:37:31.473,1.5100,-1.5400,7.5600,-0.3750,-12.3125,11.1875,-0.0930,0.0847,-0.9464,-0.2974,
2025-03-08 19:37:31.482,2.1000,-1.5700,7.3700,-0.1875,-19.1875,11.0000,-0.0939,0.0851,-0.9466,-0.2965,
2025-03-08 19:37:31.493,2.1400,-1.5300,7.4800,1.3125,-26.1250,11.2500,-0.0954,0.0856,-0.9467,-0.2955,
2025-03-08 19:37:31.501,2.0800,-1.3400,7.6200,2.0000,-35.1875,9.6250,-0.0974,0.0862,-0.9468,-0.2944,
2025-03-08 19:37:31.512,2.1100,-1.0800,7.6300,1.3125,-42.6250,7.5000,-0.1002,0.0870,-0.9468,-0.2933,
2025-03-08 19:37:31.522,2.0100,-0.7400,7.8600,-0.8125,-48.5625,5.4375,-0.1036,0.0881,-0.9466,-0.2924,
2025-03-08 19:37:31.522,2.0100,-0.7400,7.8600,-2.7500,-53.5000,4.1250,-0.1074,0.0895,-0.9460,-0.2924,
2025-03-08 19:37:31.542,1.9500,-0.8700,7.8600,-5.4375,-56.5625,4.0000,-0.1115,0.0911,-0.9456,-0.2917,
2025-03-08 19:37:31.552,2.1600,-0.9800,7.6800,-8.5000,-59.1250,5.1875,-0.1158,0.0930,-0.9451,-0.2910,
2025-03-08 19:37:31.562,2.2500,-1.1000,7.7100,-10.3750,-60.5625,4.7500,-0.1204,0.0951,-0.9446,-0.2902,
2025-03-08 19:37:31.582,2.5100,-1.1500,7.7700,-10.2500,-64.8125,2.9375,-0.1249,0.0975,-0.9440,-0.2894,
2025-03-08 19:37:31.582,2.7000,-1.2200,7.9300,-7.1875,-68.7500,2.3750,-0.1298,0.0999,-0.9433,-0.2888,
2025-03-08 19:37:31.592,2.6100,-1.6900,8.3700,-2.5625,-73.1250,1.6250,-0.1351,0.1022,-0.9425,-0.2881,
2025-03-08 19:37:31.602,2.6800,-1.7600,8.4000,4.2500,-78.9375,1.6250,-0.1408,0.1042,-0.9417,-0.2874,
2025-03-08 19:37:31.612,2.8100,-1.7200,8.4000,12.3125,-83.4375,3.4375,-0.1472,0.1058,-0.9408,-0.2865,
2025-03-08 19:37:31.622,2.8100,-1.7200,8.4000,20.1875,-85.1250,4.8750,-0.1540,0.1069,-0.9399,-0.2853,
2025-03-08 19:37:31.632,3.4500,-1.7900,7.9400,25.8125,-85.3750,3.3750,-0.1612,0.1074,-0.9390,-0.2842,
2025-03-08 19:37:31.642,3.5800,-1.3000,7.8200,32.0625,-89.3750,1.3750,-0.1686,0.1075,-0.9381,-0.2828,
2025-03-08 19:37:31.653,3.6100,-0.7000,7.7900,37.9375,-93.7500,2.1875,-0.1764,0.1071,-0.9372,-0.2814,
2025-03-08 19:37:31.672,3.7100,-0.1400,7.9800,38.8750,-96.2500,3.1250,-0.1847,0.1063,-0.9361,-0.2798,
2025-03-08 19:37:31.676,3.7100,-0.1400,7.9800,31.6875,-101.1875,0.9375,-0.1932,0.1056,-0.9350,-0.2780,
2025-03-08 19:37:31.681,3.9100,-0.1000,8.1100,21.9375,-106.1875,-0.6250,-0.2019,0.1055,-0.9336,-0.2766,
2025-03-08 19:37:31.698,4.9700,-0.3500,8.1500,15.0625,-108.6250,1.5625,-0.2108,0.1062,-0.9319,-0.2753,
2025-03-08 19:37:31.704,5.3000,-0.7600,7.8200,10.5625,-107.4375,5.0000,-0.2197,0.1075,-0.9301,-0.2739,
2025-03-08 19:37:31.712,5.3700,-1.0500,7.6000,8.1875,-105.7500,4.8750,-0.2283,0.1093,-0.9283,-0.2724,
2025-03-08 19:37:31.742,5.3700,-1.0500,7.6000,8.1250,-107.3750,2.3125,-0.2368,0.1112,-0.9264,-0.2708,
2025-03-08 19:37:31.742,5.2900,-1.1300,7.5700,8.1250,-107.3750,2.3125,-0.2452,0.1132,-0.9243,-0.2698,
2025-03-08 19:37:31.742,4.6500,-0.5300,8.0400,22.7500,-112.0000,-0.8750,-0.2541,0.1145,-0.9221,-0.2684,
2025-03-08 19:37:31.752,4.6400,-0.4200,8.0800,26.8750,-117.9375,-1.3750,-0.2634,0.1152,-0.9198,-0.2669,
2025-03-08 19:37:31.763,5.3100,-0.0400,8.2000,28.0000,-126.6250,-0.4375,-0.2731,0.1158,-0.9174,-0.2653,
2025-03-08 19:37:31.771,5.3100,-0.0400,8.2000,28.0000,-126.6250,-0.4375,-0.2836,0.1165,-0.9147,-0.2634,
2025-03-08 19:37:31.782,6.8200,-0.0700,7.4500,29.2500,-133.5000,3.2500,-0.2945,0.1172,-0.9118,-0.2611,
2025-03-08 19:37:31.802,8.0300,-0.9400,6.2000,21.6250,-124.1250,-0.2500,-0.3051,0.1183,-0.9088,-0.2589,
2025-03-08 19:37:31.802,7.1400,-0.4200,7.5700,28.3125,-124.0000,-1.2500,-0.3151,0.1193,-0.9058,-0.2571,
2025-03-08 19:37:31.812,6.7000,-0.1800,7.9900,43.2500,-126.2500,-4.0000,-0.3251,0.1198,-0.9027,-0.2551,
2025-03-08 19:37:31.833,6.7000,-0.1800,7.9900,43.2500,-126.2500,-4.0000,-0.3357,0.1191,-0.8995,-0.2530,
2025-03-08 19:37:31.842,6.4300,-0.1500,7.9600,55.4375,-130.9375,-9.4375,-0.3469,0.1174,-0.8961,-0.2507,
2025-03-08 19:37:31.842,6.3700,-0.2500,7.6700,65.1875,-139.5000,-6.3750,-0.3586,0.1153,-0.8924,-0.2484,
2025-03-08 19:37:31.864,7.3200,0.0400,7.1300,66.1875,-138.8125,1.2500,-0.3705,0.1131,-0.8886,-0.2455,
2025-03-08 19:37:31.864,8.0500,-0.2400,6.4900,65.4375,-132.0625,6.3750,-0.3823,0.1111,-0.8848,-0.2420,
2025-03-08 19:37:31.892,8.3600,-0.6600,5.7500,65.4375,-132.0625,6.3750,-0.3934,0.1091,-0.8812,-0.2382,
2025-03-08 19:37:31.892,7.7500,-0.4100,6.0900,67.9375,-126.6875,7.5000,-0.4041,0.1068,-0.8778,-0.2341,
2025-03-08 19:37:31.892,7.7800,0.1200,6.6600,86.5625,-132.7500,12.1875,-0.4150,0.1039,-0.8742,-0.2296,
2025-03-08 19:37:31.902,7.9500,0.4900,6.9400,90.8125,-135.8750,10.8750,-0.4264,0.1006,-0.8705,-0.2244,
2025-03-08 19:37:31.912,8.0000,0.5500,7.0300,89.5000,-135.6250,8.9375,-0.4380,0.0969,-0.8665,-0.2192,
2025-03-08 19:37:31.912,8.2300,0.3700,6.7100,89.5000,-135.6250,8.9375,-0.4494,0.0931,-0.8623,-0.2141,
2025-03-08 19:37:31.922,8.3600,0.2700,6.5000,87.2500,-132.1875,9.6875,-0.4605,0.0895,-0.8580,-0.2090,
2025-03-08 19:37:31.942,8.4800,0.3000,6.4000,86.2500,-127.8125,16.3750,-0.4713,0.0860,-0.8538,-0.2037,
2025-03-08 19:37:31.952,9.7000,0.3100,4.8700,86.6250,-123.0000,19.9375,-0.4818,0.0826,-0.8496,-0.1982,
2025-03-08 19:37:31.964,9.3100,0.1000,4.5700,91.3750,-117.9375,19.2500,-0.4919,0.0793,-0.8454,-0.1924,
2025-03-08 19:37:31.972,8.9200,0.1800,4.9400,91.3750,-117.9375,19.2500,-0.5017,0.0754,-0.8414,-0.1864,
2025-03-08 19:37:31.972,9.0100,0.5200,5.3100,100.3125,-119.1875,18.7500,-0.5115,0.0709,-0.8372,-0.1799,
2025-03-08 19:37:31.992,9.8100,1.0800,5.1600,107.2500,-128.5000,20.1250,-0.5219,0.0661,-0.8327,-0.1732,
2025-03-08 19:37:32.003,9.9100,1.1400,4.9900,102.5000,-126.2500,20.3125,-0.5323,0.0613,-0.8278,-0.1663,
2025-03-08 19:37:32.012,10.0200,1.1700,4.7600,92.9375,-121.0625,22.6875,-0.5424,0.0569,-0.8229,-0.1596,
2025-03-08 19:37:32.019,10.9700,1.4700,4.3500,92.9375,-121.0625,22.6875,-0.5519,0.0531,-0.8180,-0.1531,
2025-03-08 19:37:32.032,10.8800,1.1000,3.8500,81.5000,-115.6250,25.6875,-0.5609,0.0499,-0.8133,-0.1467,
2025-03-08 19:37:32.042,9.9700,0.6400,3.8400,67.3125,-105.1875,20.6250,-0.5690,0.0475,-0.8087,-0.1412,
2025-03-08 19:37:32.052,9.4600,0.5700,4.0300,74.4375,-106.2500,19.1250,-0.5769,0.0452,-0.8041,-0.1361,
2025-03-08 19:37:32.064,9.7100,1.3700,4.1100,78.4375,-108.3125,19.0000,-0.5848,0.0423,-0.7994,-0.1307,
2025-03-08 19:37:32.064,9.9500,1.9100,3.8900,78.4375,-108.3125,19.0000,-0.5930,0.0391,-0.7945,-0.1252,
2025-03-08 19:37:32.073,10.0900,2.1200,3.7400,71.8125,-106.8750,17.3125,-0.6008,0.0363,-0.7895,-0.1200,
2025-03-08 19:37:32.096,9.9000,1.6900,3.7500,47.2500,-95.4375,15.5625,-0.6080,0.0341,-0.7847,-0.1157,
2025-03-08 19:37:32.103,9.8000,1.3500,3.8900,42.3750,-91.5000,16.6875,-0.6148,0.0327,-0.7800,-0.1119,
2025-03-08 19:37:32.115,9.8600,1.0800,3.8800,42.2500,-89.7500,18.2500,-0.6212,0.0317,-0.7755,-0.1083,
2025-03-08 19:37:32.125,10.2100,0.8400,3.8400,42.2500,-89.7500,18.2500,-0.6273,0.0307,-0.7711,-0.1047,
2025-03-08 19:37:32.132,11.1800,0.5200,2.8700,44.5000,-88.3125,19.6250,-0.6334,0.0294,-0.7667,-0.1006,
2025-03-08 19:37:32.146,10.5600,0.1000,2.9600,42.9375,-73.6875,11.7500,-0.6390,0.0282,-0.7625,-0.0969,
2025-03-08 19:37:32.152,10.2600,0.0800,2.9200,45.1250,-66.3125,10.0000,-0.6441,0.0267,-0.7587,-0.0937,
2025-03-08 19:37:32.164,10.3500,0.4600,2.7700,50.5000,-59.3125,12.0625,-0.6487,0.0248,-0.7553,-0.0905,
2025-03-08 19:37:32.187,10.3000,1.3300,2.7600,50.5000,-59.3125,12.0625,-0.6528,0.0228,-0.7522,-0.0868,
2025-03-08 19:37:32.192,10.1200,1.6100,2.7400,56.9375,-53.2500,12.9375,-0.6566,0.0202,-0.7495,-0.0827,
2025-03-08 19:37:32.192,9.9900,1.7400,2.6100,60.3750,-49.1875,11.3125,-0.6601,0.0173,-0.7469,-0.0785,
2025-03-08 19:37:32.202,9.8300,1.7500,2.2100,57.8750,-47.0000,9.1875,-0.6634,0.0145,-0.7444,-0.0746,
2025-03-08 19:37:32.224,9.8700,1.3800,1.9200,40.3125,-41.1250,7.0000,-0.6693,0.0102,-0.7397,-0.0685,
2025-03-08 19:37:32.228,9.8400,1.1700,1.8200,33.3125,-36.5625,7.7500,-0.6718,0.0087,-0.7378,-0.0661,
2025-03-08 19:37:32.242,9.8100,0.8700,1.5900,29.7500,-31.8750,8.8750,-0.6739,0.0076,-0.7360,-0.0638,
2025-03-08 19:37:32.252,9.8300,0.8000,1.5100,27.4375,-28.4375,10.5625,-0.6758,0.0066,-0.7344,-0.0616,
2025-03-08 19:37:32.269,9.9100,0.7200,1.4400,26.4375,-26.1250,11.0625,-0.6776,0.0057,-0.7330,-0.0593,
2025-03-08 19:37:32.280,10.1900,0.6200,1.2700,28.5000,-23.6250,12.0000,-0.6808,0.0040,-0.7304,-0.0547,
2025-03-08 19:37:32.292,10.2200,0.6200,1.2300,30.3125,-20.7500,12.0625,-0.6822,0.0029,-0.7292,-0.0522,
2025-03-08 19:37:32.302,10.1500,0.6400,1.3000,30.8750,-17.5000,11.6875,-0.6835,0.0017,-0.7283,-0.0497,
2025-03-08 19:37:32.352,9.8400,0.7600,1.3400,29.3750,-13.3125,9.6250,-0.6854,-0.0006,-0.7267,-0.0450,
2025-03-08 19:37:32.352,9.7800,0.8400,1.2300,29.0000,-12.1250,8.6875,-0.6863,-0.0020,-0.7261,-0.0427,
2025-03-08 19:37:32.352,9.7400,1.0200,1.0900,28.8125,-10.6250,7.5625,-0.6871,-0.0033,-0.7255,-0.0406,
2025-03-08 19:37:32.352,9.7000,1.0500,1.0200,28.5000,-9.2500,5.8125,-0.6877,-0.0046,-0.7249,-0.0386,
2025-03-08 19:37:32.372,9.6900,1.0300,1.0500,26.3125,-5.5000,3.0000,-0.6887,-0.0075,-0.7242,-0.0350,
2025-03-08 19:37:32.382,9.5900,0.8600,0.9800,24.3125,-3.8125,1.7500,-0.6890,-0.0087,-0.7239,-0.0336,
2025-03-08 19:37:32.392,9.5600,0.8300,0.9400,22.4375,-2.2500,0.4375,-0.6888,-0.0103,-0.7241,-0.0326,
2025-03-08 19:37:32.402,9.6300,0.8000,0.8400,20.6250,-1.6875,0.1250,-0.6887,-0.0117,-0.7243,-0.0316,
2025-03-08 19:37:32.422,9.7600,0.8600,0.7300,19.3750,-2.0000,0.3750,-0.6886,-0.0131,-0.7243,-0.0306,
2025-03-08 19:37:32.422,9.8400,0.9000,0.6800,18.5625,-2.4375,1.0625,-0.6888,-0.0142,-0.7242,-0.0295,
2025-03-08 19:37:32.432,9.9100,0.9900,0.6600,17.8750,-3.3125,1.6250,-0.6891,-0.0146,-0.7239,-0.0288,
2025-03-08 19:37:32.442,9.9400,1.0200,0.7000,16.0625,-4.0625,2.0000,-0.6894,-0.0155,-0.7237,-0.0278,
2025-03-08 19:37:32.452,9.8600,0.9400,0.7200,12.5000,-4.2500,2.4375,-0.6897,-0.0162,-0.7234,-0.0269,
2025-03-08 19:37:32.462,9.7800,0.9000,0.7300,8.2500,-4.0000,2.5625,-0.6899,-0.0165,-0.7232,-0.0262,
2025-03-08 19:37:32.492,9.7300,0.8800,0.7700,3.6875,-3.8125,2.7500,-0.6900,-0.0167,-0.7231,-0.0261,
2025-03-08 19:37:32.492,9.6600,0.8300,0.8100,0.2500,-3.5625,2.8750,-0.6901,-0.0169,-0.7231,-0.0258,
2025-03-08 19:37:32.492,9.6600,0.7400,0.9200,-1.1250,-3.1875,2.7500,-0.6900,-0.0168,-0.7231,-0.0259,
2025-03-08 19:37:32.502,9.7200,0.6700,0.9800,-0.6250,-2.6875,2.4375,-0.6899,-0.0167,-0.7232,-0.0259,
2025-03-08 19:37:32.512,9.8400,0.6600,1.0300,0.6250,-2.0625,2.4375,-0.6898,-0.0167,-0.7234,-0.0258,
2025-03-08 19:37:32.521,10.0200,0.7200,1.2000,1.7500,-1.0625,2.3125,-0.6898,-0.0167,-0.7233,-0.0255,
2025-03-08 19:37:32.521,10.0200,0.7500,1.1900,2.0625,0.1250,2.5625,-0.6898,-0.0168,-0.7233,-0.0250,
2025-03-08 19:37:32.542,9.9900,0.7500,1.1800,1.8750,1.1875,2.5625,-0.6897,-0.0168,-0.7234,-0.0248,
2025-03-08 19:37:32.552,9.9300,0.7700,1.0800,1.8125,1.7500,2.0625,-0.6897,-0.0168,-0.7235,-0.0245,
2025-03-08 19:37:32.562,9.7800,0.7900,0.9600,2.1875,2.0000,1.5000,-0.6895,-0.0168,-0.7237,-0.0243,
2025-03-08 19:37:32.572,9.7500,0.8100,0.9200,2.6875,2.0625,1.0000,-0.6891,-0.0171,-0.7241,-0.0242,
2025-03-08 19:37:32.572,9.7300,0.8000,0.9400,2.4375,1.9375,0.0625,-0.6886,-0.0168,-0.7245,-0.0248,
2025-03-08 19:37:32.582,9.7300,0.7400,0.9000,1.6875,1.6875,-0.3750,-0.6883,-0.0170,-0.7248,-0.0249,
2025-03-08 19:37:32.602,9.7100,0.7200,0.9300,0.2500,1.7500,-0.3125,-0.6879,-0.0171,-0.7252,-0.0250,
2025-03-08 19:37:32.612,9.7400,0.7200,0.9300,-0.6875,1.8750,-0.2500,-0.6876,-0.0172,-0.7255,-0.0251,
2025-03-08 19:37:32.621,9.7300,0.7500,0.9600,-1.0625,2.3750,-0.2500,-0.6872,-0.0172,-0.7258,-0.0253,
2025-03-08 19:37:32.632,9.7300,0.8000,0.9900,-1.3750,2.9375,-0.4375,-0.6868,-0.0170,-0.7262,-0.0257,
2025-03-08 19:37:32.632,9.7300,0.7700,0.9900,-2.0000,3.2500,-0.5000,-0.6863,-0.0170,-0.7267,-0.0259,
2025-03-08 19:37:32.658,9.7400,0.7400,0.9700,-2.5000,3.1875,-0.8750,-0.6859,-0.0170,-0.7271,-0.0262,
2025-03-08 19:37:32.663,9.7800,0.6900,0.9600,-2.6875,3.0000,-1.0625,-0.6855,-0.0170,-0.7274,-0.0265,
2025-03-08 19:37:32.670,9.7900,0.6400,0.9400,-2.3750,2.3750,-0.9375,-0.6852,-0.0169,-0.7277,-0.0267,
2025-03-08 19:37:32.680,9.8300,0.6500,0.9400,-2.1875,1.9375,-0.8750,-0.6849,-0.0167,-0.7280,-0.0270,
2025-03-08 19:37:32.692,9.8700,0.6700,0.9100,-1.6875,1.1875,-0.6875,-0.6847,-0.0167,-0.7281,-0.0272,
2025-03-08 19:37:32.700,9.7900,0.7700,0.9400,-1.2500,0.7500,-0.4375,-0.6845,-0.0167,-0.7283,-0.0273,
2025-03-08 19:37:32.712,9.7100,0.8200,1.0100,-1.5000,0.3125,-0.6250,-0.6843,-0.0167,-0.7285,-0.0275,
2025-03-08 19:37:32.726,9.6900,0.8700,0.9700,-1.8750,-0.0625,-0.6875,-0.6841,-0.0167,-0.7286,-0.0278,
2025-03-08 19:37:32.731,9.6600,0.8500,0.9100,-2.5625,-0.1875,-1.0625,-0.6840,-0.0165,-0.7288,-0.0284,
2025-03-08 19:37:32.740,9.6800,0.8100,0.9000,-3.5625,-0.0625,-1.5000,-0.6838,-0.0165,-0.7289,-0.0288,
2025-03-08 19:37:32.752,9.6800,0.7400,0.9000,-4.7500,0.3750,-1.9375,-0.6836,-0.0164,-0.7290,-0.0293,
2025-03-08 19:37:32.764,9.6600,0.6700,0.9200,-5.8750,0.3750,-1.9375,-0.6835,-0.0161,-0.7291,-0.0298,
2025-03-08 19:37:32.789,9.6500,0.6100,0.9100,-6.5000,0.4375,-2.0000,-0.6834,-0.0159,-0.7292,-0.0303,
2025-03-08 19:37:32.790,9.6600,0.5800,0.9100,-6.2500,0.0625,-2.0000,-0.6833,-0.0156,-0.7293,-0.0308,
2025-03-08 19:37:32.790,9.6800,0.5800,0.9300,-5.4375,-0.6875,-1.6875,-0.6832,-0.0153,-0.7294,-0.0313,
2025-03-08 19:37:32.801,9.6800,0.6100,0.8900,-4.6250,-1.0000,-1.5000,-0.6832,-0.0151,-0.7294,-0.0316,
2025-03-08 19:37:32.815,9.6700,0.6600,0.9400,-3.8125,-1.5625,-1.4375,-0.6832,-0.0150,-0.7294,-0.0319,
2025-03-08 19:37:32.820,9.6700,0.6700,0.9100,-3.4375,-1.8125,-1.4375,-0.6832,-0.0148,-0.7293,-0.0322,
2025-03-08 19:37:32.830,9.6600,0.6800,0.9500,-3.5000,-1.9375,-1.1250,-0.6832,-0.0150,-0.7293,-0.0322,
2025-03-08 19:37:32.841,9.6400,0.6900,0.9600,-3.5625,-2.3125,-0.8750,-0.6833,-0.0148,-0.7293,-0.0325,
2025-03-08 19:37:32.850,9.6500,0.6700,0.9300,-3.6250,-2.6250,-0.9375,-0.6833,-0.0146,-0.7292,-0.0328,
2025-03-08 19:37:32.862,9.7100,0.6800,0.9700,-3.5000,-2.5625,-1.0625,-0.6834,-0.0145,-0.7292,-0.0331,
2025-03-08 19:37:32.872,9.7300,0.6900,0.9900,-3.0625,-2.3750,-0.8750,-0.6834,-0.0143,-0.7292,-0.0333,
2025-03-08 19:37:32.882,9.7600,0.6900,0.9800,-2.9375,-2.1875,-0.8750,-0.6834,-0.0142,-0.7291,-0.0336,
2025-03-08 19:37:32.890,9.7600,0.7000,0.9800,-2.8125,-1.9375,-0.9375,-0.6834,-0.0141,-0.7292,-0.0338,
2025-03-08 19:37:32.903,9.7700,0.7400,0.9400,-2.3125,-1.5000,-1.0000,-0.6833,-0.0140,-0.7292,-0.0341,
2025-03-08 19:37:32.914,9.8000,0.7500,0.9300,-2.0625,-1.5000,-1.0000,-0.6833,-0.0140,-0.7292,-0.0343,
2025-03-08 19:37:32.922,9.7900,0.7600,0.9300,-1.8750,-1.5625,-0.8750,-0.6833,-0.0139,-0.7292,-0.0345,
2025-03-08 19:37:32.935,9.7900,0.7800,0.9300,-1.9375,-1.3750,-0.8750,-0.6833,-0.0137,-0.7292,-0.0349,
2025-03-08 19:37:32.941,9.7500,0.7900,0.9600,-2.0625,-1.4375,-0.8750,-0.6832,-0.0136,-0.7292,-0.0352,
2025-03-08 19:37:32.952,9.7600,0.8300,0.9700,-2.0625,-1.6250,-0.8750,-0.6832,-0.0136,-0.7293,-0.0354,
2025-03-08 19:37:32.966,9.7600,0.8400,0.9800,-2.5000,-1.5000,-1.0000,-0.6831,-0.0135,-0.7293,-0.0356,
2025-03-08 19:37:32.970,9.7900,0.8200,0.9800,-3.1875,-1.5000,-1.1250,-0.6830,-0.0135,-0.7294,-0.0360,
2025-03-08 19:37:32.980,9.8600,0.8400,0.9800,-4.1250,-1.1250,-1.2500,-0.6830,-0.0135,-0.7294,-0.0363,
2025-03-08 19:37:32.990,9.8700,0.8400,0.9700,-4.6875,-0.6250,-1.2500,-0.6828,-0.0134,-0.7295,-0.0367,
2025-03-08 19:37:33.000,9.8900,0.8200,0.9800,-5.1875,-0.3750,-1.1875,-0.6827,-0.0131,-0.7297,-0.0371,
2025-03-08 19:37:33.010,9.8600,0.8400,0.9900,-5.4375,0.0000,-1.4375,-0.6825,-0.0129,-0.7298,-0.0375,
2025-03-08 19:37:33.025,9.8100,0.8500,1.0000,-5.5625,0.1875,-1.6875,-0.6824,-0.0128,-0.7299,-0.0381,
2025-03-08 19:37:33.032,9.7600,0.8900,0.9700,-5.8750,0.0625,-1.8750,-0.6824,-0.0128,-0.7299,-0.0381,
2025-03-08 19:37:33.041,9.7400,0.9100,0.9500,-6.2500,-0.0625,-2.5625,-0.6822,-0.0121,-0.7300,-0.0391,
2025-03-08 19:37:33.054,9.6400,0.8700,0.9000,-6.7500,-0.0625,-3.1875,-0.6819,-0.0118,-0.7302,-0.0403,
2025-03-08 19:37:33.080,9.6300,0.8400,0.9100,-7.5625,0.1250,-3.8125,-0.6818,-0.0117,-0.7303,-0.0411,
2025-03-08 19:37:33.080,9.6400,0.7700,0.9200,-8.4375,-0.1875,-4.1875,-0.6817,-0.0114,-0.7303,-0.0418,
2025-03-08 19:37:33.102,9.6400,0.7000,0.9200,-9.0000,-0.4375,-4.7500,-0.6817,-0.0114,-0.7303,-0.0418,
2025-03-08 19:37:33.102,9.7000,0.5600,0.9000,-9.0000,-0.4375,-4.7500,-0.6816,-0.0112,-0.7304,-0.0425,
2025-03-08 19:37:33.103,9.7400,0.5000,0.9100,-8.6250,-0.8750,-4.5000,-0.6815,-0.0110,-0.7305,-0.0434,
2025-03-08 19:37:33.119,9.7500,0.4900,0.9100,-6.0625,-1.3125,-3.9375,-0.6815,-0.0107,-0.7304,-0.0441,
2025-03-08 19:37:33.127,9.7100,0.6000,0.9400,-4.5000,-1.6250,-3.5000,-0.6815,-0.0106,-0.7304,-0.0447,
2025-03-08 19:37:33.132,9.6800,0.6400,0.9100,-3.2500,-2.1875,-2.9375,-0.6816,-0.0104,-0.7302,-0.0452,
2025-03-08 19:37:33.142,9.6700,0.6900,0.9200,-2.6250,-2.9375,-2.7500,-0.6818,-0.0101,-0.7301,-0.0459,
2025-03-08 19:37:33.152,9.6600,0.7200,0.9000,-2.6250,-3.6250,-2.1875,-0.6818,-0.0101,-0.7300,-0.0462,
2025-03-08 19:37:33.163,9.6700,0.7700,0.9200,-2.9375,-3.6875,-1.9375,-0.6820,-0.0099,-0.7298,-0.0465,
2025-03-08 19:37:33.177,9.6900,0.7500,0.8900,-3.5625,-3.4375,-2.0625,-0.6821,-0.0099,-0.7297,-0.0468,
2025-03-08 19:37:33.184,9.6800,0.7300,0.9100,-3.9375,-3.0000,-2.1875,-0.6823,-0.0098,-0.7295,-0.0471,
2025-03-08 19:37:33.193,9.6900,0.7200,0.9300,-4.0625,-2.7500,-2.0625,-0.6824,-0.0096,-0.7294,-0.0475,
2025-03-08 19:37:33.204,9.7300,0.6900,0.8900,-3.1875,-3.0000,-1.7500,-0.6825,-0.0095,-0.7293,-0.0478,
2025-03-08 19:37:33.212,9.7000,0.7200,0.8900,-2.0625,-3.0625,-1.5625,-0.6826,-0.0093,-0.7292,-0.0481,
2025-03-08 19:37:33.223,9.6900,0.7500,0.9200,-0.9375,-3.1875,-1.5000,-0.6827,-0.0093,-0.7291,-0.0483,
2025-03-08 19:37:33.238,9.7000,0.8400,0.8900,-0.3125,-3.0625,-1.0625,-0.6828,-0.0093,-0.7289,-0.0485,
2025-03-08 19:37:33.242,9.7000,0.8400,0.8900,-0.5000,-2.6875,-1.1250,-0.6829,-0.0093,-0.7288,-0.0485,
2025-03-08 19:37:33.270,9.7100,0.9200,0.8900,-0.6875,-2.5000,-1.0000,-0.6830,-0.0094,-0.7287,-0.0486,
2025-03-08 19:37:33.270,9.6900,0.8700,0.9100,-1.3750,-1.9375,-1.1250,-0.6831,-0.0095,-0.7286,-0.0488,
2025-03-08 19:37:33.272,9.7300,0.8400,0.8900,-1.9375,-1.5000,-1.1875,-0.6831,-0.0095,-0.7286,-0.0489,
2025-03-08 19:37:33.282,9.7300,0.8100,0.9100,-2.3125,-1.1250,-1.1250,-0.6831,-0.0094,-0.7286,-0.0491,
2025-03-08 19:37:33.296,9.7500,0.7800,0.9100,-2.5625,-1.0000,-1.0000,-0.6831,-0.0093,-0.7286,-0.0493,
2025-03-08 19:37:33.304,9.7900,0.8200,0.9200,-2.1875,-0.9375,-0.7500,-0.6831,-0.0093,-0.7286,-0.0496,
2025-03-08 19:37:33.314,9.7900,0.8100,0.9300,-2.1250,-0.8125,-0.5000,-0.6830,-0.0092,-0.7286,-0.0497,
2025-03-08 19:37:33.328,9.7700,0.8200,0.9500,-1.8125,-0.7500,-0.2500,-0.6830,-0.0090,-0.7286,-0.0499,
2025-03-08 19:37:33.332,9.7700,0.8200,0.9500,-1.5625,-0.3750,-0.2500,-0.6830,-0.0089,-0.7287,-0.0500,
2025-03-08 19:37:33.346,9.7700,0.8200,0.9400,-1.5625,-0.5000,-0.3750,-0.6829,-0.0090,-0.7288,-0.0499,
2025-03-08 19:37:33.358,9.6900,0.8300,0.9100,-1.8125,-0.3750,-0.3750,-0.6828,-0.0089,-0.7288,-0.0500,
2025-03-08 19:37:33.362,9.7100,0.8300,0.9000,-2.5000,-0.4375,-0.1875,-0.6827,-0.0089,-0.7289,-0.0501,
2025-03-08 19:37:33.389,9.7300,0.7600,0.9100,-2.9375,-0.0625,-0.3125,-0.6826,-0.0087,-0.7290,-0.0503,
2025-03-08 19:37:33.389,9.7300,0.7600,0.9100,-2.8750,0.1250,-0.0625,-0.6825,-0.0085,-0.7291,-0.0505,
2025-03-08 19:37:33.390,9.7500,0.7300,0.9300,-2.3750,0.1875,0.1250,-0.6825,-0.0088,-0.7291,-0.0501,
2025-03-08 19:37:33.403,9.7400,0.7000,0.9100,-1.5000,0.0000,0.0625,-0.6824,-0.0087,-0.7292,-0.0502,
2025-03-08 19:37:33.416,9.7500,0.6900,0.9100,-0.6250,0.1250,0.3125,-0.6823,-0.0085,-0.7293,-0.0503,
2025-03-08 19:37:33.426,9.7600,0.7200,0.9300,0.1250,0.1875,0.5625,-0.6822,-0.0085,-0.7294,-0.0504,
2025-03-08 19:37:33.432,9.7600,0.7200,0.9300,0.8125,0.0625,0.5625,-0.6822,-0.0084,-0.7294,-0.0503,
2025-03-08 19:37:33.447,9.7600,0.8200,0.9000,0.7500,0.0000,0.9375,-0.6821,-0.0084,-0.7295,-0.0504,
2025-03-08 19:37:33.458,9.7300,0.8500,0.8500,0.8125,0.0000,1.0000,-0.6820,-0.0084,-0.7295,-0.0502,
2025-03-08 19:37:33.467,9.7300,0.8400,0.8500,0.4375,0.1250,0.8125,-0.6820,-0.0084,-0.7296,-0.0502,
2025-03-08 19:37:33.476,9.7200,0.8900,0.8800,-0.1875,0.1250,0.7500,-0.6820,-0.0084,-0.7296,-0.0501,
2025-03-08 19:37:33.482,9.7200,0.8900,0.8800,-1.0000,0.1875,0.6250,-0.6819,-0.0083,-0.7297,-0.0501,
2025-03-08 19:37:33.500,9.7300,0.7700,0.8800,-1.5000,0.3750,0.6250,-0.6819,-0.0081,-0.7297,-0.0502,
2025-03-08 19:37:33.514,9.7500,0.7500,0.8800,-1.4375,0.3750,0.5000,-0.6818,-0.0080,-0.7297,-0.0503,
2025-03-08 19:37:33.518,9.7400,0.7500,0.9100,-1.0625,0.1875,0.5000,-0.6818,-0.0079,-0.7298,-0.0504,
2025-03-08 19:37:33.525,9.7400,0.7900,0.9100,-0.5625,0.1875,0.4375,-0.6817,-0.0079,-0.7299,-0.0504,
2025-03-08 19:37:33.536,9.7400,0.7900,0.9100,-0.5625,0.1875,0.4375,-0.6817,-0.0079,-0.7299,-0.0504,
2025-03-08 19:37:33.543,9.7300,0.8300,0.8800,0.7500,0.1250,0.1250,-0.6816,-0.0079,-0.7299,-0.0504,
2025-03-08 19:37:33.553,9.7300,0.8300,0.8800,0.7500,0.1875,0.0000,-0.6816,-0.0079,-0.7300,-0.0504,
2025-03-08 19:37:33.570,9.7300,0.7900,0.8600,0.1875,0.1875,0.1875,-0.6815,-0.0079,-0.7300,-0.0504,
2025-03-08 19:37:33.572,9.7500,0.7700,0.8400,-0.0625,0.4375,0.0625,-0.6815,-0.0079,-0.7300,-0.0504,
2025-03-08 19:37:33.582,9.7300,0.7500,0.8500,-0.0625,0.4375,0.0625,-0.6815,-0.0079,-0.7301,-0.0504,
2025-03-08 19:37:33.598,9.7300,0.7300,0.8700,-0.3750,-0.3125,0.0625,-0.6814,-0.0079,-0.7301,-0.0504,
2025-03-08 19:37:33.603,9.7200,0.7700,0.8500,-0.0625,-0.3750,0.0625,-0.6814,-0.0079,-0.7301,-0.0504,
2025-03-08 19:37:33.613,9.7000,0.7700,0.8600,0.6250,-0.4375,0.1875,-0.6814,-0.0079,-0.7301,-0.0504,
2025-03-08 19:37:33.623,9.7100,0.7800,0.8700,1.1250,-0.4375,0.1250,-0.6814,-0.0080,-0.7302,-0.0504,
2025-03-08 19:37:33.632,9.7200,0.8300,0.8900,1.1250,-0.4375,0.1250,-0.6813,-0.0081,-0.7302,-0.0503,
2025-03-08 19:37:33.642,9.7100,0.8700,0.9100,1.3125,-0.3125,0.3750,-0.6813,-0.0082,-0.7303,-0.0502,
2025-03-08 19:37:33.652,9.7200,0.8700,0.9100,0.6875,-0.1875,0.0000,-0.6812,-0.0082,-0.7303,-0.0502,
2025-03-08 19:37:33.662,9.7100,0.8600,0.8800,-0.1250,-0.0625,-0.3125,-0.6812,-0.0083,-0.7304,-0.0502,
2025-03-08 19:37:33.688,9.7400,0.8200,0.9100,-0.6250,0.0625,-0.5000,-0.6811,-0.0083,-0.7304,-0.0502,
2025-03-08 19:37:33.692,9.7400,0.7900,0.8900,-0.6250,0.0625,-0.5000,-0.6811,-0.0083,-0.7304,-0.0502,
2025-03-08 19:37:33.692,9.7400,0.7500,0.9000,-0.3125,-0.1250,-0.8125,-0.6810,-0.0083,-0.7305,-0.0502,
2025-03-08 19:37:33.702,9.7400,0.7800,0.8600,0.0625,-0.3750,-0.7500,-0.6810,-0.0084,-0.7305,-0.0503,
2025-03-08 19:37:33.712,9.7200,0.7900,0.8700,0.5625,-0.6250,-0.6875,-0.6810,-0.0084,-0.7305,-0.0504,
2025-03-08 19:37:33.723,9.7100,0.8100,0.8600,0.8750,-0.8125,-0.5625,-0.6810,-0.0085,-0.7305,-0.0504,
2025-03-08 19:37:33.738,9.7300,0.8100,0.8600,0.8750,-0.8125,-0.5625,-0.6810,-0.0085,-0.7305,-0.0504,
2025-03-08 19:37:33.750,9.7100,0.8300,0.8600,0.6250,-0.3125,-0.2500,-0.6810,-0.0085,-0.7305,-0.0503,
2025-03-08 19:37:33.754,9.7100,0.8400,0.8600,0.2500,-0.2500,-0.2500,-0.6810,-0.0086,-0.7305,-0.0503,
2025-03-08 19:37:33.765,9.7500,0.8300,0.8700,0.0000,0.0000,-0.2500,-0.6810,-0.0086,-0.7305,-0.0503,
2025-03-08 19:37:33.777,9.7800,0.8300,0.8800,-0.1250,0.0625,-0.3750,-0.6810,-0.0086,-0.7305,-0.0503,
2025-03-08 19:37:33.782,9.8000,0.8300,0.9100,-0.1250,0.0625,-0.3750,-0.6809,-0.0086,-0.7306,-0.0503,
2025-03-08 19:37:33.797,9.8000,0.8000,0.9200,-0.4375,0.1250,-0.5625,-0.6808,-0.0086,-0.7306,-0.0503,
2025-03-08 19:37:33.807,9.8100,0.8000,0.9300,-0.3750,-0.0625,-0.3750,-0.6808,-0.0086,-0.7306,-0.0504,
2025-03-08 19:37:33.813,9.7800,0.8300,0.9100,-0.1250,0.1250,-0.3750,-0.6808,-0.0087,-0.7307,-0.0504,
2025-03-08 19:37:33.827,9.7700,0.8300,0.9300,0.0625,0.1250,-0.3750,-0.6807,-0.0087,-0.7308,-0.0504,
2025-03-08 19:37:33.835,9.7700,0.8000,0.9400,0.0625,0.1250,-0.3750,-0.6807,-0.0087,-0.7308,-0.0504,
2025-03-08 19:37:33.844,9.7500,0.7500,0.9100,0.1875,0.6250,-0.4375,-0.6807,-0.0087,-0.7308,-0.0504,
2025-03-08 19:37:33.856,9.7400,0.7300,0.9000,0.6250,0.7500,-0.5000,-0.6806,-0.0087,-0.7309,-0.0504,
2025-03-08 19:37:33.868,9.7200,0.7200,0.8800,1.0000,0.6250,-0.5625,-0.6805,-0.0087,-0.7310,-0.0503,
