A1,,,,,,,,,,,
time,accx,accy,accz,gyrox,gyroy,gyroz,w1,w2,w3,w4,
2025-03-08 19:40:42.565,9.7600,1.7900,-0.3900,-1.2500,1.7500,-2.0000,-0.7180,-0.0274,-0.6891,-0.0943,
2025-03-08 19:40:42.573,9.7700,1.7500,-0.3800,-2.2500,1.8125,-2.2500,-0.7179,-0.0274,-0.6891,-0.0946,
2025-03-08 19:40:42.583,9.7900,1.7100,-0.3600,-3.3125,1.7500,-2.4375,-0.7178,-0.0274,-0.6893,-0.0949,
2025-03-08 19:40:42.590,9.7300,1.6800,-0.2600,-3.6875,1.3125,-2.1250,-0.7176,-0.0273,-0.6893,-0.0953,
2025-03-08 19:40:42.600,9.6600,1.6900,-0.2500,-3.0000,1.2500,-1.8750,-0.7175,-0.0273,-0.6894,-0.0956,
2025-03-08 19:40:42.612,9.6300,1.6900,-0.2300,-1.8125,1.4375,-1.5000,-0.7175,-0.0273,-0.6894,-0.0958,
2025-03-08 19:40:42.627,9.5900,1.7200,-0.2700,-0.1875,1.0625,-0.8125,-0.7174,-0.0273,-0.6895,-0.0958,
2025-03-08 19:40:42.635,9.6500,1.8000,-0.3400,1.0625,1.1875,-0.3125,-0.7173,-0.0274,-0.6896,-0.0958,
2025-03-08 19:40:42.640,9.6600,1.8600,-0.3900,1.6875,1.2500,0.3750,-0.7173,-0.0275,-0.6896,-0.0956,
2025-03-08 19:40:42.654,9.6900,1.8700,-0.4000,1.0625,1.5000,0.8750,-0.7172,-0.0275,-0.6897,-0.0955,
2025-03-08 19:40:42.662,9.7200,1.9000,-0.3400,0.1250,1.6250,1.1875,-0.7171,-0.0275,-0.6898,-0.0955,
2025-03-08 19:40:42.688,9.7300,1.9200,-0.3200,-1.3125,1.8750,1.3125,-0.7170,-0.0274,-0.6900,-0.0955,
2025-03-08 19:40:42.690,9.7200,1.8700,-0.2600,-2.1875,1.8125,1.1875,-0.7169,-0.0273,-0.6900,-0.0956,
2025-03-08 19:40:42.690,9.6900,1.8500,-0.2400,-1.9375,1.7500,1.0000,-0.7168,-0.0271,-0.6902,-0.0957,
2025-03-08 19:40:42.701,9.6900,1.8300,-0.2400,-1.3125,2.1250,1.0000,-0.7166,-0.0270,-0.6903,-0.0957,
2025-03-08 19:40:42.711,9.7400,1.8100,-0.2200,-0.0625,1.6875,1.1875,-0.7165,-0.0270,-0.6904,-0.0956,
2025-03-08 19:40:42.728,9.7500,1.8100,-0.2500,0.6875,1.5000,1.8125,-0.7164,-0.0269,-0.6906,-0.0955,
2025-03-08 19:40:42.732,9.8300,1.8000,-0.1600,0.0625,1.6875,2.8125,-0.7164,-0.0268,-0.6907,-0.0954,
2025-03-08 19:40:42.741,9.9600,1.7400,-0.0900,-1.1875,2.3125,3.6250,-0.7162,-0.0265,-0.6909,-0.0952,
2025-03-08 19:40:42.750,10.1500,1.6500,0.0000,-2.4375,3.0625,4.4375,-0.7160,-0.0261,-0.6911,-0.0951,
2025-03-08 19:40:42.763,10.3100,1.5400,0.0900,-2.3750,4.2500,4.6250,-0.7157,-0.0258,-0.6914,-0.0950,
2025-03-08 19:40:42.784,10.2300,1.3300,0.2100,0.7500,6.3750,2.5625,-0.7151,-0.0254,-0.6921,-0.0945,
2025-03-08 19:40:42.803,9.7500,1.5400,0.1700,0.9375,5.3125,-2.5625,-0.7144,-0.0258,-0.6928,-0.0945,
2025-03-08 19:40:42.815,9.3600,1.5900,0.0000,2.7500,3.6875,-3.9375,-0.7142,-0.0262,-0.6931,-0.0946,
2025-03-08 19:40:42.822,9.2400,1.6400,-0.0400,5.6250,1.4375,-3.8125,-0.7142,-0.0268,-0.6931,-0.0945,
2025-03-08 19:40:42.835,9.1400,1.6600,-0.0900,7.3125,-0.5625,-2.8750,-0.7142,-0.0274,-0.6931,-0.0942,
2025-03-08 19:40:42.842,9.0500,1.5800,-0.1500,7.0625,-2.3125,-0.7500,-0.7144,-0.0278,-0.6929,-0.0938,
2025-03-08 19:40:42.846,9.0600,1.5000,-0.2100,6.0000,-2.9375,1.6250,-0.7146,-0.0281,-0.6927,-0.0934,
2025-03-08 19:40:42.866,9.0700,1.5000,-0.2500,5.5000,-2.9375,3.8750,-0.7149,-0.0281,-0.6925,-0.0928,
2025-03-08 19:40:42.871,9.0800,1.5700,-0.3200,5.3750,-2.4375,5.5000,-0.7150,-0.0281,-0.6924,-0.0922,
2025-03-08 19:40:42.881,8.9700,1.6300,-0.2900,4.5000,-1.3125,6.0000,-0.7151,-0.0280,-0.6924,-0.0916,
2025-03-08 19:40:42.891,8.8500,1.7000,-0.2400,2.9375,-0.0625,5.8750,-0.7152,-0.0278,-0.6924,-0.0911,
2025-03-08 19:40:42.902,8.7700,1.7900,-0.2000,1.8750,0.3125,5.5000,-0.7152,-0.0276,-0.6924,-0.0906,
2025-03-08 19:40:42.911,8.8500,1.9300,-0.2500,2.4375,-0.8125,5.7500,-0.7153,-0.0275,-0.6924,-0.0901,
2025-03-08 19:40:42.927,8.9500,2.0200,-0.3000,3.0625,-3.1875,6.6250,-0.7155,-0.0272,-0.6923,-0.0896,
2025-03-08 19:40:42.933,9.0200,2.0200,-0.3200,2.6875,-5.4375,7.8125,-0.7159,-0.0269,-0.6920,-0.0890,
2025-03-08 19:40:42.939,9.1300,1.9200,-0.3600,2.8125,-5.4375,8.6250,-0.7163,-0.0264,-0.6917,-0.0883,
2025-03-08 19:40:42.952,9.3700,1.7600,-0.4100,2.7500,-4.6250,8.9375,-0.7166,-0.0260,-0.6915,-0.0876,
2025-03-08 19:40:42.961,9.5200,1.7200,-0.3900,1.4375,-4.0000,9.1250,-0.7169,-0.0255,-0.6913,-0.0870,
2025-03-08 19:40:42.982,9.6300,1.6100,-0.3800,0.0625,-3.1875,9.1875,-0.7171,-0.0250,-0.6912,-0.0865,
2025-03-08 19:40:42.990,9.8300,1.5700,-0.2800,-0.3750,-2.4375,9.0625,-0.7172,-0.0244,-0.6911,-0.0860,
2025-03-08 19:40:42.991,9.9700,1.6000,-0.2300,0.1875,-2.8125,9.2500,-0.7174,-0.0238,-0.6910,-0.0854,
2025-03-08 19:40:43.000,10.1300,1.6000,-0.2300,1.7500,-4.6875,9.7500,-0.7177,-0.0233,-0.6908,-0.0848,
2025-03-08 19:40:43.011,10.2500,1.5500,-0.2600,3.2500,-6.0000,10.3750,-0.7181,-0.0228,-0.6905,-0.0840,
2025-03-08 19:40:43.022,10.4800,1.4500,-0.2600,4.5000,-5.7500,11.3125,-0.7185,-0.0223,-0.6902,-0.0831,
2025-03-08 19:40:43.035,10.5200,1.4100,-0.2000,5.3750,-4.6250,11.7500,-0.7188,-0.0219,-0.6900,-0.0820,
2025-03-08 19:40:43.041,10.4400,1.3300,-0.1600,5.5000,-2.9375,11.3750,-0.7191,-0.0215,-0.6899,-0.0811,
2025-03-08 19:40:43.051,10.2800,1.2800,-0.0800,6.2500,-1.0625,9.5000,-0.7192,-0.0213,-0.6899,-0.0801,
2025-03-08 19:40:43.062,9.9700,1.4300,-0.0100,8.3750,0.5000,7.2500,-0.7193,-0.0214,-0.6899,-0.0792,
2025-03-08 19:40:43.072,9.8200,1.5200,-0.0800,10.7500,0.9375,5.1250,-0.7193,-0.0217,-0.6899,-0.0782,
2025-03-08 19:40:43.082,9.6900,1.5300,-0.1800,13.3750,0.5000,3.6875,-0.7194,-0.0222,-0.6900,-0.0772,
2025-03-08 19:40:43.090,9.6400,1.3900,-0.4700,15.8125,-0.2500,3.6250,-0.7195,-0.0229,-0.6900,-0.0760,
2025-03-08 19:40:43.100,9.6500,1.3700,-0.5800,18.3125,-0.8750,4.8750,-0.7197,-0.0237,-0.6899,-0.0746,
2025-03-08 19:40:43.113,9.6800,1.4000,-0.6800,19.1875,-1.2500,7.4375,-0.7199,-0.0244,-0.6898,-0.0730,
2025-03-08 19:40:43.123,9.7300,1.5000,-0.8000,17.8125,-1.2500,10.5000,-0.7201,-0.0247,-0.6898,-0.0713,
2025-03-08 19:40:43.133,9.7200,1.6300,-0.7800,14.5000,-0.8750,13.1250,-0.7202,-0.0248,-0.6898,-0.0696,
2025-03-08 19:40:43.141,9.7100,1.5800,-0.7500,11.0625,0.1250,14.9375,-0.7203,-0.0245,-0.6898,-0.0681,
2025-03-08 19:40:43.148,9.7100,1.5800,-0.6100,7.3125,1.5625,15.7500,-0.7203,-0.0240,-0.6900,-0.0668,
2025-03-08 19:40:43.172,9.7400,1.6500,-0.3300,3.0000,2.1250,15.8125,-0.7202,-0.0232,-0.6902,-0.0656,
2025-03-08 19:40:43.173,9.7500,1.6900,-0.2300,-1.6250,2.3125,14.7500,-0.7201,-0.0222,-0.6905,-0.0649,
2025-03-08 19:40:43.182,9.7900,1.6500,-0.2000,-4.5000,2.1250,13.1250,-0.7200,-0.0212,-0.6907,-0.0644,
2025-03-08 19:40:43.197,9.8500,1.5500,-0.2100,-5.5000,1.7500,11.2500,-0.7199,-0.0202,-0.6908,-0.0640,
2025-03-08 19:40:43.197,9.9600,1.3100,-0.3100,-4.8750,1.1875,9.0625,-0.7198,-0.0193,-0.6910,-0.0638,
2025-03-08 19:40:43.215,9.9400,1.1500,-0.3400,-3.1875,1.0000,7.2500,-0.7197,-0.0187,-0.6911,-0.0636,
2025-03-08 19:40:43.221,9.8300,0.9500,-0.3500,-2.0000,2.3125,5.2500,-0.7196,-0.0183,-0.6912,-0.0634,
2025-03-08 19:40:43.233,9.6400,0.8100,-0.2800,-1.6250,4.1875,3.5625,-0.7194,-0.0180,-0.6915,-0.0633,
2025-03-08 19:40:43.246,9.6100,0.7800,-0.2100,-2.3125,5.5000,2.1875,-0.7190,-0.0178,-0.6919,-0.0633,
2025-03-08 19:40:43.250,9.5700,0.7300,-0.1300,-3.7500,5.8750,0.5000,-0.7186,-0.0176,-0.6923,-0.0635,
2025-03-08 19:40:43.258,9.5300,0.7500,-0.0900,-4.5000,5.2500,-0.4375,-0.7183,-0.0173,-0.6926,-0.0638,
2025-03-08 19:40:43.292,9.7700,0.7000,-0.1100,-4.5625,3.7500,-0.9375,-0.7181,-0.0172,-0.6928,-0.0641,
2025-03-08 19:40:43.294,9.8900,0.6400,-0.1500,-3.5000,1.6250,-0.6875,-0.7179,-0.0170,-0.6929,-0.0643,
2025-03-08 19:40:43.295,10.0000,0.5400,-0.2000,-1.0625,-0.0625,0.0625,-0.7179,-0.0166,-0.6930,-0.0641,
2025-03-08 19:40:43.300,10.0600,0.4700,-0.2400,2.5000,-0.9375,1.5000,-0.7179,-0.0167,-0.6930,-0.0638,
2025-03-08 19:40:43.312,10.0800,0.5800,-0.2800,7.3125,-1.1250,2.9375,-0.7180,-0.0169,-0.6929,-0.0632,
2025-03-08 19:40:43.321,10.0300,0.7800,-0.2600,11.7500,-0.8750,4.6250,-0.7182,-0.0173,-0.6929,-0.0623,
2025-03-08 19:40:43.332,9.9900,0.9400,-0.2700,14.3750,-0.5000,5.7500,-0.7183,-0.0178,-0.6929,-0.0610,
2025-03-08 19:40:43.341,9.9000,1.3000,-0.2300,15.0625,0.0625,5.5625,-0.7183,-0.0183,-0.6929,-0.0598,
2025-03-08 19:40:43.351,9.8600,1.4800,-0.2100,14.5000,0.3125,5.0000,-0.7184,-0.0189,-0.6929,-0.0587,
2025-03-08 19:40:43.362,9.7800,1.5800,-0.2200,13.0625,0.7500,3.3750,-0.7184,-0.0194,-0.6929,-0.0576,
2025-03-08 19:40:43.372,9.6800,1.6500,-0.2600,11.0625,1.1250,1.5625,-0.7184,-0.0200,-0.6930,-0.0569,
2025-03-08 19:40:43.381,9.6600,1.5800,-0.4300,8.3125,0.3125,-0.0625,-0.7184,-0.0205,-0.6930,-0.0564,
2025-03-08 19:40:43.391,9.7100,1.5100,-0.4600,5.1875,-0.1875,-0.8750,-0.7185,-0.0209,-0.6929,-0.0561,
2025-03-08 19:40:43.398,9.7800,1.4200,-0.5000,2.8750,-0.0625,-1.3750,-0.7185,-0.0211,-0.6929,-0.0560,
2025-03-08 19:40:43.411,9.8800,1.2600,-0.5800,2.0000,0.3125,-1.0000,-0.7185,-0.0213,-0.6929,-0.0560,
2025-03-08 19:40:43.422,9.8700,1.1900,-0.5200,2.1250,0.5625,0.2500,-0.7185,-0.0214,-0.6929,-0.0558,
2025-03-08 19:40:43.431,9.8500,1.1400,-0.4300,1.6250,0.4375,1.6250,-0.7186,-0.0214,-0.6929,-0.0556,
2025-03-08 19:40:43.441,9.8400,1.1500,-0.3600,-0.6250,-0.4375,3.1875,-0.7186,-0.0212,-0.6929,-0.0555,
2025-03-08 19:40:43.448,9.8300,1.2600,-0.2500,-3.5625,-0.9375,4.7500,-0.7186,-0.0207,-0.6929,-0.0554,
2025-03-08 19:40:43.461,9.8100,1.3100,-0.2100,-5.2500,-0.7500,6.0000,-0.7186,-0.0200,-0.6929,-0.0554,
2025-03-08 19:40:43.472,9.8400,1.3500,-0.2100,-5.5000,0.5000,6.5625,-0.7186,-0.0193,-0.6930,-0.0554,
2025-03-08 19:40:43.481,9.7900,1.3600,-0.1600,-4.3125,2.3125,6.2500,-0.7184,-0.0188,-0.6932,-0.0554,
2025-03-08 19:40:43.491,9.7600,1.3700,-0.1500,-3.6250,3.3125,5.6875,-0.7181,-0.0184,-0.6935,-0.0554,
2025-03-08 19:40:43.502,9.7500,1.3400,-0.1800,-3.8750,3.7500,4.7500,-0.7179,-0.0180,-0.6937,-0.0555,
2025-03-08 19:40:43.511,9.8000,1.3100,-0.1700,-4.0000,3.3750,4.0625,-0.7176,-0.0176,-0.6940,-0.0556,
2025-03-08 19:40:43.530,9.8200,1.2300,-0.2200,-4.5000,2.5000,3.4375,-0.7174,-0.0173,-0.6942,-0.0558,
2025-03-08 19:40:43.532,9.8100,1.1800,-0.1700,-5.1250,2.0000,3.0625,-0.7172,-0.0168,-0.6944,-0.0560,
2025-03-08 19:40:43.541,9.8100,1.1500,-0.1400,-5.6250,2.1250,2.8750,-0.7170,-0.0164,-0.6946,-0.0562,
2025-03-08 19:40:43.552,9.7800,1.0900,-0.0900,-6.2500,2.3750,2.6875,-0.7169,-0.0159,-0.6948,-0.0565,
2025-03-08 19:40:43.562,9.7500,0.9700,0.0000,-7.0000,2.8750,2.6875,-0.7166,-0.0154,-0.6950,-0.0567,
2025-03-08 19:40:43.571,9.7200,0.9400,0.0000,-7.3750,3.5625,2.8125,-0.7163,-0.0148,-0.6953,-0.0570,
2025-03-08 19:40:43.592,9.7500,0.8600,0.0300,-6.8125,3.8750,3.1875,-0.7161,-0.0142,-0.6955,-0.0573,
2025-03-08 19:40:43.592,9.7300,0.7800,0.0200,-5.9375,4.0000,3.3750,-0.7158,-0.0137,-0.6958,-0.0574,
2025-03-08 19:40:43.592,9.7300,0.7400,0.0000,-4.0625,4.0000,3.4375,-0.7155,-0.0132,-0.6961,-0.0574,
2025-03-08 19:40:43.611,9.6900,0.7600,-0.0300,-2.5000,3.7500,3.5625,-0.7153,-0.0129,-0.6964,-0.0574,
2025-03-08 19:40:43.623,9.7300,0.7800,-0.0600,-1.3750,3.3125,3.5625,-0.7151,-0.0126,-0.6966,-0.0573,
2025-03-08 19:40:43.631,9.6800,0.7900,-0.0700,0.0625,3.2500,3.5625,-0.7149,-0.0123,-0.6968,-0.0569,
2025-03-08 19:40:43.632,9.6600,0.8000,-0.0900,1.3125,2.8125,3.3125,-0.7147,-0.0122,-0.6971,-0.0566,
2025-03-08 19:40:43.651,9.6700,0.7800,-0.0700,2.4375,2.0625,3.1875,-0.7145,-0.0121,-0.6972,-0.0563,
2025-03-08 19:40:43.661,9.7900,0.8300,-0.1000,3.1250,1.0000,3.0625,-0.7145,-0.0121,-0.6973,-0.0558,
2025-03-08 19:40:43.672,9.8300,0.9100,-0.1300,3.3125,0.1250,3.1875,-0.7145,-0.0121,-0.6974,-0.0555,
2025-03-08 19:40:43.682,9.8700,1.0000,-0.1200,3.7500,-0.3125,3.1875,-0.7145,-0.0121,-0.6974,-0.0551,
2025-03-08 19:40:43.691,9.8800,1.0900,-0.1400,3.6875,-0.0625,2.8750,-0.7145,-0.0121,-0.6974,-0.0546,
2025-03-08 19:40:43.702,9.9200,1.2000,-0.1600,2.5625,0.2500,2.8125,-0.7145,-0.0121,-0.6974,-0.0546,
2025-03-08 19:40:43.711,9.8700,1.1800,-0.1700,0.1875,1.1250,2.7500,-0.7144,-0.0120,-0.6975,-0.0541,
2025-03-08 19:40:43.722,9.8000,1.0900,-0.1500,-2.1250,2.1250,2.8125,-0.7143,-0.0117,-0.6976,-0.0541,
2025-03-08 19:40:43.733,9.7100,0.9500,-0.0900,-3.6250,2.8750,2.8125,-0.7141,-0.0113,-0.6978,-0.0542,
2025-03-08 19:40:43.745,9.6700,0.8800,-0.0900,-4.0000,3.0000,2.4375,-0.7139,-0.0109,-0.6980,-0.0543,
2025-03-08 19:40:43.752,9.6600,0.8500,-0.0300,-3.8125,2.2500,2.1875,-0.7139,-0.0109,-0.6980,-0.0543,
2025-03-08 19:40:43.762,9.6800,0.8400,-0.0700,-3.1250,1.3750,2.0000,-0.7136,-0.0103,-0.6983,-0.0544,
2025-03-08 19:40:43.772,9.6900,0.8600,-0.0500,-2.4375,0.6875,1.6250,-0.7136,-0.0100,-0.6984,-0.0545,
2025-03-08 19:40:43.782,9.6500,0.8800,-0.0500,-1.6875,0.2500,1.5625,-0.7135,-0.0098,-0.6984,-0.0545,
2025-03-08 19:40:43.792,9.6500,0.9100,-0.0800,-0.9375,-0.0625,1.4375,-0.7136,-0.0097,-0.6984,-0.0545,
2025-03-08 19:40:43.803,9.6500,0.9300,-0.0900,-0.4375,0.1250,1.6250,-0.7135,-0.0096,-0.6984,-0.0544,
2025-03-08 19:40:43.811,9.6600,0.9700,-0.1500,-0.1250,0.2500,1.8125,-0.7135,-0.0096,-0.6984,-0.0544,
2025-03-08 19:40:43.812,9.6800,0.9900,-0.2000,-0.3125,0.6875,2.0625,-0.7135,-0.0094,-0.6985,-0.0542,
2025-03-08 19:40:43.832,9.6700,0.9900,-0.1900,-1.0000,0.7500,2.6250,-0.7134,-0.0092,-0.6986,-0.0541,
2025-03-08 19:40:43.842,9.6700,0.9500,-0.2500,-2.0000,0.6875,2.9375,-0.7134,-0.0089,-0.6986,-0.0541,
2025-03-08 19:40:43.842,9.7000,0.9100,-0.2400,-2.5000,0.0000,3.0625,-0.7134,-0.0089,-0.6986,-0.0541,
2025-03-08 19:40:43.866,9.7400,0.9200,-0.2000,-2.6250,-1.0000,3.0000,-0.7134,-0.0085,-0.6986,-0.0540,
2025-03-08 19:40:43.872,9.7600,0.9700,-0.1200,-2.9375,-1.6875,2.7500,-0.7134,-0.0082,-0.6986,-0.0540,
2025-03-08 19:40:43.893,9.8100,0.9800,-0.0100,-3.7500,-2.1250,2.2500,-0.7135,-0.0079,-0.6985,-0.0540,
2025-03-08 19:40:43.893,9.8000,0.9600,0.0000,-4.2500,-2.0000,1.7500,-0.7136,-0.0076,-0.6984,-0.0541,
2025-03-08 19:40:43.893,9.8400,0.9600,0.0000,-4.0625,-1.5625,1.6250,-0.7137,-0.0072,-0.6983,-0.0543,
2025-03-08 19:40:43.912,9.8200,0.9300,-0.0500,-3.1875,-0.7500,1.2500,-0.7137,-0.0069,-0.6982,-0.0545,
2025-03-08 19:40:43.922,9.8300,0.8900,-0.1300,-2.5625,-0.0625,1.1250,-0.7137,-0.0066,-0.6982,-0.0547,
2025-03-08 19:40:43.932,9.8600,0.8600,-0.1100,-1.9375,0.3125,1.1875,-0.7137,-0.0064,-0.6983,-0.0548,
2025-03-08 19:40:43.941,9.8500,0.8900,-0.1600,-1.8750,0.3750,1.0625,-0.7137,-0.0062,-0.6983,-0.0548,
2025-03-08 19:40:43.951,9.8600,0.8800,-0.2000,-2.1875,0.3125,1.3750,-0.7137,-0.0060,-0.6983,-0.0549,
2025-03-08 19:40:43.962,9.7800,0.9200,-0.2200,-3.0000,1.5625,1.3125,-0.7137,-0.0059,-0.6983,-0.0549,
2025-03-08 19:40:43.972,9.7400,0.9100,-0.1900,-4.7500,2.7500,1.1875,-0.7136,-0.0056,-0.6984,-0.0551,
2025-03-08 19:40:43.982,9.8500,0.8600,-0.0700,-6.3125,2.2500,0.4375,-0.7134,-0.0052,-0.6986,-0.0552,
2025-03-08 19:40:43.991,10.0000,0.9500,-0.0900,-6.4375,-0.8750,-0.4375,-0.7132,-0.0049,-0.6987,-0.0557,
2025-03-08 19:40:44.002,10.0500,0.9700,-0.0400,-5.1875,-3.0625,-1.2500,-0.7132,-0.0045,-0.6987,-0.0560,
2025-03-08 19:40:44.011,9.9700,0.9600,-0.0600,-3.1875,-2.1250,-1.9375,-0.7134,-0.0043,-0.6985,-0.0565,
2025-03-08 19:40:44.022,10.2300,0.8600,-0.2300,-2.0625,-0.1250,-1.8750,-0.7135,-0.0042,-0.6984,-0.0568,
2025-03-08 19:40:44.041,10.1800,0.8200,-0.7600,-1.0625,3.5625,-2.5000,-0.7134,-0.0042,-0.6984,-0.0570,
2025-03-08 19:40:44.042,10.1100,0.8400,-1.3800,-5.8125,11.6875,-4.5000,-0.7133,-0.0043,-0.6985,-0.0572,
2025-03-08 19:40:44.042,9.7300,1.0000,-0.9900,-25.9375,18.8125,-6.5625,-0.7125,-0.0043,-0.6993,-0.0579,
2025-03-08 19:40:44.062,9.6900,0.9400,-0.6900,-47.8750,21.5625,-8.3125,-0.7113,-0.0032,-0.7004,-0.0598,
2025-03-08 19:40:44.072,10.0800,0.9900,-0.3300,-57.0625,21.1250,-7.0000,-0.7097,-0.0010,-0.7017,-0.0632,
2025-03-08 19:40:44.082,10.3000,1.1900,0.2500,-51.5625,19.0000,-4.0000,-0.7082,0.0018,-0.7029,-0.0670,
2025-03-08 19:40:44.094,10.9700,1.6400,0.6300,-31.8125,18.5625,-2.0000,-0.7067,0.0045,-0.7040,-0.0703,
2025-03-08 19:40:44.100,11.2600,1.8400,0.4400,-16.8125,21.6250,-3.7500,-0.7055,0.0062,-0.7050,-0.0723,
2025-03-08 19:40:44.112,11.2100,2.2900,0.3500,-16.7500,25.9375,-9.4375,-0.7040,0.0068,-0.7063,-0.0735,
2025-03-08 19:40:44.122,11.0300,2.9300,0.4200,-22.1250,31.8750,-16.0000,-0.7024,0.0071,-0.7078,-0.0751,
2025-03-08 19:40:44.136,11.1300,4.1400,0.6000,-25.3750,35.6875,-20.4375,-0.7004,0.0073,-0.7095,-0.0775,
2025-03-08 19:40:44.143,11.1000,4.3800,1.0000,-32.6875,37.5625,-23.4375,-0.6981,0.0074,-0.7115,-0.0802,
2025-03-08 19:40:44.149,11.1300,4.2400,1.3500,-44.6875,42.6875,-25.6250,-0.6956,0.0077,-0.7135,-0.0836,
2025-03-08 19:40:44.161,11.1300,4.2400,1.3500,-58.5000,50.6250,-26.1875,-0.6927,0.0086,-0.7158,-0.0878,
2025-03-08 19:40:44.191,12.0100,2.9500,2.0900,-68.9375,58.2500,-26.0625,-0.6892,0.0103,-0.7185,-0.0928,
2025-03-08 19:40:44.191,11.9400,2.6600,2.3400,-74.1875,66.0625,-29.6250,-0.6851,0.0125,-0.7216,-0.0985,
2025-03-08 19:40:44.211,11.7400,2.7500,2.5300,-74.3750,76.3125,-36.3125,-0.6805,0.0147,-0.7251,-0.1046,
2025-03-08 19:40:44.211,11.7400,2.7500,2.5300,-75.1250,88.3125,-42.8125,-0.6752,0.0165,-0.7291,-0.1112,
2025-03-08 19:40:44.211,12.2200,3.1600,3.0400,-80.8750,98.0000,-47.6875,-0.6691,0.0179,-0.7335,-0.1183,
2025-03-08 19:40:44.222,12.2600,2.9500,3.1900,-87.0000,108.2500,-51.5625,-0.6622,0.0192,-0.7384,-0.1260,
2025-03-08 19:40:44.232,12.0300,2.4100,3.5200,-92.8125,120.4375,-53.0625,-0.6546,0.0206,-0.7437,-0.1342,
2025-03-08 19:40:44.246,11.8800,2.5300,3.7100,-97.9375,131.6875,-53.8750,-0.6459,0.0221,-0.7496,-0.1429,
2025-03-08 19:40:44.250,11.8800,2.5300,3.7100,-101.9375,141.3125,-57.2500,-0.6365,0.0238,-0.7558,-0.1519,
2025-03-08 19:40:44.264,11.8400,2.6500,3.9200,-109.1875,150.0000,-59.8125,-0.6262,0.0255,-0.7624,-0.1613,
2025-03-08 19:40:44.271,11.4500,2.9000,4.6500,-121.3750,160.6250,-63.0000,-0.6151,0.0273,-0.7692,-0.1712,
2025-03-08 19:40:44.295,11.2200,2.6100,4.7800,-133.5625,172.8750,-66.0625,-0.6029,0.0295,-0.7762,-0.1820,
2025-03-08 19:40:44.295,11.2000,2.6600,4.7600,-141.6250,184.9375,-68.7500,-0.5896,0.0323,-0.7835,-0.1935,
2025-03-08 19:40:44.300,11.2000,2.6600,4.7600,-146.0625,194.9375,-69.6250,-0.5751,0.0352,-0.7910,-0.2056,
2025-03-08 19:40:44.311,11.1100,2.6500,4.5200,-152.5000,205.3750,-70.9375,-0.5596,0.0381,-0.7987,-0.2178,
2025-03-08 19:40:44.324,10.7300,2.7400,4.8600,-163.1250,215.7500,-70.5000,-0.5430,0.0413,-0.8064,-0.2305,
2025-03-08 19:40:44.331,10.7200,2.5300,4.7900,-175.5625,223.6250,-67.3125,-0.5253,0.0450,-0.8141,-0.2434,
2025-03-08 19:40:44.342,10.3600,1.5300,5.0400,-188.6875,231.0000,-64.3125,-0.5064,0.0494,-0.8218,-0.2566,
2025-03-08 19:40:44.351,10.3600,1.5300,5.0400,-197.8125,237.4375,-62.5625,-0.4864,0.0548,-0.8292,-0.2700,
2025-03-08 19:40:44.361,10.0400,1.2200,5.1900,-197.8125,237.4375,-62.5625,-0.4653,0.0606,-0.8363,-0.2835,
2025-03-08 19:40:44.371,9.1400,0.5100,5.9400,-204.6875,243.6250,-58.0000,-0.4435,0.0668,-0.8430,-0.2969,
2025-03-08 19:40:44.382,8.9300,0.5400,6.6500,-199.7500,242.5000,-53.7500,-0.4213,0.0730,-0.8492,-0.3099,
2025-03-08 19:40:44.391,8.8400,0.4600,6.9200,-190.1875,238.5625,-45.0625,-0.3988,0.0790,-0.8549,-0.3223,
2025-03-08 19:40:44.401,8.8400,0.4600,6.9200,-190.1875,238.5625,-45.0625,-0.3766,0.0848,-0.8601,-0.3334,
2025-03-08 19:40:44.411,8.7700,0.1100,7.1100,-167.0625,233.8750,-25.5625,-0.3546,0.0900,-0.8651,-0.3433,
2025-03-08 19:40:44.421,7.5500,-0.4400,7.8100,-158.1250,231.6875,-18.1250,-0.3327,0.0946,-0.8698,-0.3519,
2025-03-08 19:40:44.462,7.0600,-0.3000,7.6400,-146.8125,229.0625,-11.3750,-0.3110,0.0988,-0.8743,-0.3594,
2025-03-08 19:40:44.462,6.5300,-0.3700,7.6200,-135.3125,228.2500,-6.3750,-0.2897,0.1024,-0.8785,-0.3659,
2025-03-08 19:40:44.462,6.5300,-0.3700,7.6200,-135.3125,228.2500,-6.3750,-0.2686,0.1052,-0.8825,-0.3716,
2025-03-08 19:40:44.470,5.9300,-0.8300,7.8100,-125.1875,228.3750,-3.0625,-0.2476,0.1072,-0.8862,-0.3766,
2025-03-08 19:40:44.487,6.0400,-1.2600,7.5300,-100.1250,222.8750,6.4375,-0.2270,0.1085,-0.8898,-0.3808,
2025-03-08 19:40:44.487,6.0500,-0.9600,7.2400,-86.2500,218.6250,12.5000,-0.2069,0.1089,-0.8932,-0.3841,
2025-03-08 19:40:44.493,5.7700,-0.5700,7.0000,-73.8750,212.0625,19.8750,-0.1874,0.1086,-0.8964,-0.3867,
2025-03-08 19:40:44.502,5.7700,-0.5700,7.0000,-73.8750,212.0625,19.8750,-0.1688,0.1075,-0.8996,-0.3882,
2025-03-08 19:40:44.512,5.2800,-0.3700,7.0600,-68.6250,204.3750,24.8125,-0.1507,0.1064,-0.9025,-0.3891,
2025-03-08 19:40:44.522,4.0500,-0.7900,7.2300,-77.7500,190.2500,19.7500,-0.1331,0.1057,-0.9050,-0.3899,
2025-03-08 19:40:44.541,4.0500,-0.7900,7.2300,-81.8125,184.0000,15.1875,-0.1158,0.1056,-0.9070,-0.3909,
2025-03-08 19:40:44.541,3.7200,-1.1000,7.0600,-78.8750,179.6875,14.5000,-0.0989,0.1059,-0.9084,-0.3921,
2025-03-08 19:40:44.554,3.0300,-1.3600,7.1700,-78.8750,179.6875,14.5000,-0.0823,0.1061,-0.9096,-0.3932,
2025-03-08 19:40:44.562,2.2400,-1.6200,6.2900,-72.1250,170.6875,17.8750,-0.0667,0.1061,-0.9105,-0.3941,
2025-03-08 19:40:44.581,2.1100,-1.3600,6.4400,-54.8125,154.1875,34.3750,-0.0519,0.1058,-0.9116,-0.3939,
2025-03-08 19:40:44.581,2.0100,-0.9800,6.3000,-51.6875,143.9375,36.3125,-0.0379,0.1050,-0.9128,-0.3928,
2025-03-08 19:40:44.592,2.0500,-0.8600,6.4500,-54.1875,135.3125,35.5000,-0.0248,0.1044,-0.9139,-0.3914,
2025-03-08 19:40:44.602,1.5000,-1.2900,6.9500,-54.1875,135.3125,35.5000,-0.0122,0.1041,-0.9148,-0.3900,
2025-03-08 19:40:44.613,1.4400,-1.5100,6.8400,-58.8750,128.9375,32.2500,0.0000,0.1044,-0.9154,-0.3887,
2025-03-08 19:40:44.661,1.1800,-1.7200,6.7100,-57.0625,112.9375,34.0625,0.0117,0.1052,-0.9158,-0.3873,
2025-03-08 19:40:44.661,0.6500,-1.9600,6.5000,-52.3125,100.5000,36.3125,0.0226,0.1058,-0.9163,-0.3856,
2025-03-08 19:40:44.661,-0.1700,-2.0800,6.1300,-48.3125,90.3750,35.8750,0.0324,0.1065,-0.9168,-0.3836,
2025-03-08 19:40:44.661,-0.3900,-1.9900,6.2400,-48.3125,90.3750,35.8750,0.0413,0.1072,-0.9172,-0.3815,
2025-03-08 19:40:44.661,-0.7600,-1.8700,6.2900,-43.4375,83.1250,37.5000,0.0495,0.1078,-0.9176,-0.3794,
2025-03-08 19:40:44.672,-0.7800,-2.1600,6.0500,-32.0625,69.3750,30.7500,0.0569,0.1082,-0.9180,-0.3774,
2025-03-08 19:40:44.681,-0.6500,-2.4200,5.7200,-25.1875,64.2500,30.8750,0.0637,0.1083,-0.9183,-0.3754,
2025-03-08 19:40:44.692,-0.6300,-2.5000,5.9800,-20.1875,57.1875,28.6875,0.0697,0.1081,-0.9187,-0.3735,
2025-03-08 19:40:44.702,-0.7100,-2.5800,5.8500,-20.1875,57.1875,28.6875,0.0751,0.1077,-0.9190,-0.3716,
2025-03-08 19:40:44.743,-1.5200,-1.9700,5.7600,-9.7500,27.8750,40.2500,0.0779,0.1073,-0.9200,-0.3687,
2025-03-08 19:40:44.743,-1.0200,-1.2400,5.5900,-8.1875,13.4375,41.5625,0.0807,0.1069,-0.9210,-0.3658,
2025-03-08 19:40:44.743,-0.7800,-1.0900,5.4500,-16.5000,-0.6250,32.8750,0.0824,0.1069,-0.9221,-0.3626,
2025-03-08 19:40:44.743,-1.1800,-2.0900,5.8600,-19.6875,-9.1875,31.4375,0.0832,0.1080,-0.9230,-0.3599,
2025-03-08 19:40:44.752,-1.0000,-2.6500,5.8200,-19.6875,-9.1875,31.4375,0.0833,0.1096,-0.9238,-0.3572,
2025-03-08 19:40:44.762,-1.1100,-3.1500,6.0000,-19.0625,-17.6875,30.8125,0.0828,0.1114,-0.9247,-0.3546,
2025-03-08 19:40:44.783,-0.8800,-3.2200,6.2000,-5.0000,-39.1250,28.4375,0.0812,0.1130,-0.9256,-0.3519,
2025-03-08 19:40:44.783,-0.7000,-2.6700,6.1400,1.4375,-48.1250,28.8125,0.0786,0.1144,-0.9267,-0.3492,
2025-03-08 19:40:44.792,-0.9600,-2.3500,6.1200,0.8750,-58.1875,27.3750,0.0751,0.1155,-0.9279,-0.3465,
2025-03-08 19:40:44.802,-1.1800,-2.0600,6.1200,0.8750,-58.1875,27.3750,0.0707,0.1170,-0.9290,-0.3438,
2025-03-08 19:40:44.812,-0.9100,-1.9900,6.1300,-2.1250,-65.3750,26.0625,0.0660,0.1189,-0.9302,-0.3411,
2025-03-08 19:40:44.822,-0.8600,-2.2700,6.4400,-9.5625,-77.1250,15.5000,0.0608,0.1213,-0.9311,-0.3387,
2025-03-08 19:40:44.832,-0.6700,-2.3800,6.6800,-9.3125,-83.2500,11.9375,0.0552,0.1242,-0.9318,-0.3366,
2025-03-08 19:40:44.842,-0.4100,-2.4400,6.7700,-6.5625,-89.8750,9.8125,0.0490,0.1273,-0.9324,-0.3347,
2025-03-08 19:40:44.851,-0.5700,-2.3100,7.5200,-6.5625,-89.8750,9.8125,0.0422,0.1303,-0.9329,-0.3330,
2025-03-08 19:40:44.882,0.1100,-2.2700,7.2200,-2.8125,-99.8750,9.1875,0.0345,0.1333,-0.9335,-0.3311,
2025-03-08 19:40:44.882,0.9400,-2.5700,7.0800,10.5625,-105.6250,0.8750,0.0266,0.1358,-0.9340,-0.3293,
2025-03-08 19:40:44.882,1.0000,-2.9800,7.4100,25.9375,-111.0000,-0.5000,0.0180,0.1379,-0.9344,-0.3281,
2025-03-08 19:40:44.901,1.2300,-3.3200,7.3800,42.5000,-116.5000,2.2500,0.0085,0.1389,-0.9348,-0.3268,
2025-03-08 19:40:44.912,1.0600,-3.3500,7.3000,42.5000,-116.5000,2.2500,-0.0018,0.1388,-0.9354,-0.3253,
2025-03-08 19:40:44.912,0.8000,-3.1500,7.1400,56.2500,-124.8750,6.8750,-0.0131,0.1378,-0.9361,-0.3232,
2025-03-08 19:40:44.922,0.3600,-2.6100,7.3300,72.0625,-146.4375,17.2500,-0.0255,0.1362,-0.9370,-0.3206,
2025-03-08 19:40:44.932,0.4600,-2.2600,7.8000,68.5625,-155.0000,19.6250,-0.0389,0.1345,-0.9379,-0.3173,
2025-03-08 19:40:44.941,1.2400,-2.3300,7.7200,56.3125,-155.8750,16.3750,-0.0527,0.1332,-0.9386,-0.3137,
2025-03-08 19:40:44.952,2.0000,-2.8400,7.1500,56.3125,-155.8750,16.3750,-0.0664,0.1330,-0.9389,-0.3104,
2025-03-08 19:40:44.962,4.4600,-2.6500,6.9300,55.7500,-158.3750,16.8125,-0.0803,0.1328,-0.9390,-0.3069,
2025-03-08 19:40:44.972,4.6400,-1.9000,7.1900,75.7500,-178.0625,21.3125,-0.0953,0.1318,-0.9390,-0.3030,
2025-03-08 19:40:44.982,4.2100,-0.9200,7.4100,71.7500,-187.5000,22.8125,-0.1111,0.1306,-0.9388,-0.2986,
2025-03-08 19:40:44.992,2.8000,-0.1700,7.2000,56.4375,-198.2500,22.5000,-0.1275,0.1298,-0.9383,-0.2941,
2025-03-08 19:40:45.002,2.6400,-0.3000,6.9400,56.4375,-198.2500,22.5000,-0.1444,0.1304,-0.9372,-0.2894,
2025-03-08 19:40:45.012,3.0700,-0.5400,6.8900,39.6250,-208.2500,23.3750,-0.1615,0.1327,-0.9355,-0.2848,
2025-03-08 19:40:45.029,5.0400,-1.4900,4.4900,22.5000,-188.3750,21.5000,-0.1777,0.1362,-0.9335,-0.2802,
2025-03-08 19:40:45.032,6.3000,-3.1900,6.0200,39.3750,-207.9375,17.5000,-0.1928,0.1392,-0.9313,-0.2760,
2025-03-08 19:40:45.042,6.6500,-2.5000,6.8400,57.7500,-219.0000,16.5000,-0.2098,0.1412,-0.9286,-0.2715,
2025-03-08 19:40:45.042,6.2700,-1.4100,7.5500,57.7500,-219.0000,16.5000,-0.2281,0.1419,-0.9257,-0.2665,
2025-03-08 19:40:45.062,5.8100,0.3300,8.0100,71.0000,-219.8750,15.9375,-0.2466,0.1416,-0.9224,-0.2612,
2025-03-08 19:40:45.088,5.8800,0.2900,7.7900,66.0625,-219.6875,12.6875,-0.2650,0.1415,-0.9188,-0.2562,
2025-03-08 19:40:45.103,6.0000,0.4900,7.5900,49.5625,-220.1250,8.5625,-0.2830,0.1426,-0.9144,-0.2517,
2025-03-08 19:40:45.103,6.5600,0.5100,7.6400,32.4375,-220.0000,7.3125,-0.3005,0.1450,-0.9096,-0.2477,
2025-03-08 19:40:45.103,7.9800,-2.3500,4.9200,23.1875,-206.1250,6.6250,-0.3167,0.1476,-0.9046,-0.2440,
2025-03-08 19:40:45.132,6.8300,-3.7200,6.0900,33.3750,-192.1875,1.4375,-0.3321,0.1490,-0.8998,-0.2405,
2025-03-08 19:40:45.132,6.4900,-3.2000,7.3600,68.8750,-206.8750,1.1250,-0.3491,0.1480,-0.8948,-0.2358,
2025-03-08 19:40:45.132,7.0100,-2.0200,7.4200,115.8125,-219.6250,6.4375,-0.3679,0.1437,-0.8897,-0.2291,
2025-03-08 19:40:45.142,8.3800,-0.2300,6.4800,151.8750,-223.8750,8.9375,-0.3874,0.1369,-0.8845,-0.2209,
2025-03-08 19:40:45.161,10.5200,0.2000,5.3700,160.9375,-226.7500,28.6250,-0.4263,0.1223,-0.8733,-0.2014,
2025-03-08 19:40:45.176,12.1000,0.7000,4.6600,144.1250,-226.1250,41.8125,-0.4449,0.1169,-0.8672,-0.1907,
2025-03-08 19:40:45.187,12.3900,-0.0400,2.9700,123.7500,-219.8750,53.2500,-0.4624,0.1133,-0.8608,-0.1800,
2025-03-08 19:40:45.192,11.1400,-1.3800,3.4100,103.8750,-207.0000,45.4375,-0.4785,0.1107,-0.8542,-0.1706,
2025-03-08 19:40:45.212,11.2000,1.4400,5.4900,129.1250,-214.8750,40.5000,-0.5115,0.1029,-0.8396,-0.1514,
2025-03-08 19:40:45.222,11.2400,2.0400,5.7300,145.0625,-212.5625,43.2500,-0.5279,0.0972,-0.8320,-0.1401,
2025-03-08 19:40:45.242,11.7700,2.0400,5.0500,126.8125,-203.3125,39.3125,-0.5588,0.0865,-0.8162,-0.1186,
2025-03-08 19:40:45.262,11.6600,1.6100,4.9000,90.6875,-194.1875,27.1875,-0.5870,0.0796,-0.7991,-0.1024,
2025-03-08 19:40:45.272,12.7600,1.4100,4.6200,84.1250,-194.1250,29.4375,-0.6005,0.0770,-0.7902,-0.0949,
2025-03-08 19:40:45.292,12.0500,-0.5000,4.3200,111.6250,-182.8125,20.3750,-0.6264,0.0689,-0.7725,-0.0786,
2025-03-08 19:40:45.312,12.7300,1.4600,2.8900,140.8125,-169.3125,8.6250,-0.6503,0.0543,-0.7553,-0.0605,
2025-03-08 19:40:45.322,12.5700,1.9400,2.5100,123.0625,-149.6250,5.5625,-0.6603,0.0474,-0.7476,-0.0527,
2025-03-08 19:40:45.342,11.9200,2.1000,2.0700,86.5000,-105.5000,10.9375,-0.6754,0.0375,-0.7354,-0.0400,
2025-03-08 19:40:45.362,13.0600,2.0800,1.6900,46.0000,-93.8125,15.4375,-0.6875,0.0323,-0.7248,-0.0305,
2025-03-08 19:40:45.392,12.9500,1.9600,1.7200,26.5000,-84.7500,11.5000,-0.6927,0.0315,-0.7200,-0.0281,
2025-03-08 19:40:45.392,12.4400,2.3900,2.5400,14.5625,-70.3125,5.3750,-0.6970,0.0311,-0.7159,-0.0267,
2025-03-08 19:40:45.396,12.6800,2.4300,1.9800,0.0000,-32.2500,-5.7500,-0.7022,0.0305,-0.7109,-0.0264,
2025-03-08 19:40:45.406,12.0900,2.1200,1.4800,-5.0000,-3.3750,-11.8125,-0.7024,0.0295,-0.7107,-0.0267,
2025-03-08 19:40:45.422,11.0100,2.0600,0.3300,-9.8750,22.1875,-15.9375,-0.7011,0.0291,-0.7119,-0.0284,
2025-03-08 19:40:45.432,10.9900,1.9700,-0.3700,-18.0000,33.6875,-16.8750,-0.6991,0.0291,-0.7138,-0.0305,
2025-03-08 19:40:45.452,10.6500,1.4100,-0.3600,-34.2500,37.6250,-15.9375,-0.6945,0.0306,-0.7179,-0.0363,
2025-03-08 19:40:45.461,11.3000,1.1500,0.6900,-44.6875,42.5000,-13.4375,-0.6918,0.0325,-0.7202,-0.0399,
2025-03-08 19:40:45.471,11.4600,0.9100,1.1200,-56.1875,49.7500,-11.8750,-0.6887,0.0350,-0.7229,-0.0441,
2025-03-08 19:40:45.481,11.3000,0.7600,1.5100,-61.8125,57.5625,-10.6250,-0.6849,0.0380,-0.7260,-0.0485,
2025-03-08 19:40:45.491,11.0500,1.5100,2.0900,-59.8750,63.0000,-10.7500,-0.6808,0.0408,-0.7294,-0.0528,
2025-03-08 19:40:45.502,11.4600,1.8200,2.1100,-56.1250,67.2500,-14.0000,-0.6765,0.0431,-0.7330,-0.0571,
2025-03-08 19:40:45.511,11.5900,2.0600,2.1800,-57.2500,75.1875,-19.5625,-0.6716,0.0451,-0.7370,-0.0618,
2025-03-08 19:40:45.523,11.5500,2.2200,2.3300,-63.1875,87.4375,-25.2500,-0.6659,0.0471,-0.7415,-0.0673,
2025-03-08 19:40:45.536,11.5800,1.9700,2.8000,-73.2500,101.3750,-28.8750,-0.6592,0.0495,-0.7467,-0.0736,
2025-03-08 19:40:45.541,11.7400,1.9600,3.1800,-85.5625,116.4375,-31.8750,-0.6514,0.0524,-0.7526,-0.0809,
2025-03-08 19:40:45.552,12.0600,1.9800,3.6400,-99.6250,130.9375,-34.6250,-0.6425,0.0559,-0.7591,-0.0891,
2025-03-08 19:40:45.562,11.7300,1.8100,4.1100,-111.5000,144.9375,-37.1250,-0.6324,0.0602,-0.7660,-0.0985,
2025-03-08 19:40:45.572,11.3600,1.7500,4.2200,-120.2500,159.1875,-40.0625,-0.6212,0.0645,-0.7734,-0.1083,
2025-03-08 19:40:45.582,11.4000,1.6500,4.2500,-129.1875,170.6250,-42.6875,-0.6090,0.0692,-0.7812,-0.1188,
2025-03-08 19:40:45.602,11.5900,1.3200,4.1900,-139.3125,177.7500,-48.7500,-0.5961,0.0740,-0.7889,-0.1302,
2025-03-08 19:40:45.602,11.7600,0.5400,4.3000,-147.8750,182.8125,-52.3125,-0.5825,0.0792,-0.7964,-0.1423,
2025-03-08 19:40:45.611,11.4700,0.1000,4.5100,-154.2500,189.4375,-50.0000,-0.5681,0.0848,-0.8039,-0.1544,
2025-03-08 19:40:45.622,11.2500,0.0700,4.8000,-156.1875,199.5625,-51.4375,-0.5527,0.0903,-0.8115,-0.1668,
2025-03-08 19:40:45.632,10.5800,0.7400,5.1000,-157.5000,209.1250,-52.1250,-0.5364,0.0958,-0.8191,-0.1793,
2025-03-08 19:40:45.642,10.3300,1.0800,5.2300,-159.8750,215.3750,-49.8750,-0.5193,0.1013,-0.8266,-0.1917,
2025-03-08 19:40:45.652,10.1900,1.1400,5.2400,-165.1250,219.7500,-49.5625,-0.5016,0.1071,-0.8338,-0.2042,
2025-03-08 19:40:45.661,10.1700,0.9200,5.2900,-170.6875,221.1875,-50.1250,-0.4834,0.1131,-0.8405,-0.2169,
2025-03-08 19:40:45.691,10.2000,0.3600,5.3300,-174.0625,220.4375,-47.5000,-0.4649,0.1194,-0.8467,-0.2294,
2025-03-08 19:40:45.691,10.2500,-0.0300,5.6300,-177.0000,218.1250,-41.5000,-0.4462,0.1262,-0.8525,-0.2415,
2025-03-08 19:40:45.691,10.1400,-0.2300,5.8000,-176.6250,216.3750,-34.2500,-0.4272,0.1332,-0.8578,-0.2529,
2025-03-08 19:40:45.701,9.6700,-0.5100,6.0300,-174.0625,217.4375,-29.1250,-0.4080,0.1400,-0.8628,-0.2636,
2025-03-08 19:40:45.712,8.5600,-0.7000,6.5500,-170.6250,217.9375,-25.8750,-0.3885,0.1467,-0.8675,-0.2739,
2025-03-08 19:40:45.722,8.2500,-0.6900,6.7900,-165.3125,217.0625,-20.4375,-0.3689,0.1531,-0.8719,-0.2834,
2025-03-08 19:40:45.732,8.3100,-0.9800,6.7800,-153.6250,215.5000,-11.1250,-0.3494,0.1588,-0.8761,-0.2918,
2025-03-08 19:40:45.741,8.1600,-1.5600,6.8800,-141.5000,212.8750,-3.6875,-0.3301,0.1639,-0.8802,-0.2990,
2025-03-08 19:40:45.752,7.9200,-1.5800,6.9900,-126.3750,210.7500,3.5000,-0.3112,0.1680,-0.8842,-0.3051,
2025-03-08 19:40:45.752,7.7900,-1.6400,7.0800,-106.5625,208.5625,10.3125,-0.2926,0.1709,-0.8883,-0.3101,
2025-03-08 19:40:45.772,7.6300,-1.6400,7.0000,-85.8125,205.6250,14.8750,-0.2747,0.1722,-0.8924,-0.3140,
2025-03-08 19:40:45.782,6.9800,-1.4000,7.0600,-70.3750,202.6250,18.1250,-0.2572,0.1726,-0.8964,-0.3171,
2025-03-08 19:40:45.792,6.9700,-1.0700,7.0300,-58.0625,199.3750,22.6250,-0.2402,0.1721,-0.9003,-0.3195,
2025-03-08 19:40:45.801,6.9800,-1.0800,6.7300,-53.1250,197.6250,25.3125,-0.2233,0.1713,-0.9041,-0.3215,
2025-03-08 19:40:45.801,6.2000,-1.0900,6.9100,-52.3750,196.2500,23.8125,-0.2065,0.1704,-0.9076,-0.3235,
2025-03-08 19:40:45.822,5.6900,-1.4000,7.0900,-52.0000,193.3750,21.6875,-0.1899,0.1694,-0.9107,-0.3254,
2025-03-08 19:40:45.832,5.2900,-1.9300,7.0400,-49.5625,189.1875,18.7500,-0.1738,0.1683,-0.9134,-0.3274,
2025-03-08 19:40:45.842,4.8400,-2.2200,7.0200,-41.6250,184.8125,19.1875,-0.1581,0.1667,-0.9159,-0.3292,
2025-03-08 19:40:45.851,4.0600,-2.4100,7.0700,-31.6875,180.0000,25.7500,-0.1429,0.1645,-0.9185,-0.3301,
2025-03-08 19:40:45.851,4.1100,-2.1100,7.0000,-27.1875,173.2500,30.1875,-0.1281,0.1622,-0.9207,-0.3310,
2025-03-08 19:40:45.872,4.2300,-1.9000,7.0900,-30.8750,167.1250,30.4375,-0.1138,0.1602,-0.9229,-0.3312,
2025-03-08 19:40:45.882,4.1900,-1.4600,7.2900,-41.1250,161.6875,26.6250,-0.0997,0.1592,-0.9245,-0.3317,
2025-03-08 19:40:45.892,3.9000,-1.1900,7.3000,-52.2500,154.9375,23.1250,-0.0858,0.1591,-0.9257,-0.3324,
2025-03-08 19:40:45.903,3.5800,-1.5200,7.1500,-59.1250,148.9375,24.1875,-0.0722,0.1597,-0.9265,-0.3329,
2025-03-08 19:40:45.912,3.0700,-2.1300,7.0600,-62.5000,146.7500,23.5625,-0.0586,0.1606,-0.9271,-0.3336,
2025-03-08 19:40:45.922,1.8200,-2.9500,7.0600,-61.0000,142.1875,20.6250,-0.0454,0.1614,-0.9275,-0.3341,
2025-03-08 19:40:45.933,1.5000,-2.8700,7.2500,-52.0000,133.2500,20.8125,-0.0333,0.1619,-0.9278,-0.3345,
2025-03-08 19:40:45.942,1.4100,-2.8600,7.3700,-39.8750,125.8125,22.0625,-0.0220,0.1614,-0.9282,-0.3346,
2025-03-08 19:40:45.952,1.4300,-2.6900,7.0400,-31.6250,121.6250,21.7500,-0.0112,0.1605,-0.9285,-0.3346,
2025-03-08 19:40:45.962,1.3000,-2.7700,6.9900,-26.3750,118.3125,23.3750,-0.0008,0.1593,-0.9288,-0.3347,
2025-03-08 19:40:45.992,1.0200,-2.8900,6.9100,-24.5000,112.8750,25.3750,0.0091,0.1580,-0.9291,-0.3342,
2025-03-08 19:40:45.992,0.8600,-2.9500,6.8900,-23.2500,105.6875,24.6250,0.0184,0.1568,-0.9294,-0.3336,
2025-03-08 19:40:45.992,0.4700,-2.5000,6.9200,-22.0000,97.7500,23.0625,0.0270,0.1558,-0.9296,-0.3331,
2025-03-08 19:40:45.992,0.4600,-2.3200,6.8300,-20.3125,90.3125,22.9375,0.0349,0.1548,-0.9297,-0.3324,
2025-03-08 19:40:46.012,0.3500,-2.2300,6.8200,-20.0625,84.1250,22.0625,0.0424,0.1539,-0.9296,-0.3321,
2025-03-08 19:40:46.012,0.0300,-2.1500,6.7900,-22.3125,76.2500,20.1875,0.0493,0.1534,-0.9296,-0.3314,
2025-03-08 19:40:46.031,-0.1100,-2.6300,6.3000,-26.0000,69.7500,20.1250,0.0558,0.1534,-0.9295,-0.3306,
2025-03-08 19:40:46.042,-0.4900,-2.6600,6.4500,-29.6875,63.0625,16.4375,0.0618,0.1539,-0.9293,-0.3300,
2025-03-08 19:40:46.054,-0.7900,-2.6000,6.4300,-28.1250,53.0625,11.1250,0.0669,0.1546,-0.9290,-0.3297,
2025-03-08 19:40:46.062,-0.6700,-2.8100,6.4500,-27.2500,45.9375,12.9375,0.0715,0.1553,-0.9284,-0.3298,
2025-03-08 19:40:46.071,-0.8000,-3.0800,6.4700,-26.6875,40.7500,13.0000,0.0757,0.1562,-0.9282,-0.3292,
2025-03-08 19:40:46.089,-0.8800,-3.1700,6.3700,-23.1875,32.8125,11.8750,0.0790,0.1570,-0.9280,-0.3285,
2025-03-08 19:40:46.100,-1.0700,-3.1300,6.2400,-18.1250,23.6875,13.1875,0.0816,0.1577,-0.9280,-0.3276,
2025-03-08 19:40:46.107,-1.1000,-2.7500,6.0400,-13.5625,15.1250,16.7500,0.0834,0.1582,-0.9282,-0.3264,
2025-03-08 19:40:46.111,-0.9400,-2.9900,5.9400,-14.1250,7.8125,15.0000,0.0846,0.1590,-0.9282,-0.3256,
2025-03-08 19:40:46.122,-1.1400,-3.0300,6.2300,-15.7500,2.0000,9.6875,0.0853,0.1601,-0.9282,-0.3248,
2025-03-08 19:40:46.132,-0.9600,-3.1300,6.5300,-15.5000,-5.3125,6.3125,0.0854,0.1614,-0.9282,-0.3241,
2025-03-08 19:40:46.141,-0.6600,-3.1700,6.5000,-13.6250,-12.9375,3.0000,0.0848,0.1628,-0.9282,-0.3235,
2025-03-08 19:40:46.151,-0.8700,-2.9200,6.6000,-9.7500,-20.2500,-0.5625,0.0835,0.1641,-0.9282,-0.3232,
2025-03-08 19:40:46.162,-0.7400,-2.7300,6.4800,-8.0625,-29.3125,-3.5000,0.0814,0.1656,-0.9282,-0.3231,
2025-03-08 19:40:46.172,-0.8300,-2.8900,6.5300,-8.5625,-35.4375,-8.0000,0.0787,0.1673,-0.9281,-0.3231,
2025-03-08 19:40:46.182,-0.9300,-3.2300,6.6200,-9.2500,-40.1250,-13.5625,0.0756,0.1692,-0.9279,-0.3236,
2025-03-08 19:40:46.192,-1.1100,-3.6800,6.8600,-7.3125,-44.8125,-17.0625,0.0721,0.1711,-0.9276,-0.3242,
2025-03-08 19:40:46.202,-0.4700,-4.0400,6.9600,-0.1875,-51.0625,-15.3125,0.0679,0.1726,-0.9275,-0.3246,
2025-03-08 19:40:46.212,-0.3500,-4.1600,7.1100,7.1875,-56.2500,-11.0625,0.0679,0.1726,-0.9275,-0.3246,
2025-03-08 19:40:46.223,-0.0900,-4.3100,7.0700,9.7500,-62.4375,-8.6250,0.0631,0.1736,-0.9276,-0.3248,
2025-03-08 19:40:46.232,0.2800,-4.3200,6.8800,13.7500,-70.5000,-8.1875,0.0518,0.1755,-0.9281,-0.3243,
2025-03-08 19:40:46.242,0.5500,-4.2900,7.3600,20.0000,-76.2500,-10.6250,0.0451,0.1761,-0.9284,-0.3240,
2025-03-08 19:40:46.252,0.5500,-3.8300,7.5000,28.4375,-83.8125,-16.0000,0.0375,0.1762,-0.9287,-0.3242,
2025-03-08 19:40:46.262,0.5000,-3.4100,7.5300,38.3125,-89.8750,-19.5625,0.0291,0.1757,-0.9290,-0.3245,
2025-03-08 19:40:46.271,0.3100,-3.0500,7.6800,48.0625,-96.2500,-20.8125,0.0199,0.1746,-0.9293,-0.3248,
2025-03-08 19:40:46.283,0.8100,-2.4700,7.2400,52.3750,-109.8125,-20.6875,0.0095,0.1735,-0.9297,-0.3248,
2025-03-08 19:40:46.291,1.8800,-2.2900,6.3900,51.6250,-119.5000,-18.0000,-0.0015,0.1728,-0.9300,-0.3245,
2025-03-08 19:40:46.321,2.0500,-2.3500,6.4300,49.3125,-115.8750,-12.5000,-0.0121,0.1721,-0.9303,-0.3238,
2025-03-08 19:40:46.321,1.6600,-2.2300,7.1400,41.6875,-118.2500,-11.8125,-0.0121,0.1721,-0.9303,-0.3238,
2025-03-08 19:40:46.322,1.8700,-2.1800,7.3600,35.6250,-124.8125,-13.3750,-0.0228,0.1720,-0.9304,-0.3229,
2025-03-08 19:40:46.332,1.9100,-2.2300,7.6300,28.6250,-129.3125,-14.2500,-0.0449,0.1738,-0.9298,-0.3212,
2025-03-08 19:40:46.342,1.8000,-2.3600,7.7100,23.8750,-135.6875,-13.0000,-0.0564,0.1755,-0.9293,-0.3201,
2025-03-08 19:40:46.351,2.2700,-2.7000,7.8400,23.8125,-144.9375,-9.9375,-0.0685,0.1775,-0.9286,-0.3186,
2025-03-08 19:40:46.361,3.6200,-3.2000,5.6300,19.3750,-153.9375,-10.3125,-0.0685,0.1775,-0.9286,-0.3186,
2025-03-08 19:40:46.373,4.3700,-3.9100,5.4600,16.0625,-145.9375,-11.3125,-0.0934,0.1826,-0.9266,-0.3152,
2025-03-08 19:40:46.382,3.8400,-3.5300,7.4000,32.5625,-145.0625,-8.6875,-0.1057,0.1838,-0.9256,-0.3134,
2025-03-08 19:40:46.392,3.6100,-3.3000,8.1400,45.4375,-158.2500,-9.3750,-0.1194,0.1843,-0.9246,-0.3112,
2025-03-08 19:40:46.416,3.8600,-2.9700,8.4800,52.1250,-170.1250,-16.6250,-0.1343,0.1846,-0.9232,-0.3093,
2025-03-08 19:40:46.416,4.3800,-2.7100,8.3600,54.0625,-177.5625,-24.3750,-0.1343,0.1846,-0.9232,-0.3093,
2025-03-08 19:40:46.421,5.7500,-1.9500,8.3200,55.3125,-183.8750,-26.1875,-0.1500,0.1847,-0.9212,-0.3077,
2025-03-08 19:40:46.431,7.3800,-1.7200,7.1500,61.0625,-192.0000,-21.2500,-0.1661,0.1848,-0.9190,-0.3062,
2025-03-08 19:40:46.442,8.2000,-2.6400,5.0400,63.8125,-188.6250,-13.5625,-0.1829,0.1847,-0.9165,-0.3039,
2025-03-08 19:40:46.452,5.2700,-2.0700,6.5100,72.7500,-173.5625,-9.7500,-0.1993,0.1843,-0.9141,-0.3010,
2025-03-08 19:40:46.461,4.1500,-0.5900,7.3600,94.7500,-176.1875,0.0625,-0.2147,0.1830,-0.9120,-0.2978,
2025-03-08 19:40:46.467,4.0500,0.0900,7.6600,112.5625,-185.0625,9.0625,-0.2307,0.1801,-0.9102,-0.2933,
2025-03-08 19:40:46.481,4.7900,0.5000,7.4000,110.4375,-194.1250,7.0000,-0.2475,0.1761,-0.9083,-0.2875,
2025-03-08 19:40:46.491,6.5300,-0.0500,6.6300,94.6250,-197.2500,3.8750,-0.2649,0.1725,-0.9059,-0.2817,
2025-03-08 19:40:46.501,8.1500,-0.1000,6.5100,77.0625,-200.5625,13.0625,-0.2822,0.1700,-0.9028,-0.2764,
2025-03-08 19:40:46.512,10.2300,-0.8800,4.8800,57.9375,-203.6875,24.5625,-0.2990,0.1691,-0.8993,-0.2706,
2025-03-08 19:40:46.521,9.8600,-2.4600,3.7600,39.0000,-192.3125,25.1875,-0.3154,0.1699,-0.8954,-0.2643,
2025-03-08 19:40:46.531,6.8700,-2.8900,7.1400,36.1875,-181.7500,12.5625,-0.3304,0.1719,-0.8913,-0.2586,
2025-03-08 19:40:46.541,7.0400,-1.4600,7.7900,65.5625,-187.5000,1.2500,-0.3447,0.1735,-0.8869,-0.2540,
2025-03-08 19:40:46.551,7.8300,-0.7600,7.4200,102.6250,-200.8125,-9.2500,-0.3600,0.1726,-0.8823,-0.2492,
2025-03-08 19:40:46.562,8.4500,-0.6400,6.4100,126.6875,-206.2500,-13.1875,-0.3773,0.1689,-0.8773,-0.2438,
2025-03-08 19:40:46.571,8.9500,-0.3400,6.0000,142.8125,-202.4375,4.5625,-0.3953,0.1633,-0.8721,-0.2377,
2025-03-08 19:40:46.592,9.6800,0.2600,6.0400,147.3125,-202.0000,29.8125,-0.4129,0.1570,-0.8672,-0.2298,
2025-03-08 19:40:46.597,11.2600,0.7000,5.7200,138.6250,-206.8750,48.3750,-0.4301,0.1511,-0.8625,-0.2197,
2025-03-08 19:40:46.601,10.1000,-1.0700,4.1400,122.9375,-203.9375,52.5625,-0.4470,0.1465,-0.8575,-0.2085,
2025-03-08 19:40:46.610,9.1800,-1.5200,4.9400,111.3750,-190.5000,37.8125,-0.4632,0.1432,-0.8520,-0.1975,
2025-03-08 19:40:46.622,9.4700,-0.8400,5.6300,118.6250,-183.5000,27.3125,-0.4782,0.1398,-0.8464,-0.1880,
2025-03-08 19:40:46.632,10.8700,0.5000,5.5900,132.5625,-187.7500,29.6875,-0.4928,0.1353,-0.8407,-0.1791,
2025-03-08 19:40:46.641,10.8800,0.1000,5.6000,141.1250,-192.4375,33.8125,-0.5077,0.1299,-0.8347,-0.1693,
2025-03-08 19:40:46.652,10.8700,-0.3100,5.3300,149.2500,-189.3750,39.0625,-0.5228,0.1242,-0.8283,-0.1587,
2025-03-08 19:40:46.661,10.8700,-0.3100,5.3300,156.5625,-181.3125,44.2500,-0.5375,0.1180,-0.8218,-0.1474,
2025-03-08 19:40:46.671,11.0700,-0.2000,5.0100,154.5000,-175.3125,43.0625,-0.5515,0.1114,-0.8155,-0.1354,
2025-03-08 19:40:46.682,11.9700,1.0900,4.3800,145.8125,-171.2500,38.6250,-0.5648,0.1047,-0.8092,-0.1235,
2025-03-08 19:40:46.694,11.8900,0.7300,4.4200,136.5625,-167.3125,34.3750,-0.5776,0.0983,-0.8025,-0.1124,
2025-03-08 19:40:46.707,11.8400,0.2700,4.1500,129.5625,-163.5625,26.1250,-0.5898,0.0923,-0.7957,-0.1020,
2025-03-08 19:40:46.712,11.8400,0.2700,4.1500,126.0000,-156.6250,18.0000,-0.6017,0.0864,-0.7886,-0.0925,
2025-03-08 19:40:46.721,12.0100,0.0000,3.6300,126.0625,-145.0625,13.1250,-0.6129,0.0800,-0.7816,-0.0836,
2025-03-08 19:40:46.731,12.5600,0.3900,2.9400,124.6875,-131.3125,11.8125,-0.6232,0.0734,-0.7750,-0.0753,
2025-03-08 19:40:46.742,11.8600,0.9800,2.6800,121.8750,-116.1875,14.8125,-0.6325,0.0667,-0.7688,-0.0671,
2025-03-08 19:40:46.752,11.6500,1.3600,2.6000,114.5000,-101.2500,19.1250,-0.6405,0.0602,-0.7633,-0.0590,
2025-03-08 19:40:46.761,11.6500,1.3600,2.6000,97.9375,-90.7500,21.7500,-0.6475,0.0543,-0.7584,-0.0510,
2025-03-08 19:40:46.773,12.0400,1.8400,2.2300,76.6875,-81.1250,21.2500,-0.6536,0.0492,-0.7540,-0.0433,
2025-03-08 19:40:46.782,10.4200,1.2300,2.6500,56.3125,-65.5625,15.6250,-0.6589,0.0458,-0.7499,-0.0374,
2025-03-08 19:40:46.791,10.2800,1.0900,2.7800,43.8125,-50.0625,6.6875,-0.6632,0.0433,-0.7465,-0.0330,
2025-03-08 19:40:46.803,10.5800,1.3600,2.7700,39.5625,-38.8125,1.0625,-0.6664,0.0410,-0.7438,-0.0299,
2025-03-08 19:40:46.811,10.5800,1.3600,2.7700,35.2500,-30.0625,-2.0625,-0.6690,0.0387,-0.7418,-0.0275,
2025-03-08 19:40:46.826,11.2400,2.0500,2.1600,26.5000,-21.1875,-4.4375,-0.6709,0.0358,-0.7402,-0.0248,
2025-03-08 19:40:46.831,11.7100,2.0900,1.4500,13.2500,-11.4375,-4.5625,-0.6724,0.0339,-0.7391,-0.0235,
2025-03-08 19:40:46.841,11.6300,1.7700,1.5800,-1.5000,-0.6875,-3.0625,-0.6731,0.0328,-0.7385,-0.0230,
2025-03-08 19:40:46.852,11.3900,0.9800,2.1700,-11.5625,11.3125,-1.3125,-0.6732,0.0328,-0.7384,-0.0233,
2025-03-08 19:40:46.861,11.3900,0.9800,2.1700,-11.5625,11.3125,-1.3125,-0.6724,0.0334,-0.7390,-0.0240,
2025-03-08 19:40:46.871,11.2900,0.6500,2.1400,-15.2500,25.1875,-0.6250,-0.6708,0.0344,-0.7404,-0.0252,
2025-03-08 19:40:46.882,10.9200,0.9500,1.9700,-9.7500,41.1875,-2.6875,-0.6686,0.0352,-0.7424,-0.0262,
2025-03-08 19:40:46.892,10.9500,1.6600,2.1600,-6.0000,45.1250,-3.6875,-0.6660,0.0355,-0.7446,-0.0270,
2025-03-08 19:40:46.902,11.1500,2.2700,2.3700,-8.1250,50.6875,-4.8125,-0.6631,0.0356,-0.7472,-0.0278,
2025-03-08 19:40:46.902,11.1500,2.2700,2.3700,-18.5000,59.3125,-6.5000,-0.6599,0.0357,-0.7499,-0.0287,
2025-03-08 19:40:46.921,11.3200,2.6900,2.4800,-18.5000,59.3125,-6.5000,-0.6561,0.0369,-0.7532,-0.0309,
2025-03-08 19:40:46.931,10.9600,2.2400,2.6400,-50.6875,81.1250,-14.2500,-0.6515,0.0383,-0.7569,-0.0336,
2025-03-08 19:40:46.942,10.9200,1.8500,2.6800,-65.7500,89.3125,-20.0625,-0.6462,0.0405,-0.7611,-0.0375,
2025-03-08 19:40:46.953,11.1800,1.4800,2.8200,-79.1250,94.1250,-24.8125,-0.6403,0.0434,-0.7657,-0.0427,
2025-03-08 19:40:46.962,11.1800,1.4800,2.8200,-79.1250,94.1250,-24.8125,-0.6340,0.0468,-0.7704,-0.0490,
2025-03-08 19:40:46.972,11.3500,1.4100,3.0500,-87.6250,97.5625,-27.6875,-0.6273,0.0508,-0.7751,-0.0560,
2025-03-08 19:40:46.982,11.3000,1.3000,3.4900,-97.2500,109.9375,-33.4375,-0.6202,0.0548,-0.7799,-0.0634,
2025-03-08 19:40:46.991,10.7200,1.2000,3.6800,-99.1250,119.4375,-36.8125,-0.6126,0.0588,-0.7850,-0.0712,
2025-03-08 19:40:47.001,10.4200,1.0800,3.7800,-100.1875,128.2500,-40.0000,-0.6042,0.0628,-0.7904,-0.0793,
2025-03-08 19:40:47.011,10.4200,1.0800,3.7800,-100.1875,128.2500,-40.0000,-0.5952,0.0666,-0.7960,-0.0878,
2025-03-08 19:40:47.021,10.1900,1.1300,4.0200,-103.8125,133.8125,-43.9375,-0.5855,0.0707,-0.8017,-0.0972,
2025-03-08 19:40:47.032,11.3800,1.3800,5.2000,-126.0000,141.8125,-50.0000,-0.5755,0.0748,-0.8074,-0.1067,
2025-03-08 19:40:47.042,12.0700,1.3300,5.7200,-144.1250,154.8750,-55.6250,-0.5649,0.0797,-0.8129,-0.1171,
2025-03-08 19:40:47.052,12.0700,1.3300,5.7200,-161.1875,179.1250,-59.5000,-0.5532,0.0853,-0.8186,-0.1288,
2025-03-08 19:40:47.062,12.5000,1.0800,6.1000,-161.1875,179.1250,-59.5000,-0.5394,0.0917,-0.8250,-0.1417,
2025-03-08 19:40:47.071,11.0000,0.4100,5.9900,-175.0000,206.4375,-62.4375,-0.5232,0.0986,-0.8321,-0.1556,
2025-03-08 19:40:47.082,9.8100,0.2900,5.7800,-172.3750,214.3125,-71.5625,-0.5058,0.1053,-0.8391,-0.1702,
2025-03-08 19:40:47.092,9.4200,0.5700,5.6400,-162.0000,204.6250,-66.6250,-0.4886,0.1114,-0.8455,-0.1844,
2025-03-08 19:40:47.105,9.7700,0.1400,6.2800,-160.0625,202.0000,-59.1250,-0.4720,0.1170,-0.8511,-0.1978,
2025-03-08 19:40:47.111,9.7500,0.0100,6.7300,-160.0625,202.0000,-59.1250,-0.4553,0.1227,-0.8564,-0.2104,
2025-03-08 19:40:47.121,9.6400,-0.3700,6.9900,-161.1875,206.1250,-53.0000,-0.4379,0.1287,-0.8615,-0.2225,
2025-03-08 19:40:47.133,9.5000,-0.9600,7.2300,-154.6875,215.5000,-39.6875,-0.4199,0.1346,-0.8665,-0.2341,
2025-03-08 19:40:47.141,9.2300,-2.1000,7.2400,-139.1875,216.3750,-34.6875,-0.4014,0.1403,-0.8714,-0.2448,
2025-03-08 19:40:47.162,9.0500,-2.3800,7.3100,-116.9375,217.0625,-29.6875,-0.3829,0.1448,-0.8761,-0.2546,
2025-03-08 19:40:47.162,8.8400,-2.3200,7.4800,-116.9375,217.0625,-29.6875,-0.3646,0.1478,-0.8809,-0.2632,
2025-03-08 19:40:47.172,8.6000,-1.9100,7.7000,-94.5000,218.1250,-23.7500,-0.3465,0.1492,-0.8857,-0.2706,
2025-03-08 19:40:47.192,8.3100,-0.6500,8.2700,-56.9375,219.6250,-14.2500,-0.3286,0.1492,-0.8906,-0.2769,
2025-03-08 19:40:47.192,8.3700,-0.5100,8.2200,-47.5625,220.6875,-9.3125,-0.3109,0.1479,-0.8954,-0.2822,
2025-03-08 19:40:47.202,8.3100,-0.8900,7.9300,-44.5625,223.1875,-7.2500,-0.2931,0.1460,-0.9003,-0.2869,
2025-03-08 19:40:47.212,7.2300,-1.7900,7.8400,-44.5625,223.1875,-7.2500,-0.2751,0.1438,-0.9049,-0.2912,
2025-03-08 19:40:47.221,6.7900,-1.8400,7.9000,-37.4375,224.0000,-5.8125,-0.2570,0.1410,-0.9093,-0.2952,
2025-03-08 19:40:47.232,6.6900,-1.3600,7.8200,-13.6250,217.6250,0.9375,-0.2394,0.1372,-0.9137,-0.2985,
2025-03-08 19:40:47.241,6.7500,-0.7500,7.6600,-14.5625,215.4375,1.7500,-0.2222,0.1327,-0.9178,-0.3011,
2025-03-08 19:40:47.252,6.3800,-0.0400,7.4800,-24.3750,213.8125,-0.1875,-0.2051,0.1284,-0.9215,-0.3037,
2025-03-08 19:40:47.262,5.9900,-0.2400,7.5000,-24.3750,213.8125,-0.1875,-0.1878,0.1248,-0.9248,-0.3063,
2025-03-08 19:40:47.271,5.6300,-0.6300,7.4800,-35.6250,211.2500,-1.1250,-0.1704,0.1221,-0.9276,-0.3092,
2025-03-08 19:40:47.282,4.6200,-1.4400,7.3400,-47.1875,200.4375,-0.0625,-0.1531,0.1201,-0.9300,-0.3119,
2025-03-08 19:40:47.293,4.1400,-1.5200,7.2500,-47.5000,191.9375,3.1875,-0.1360,0.1185,-0.9320,-0.3145,
2025-03-08 19:40:47.304,3.8500,-1.5800,7.2300,-46.4375,184.2500,7.9375,-0.1196,0.1171,-0.9336,-0.3167,
2025-03-08 19:40:47.308,3.6500,-1.5600,7.1900,-46.4375,184.2500,7.9375,-0.1038,0.1160,-0.9351,-0.3184,
2025-03-08 19:40:47.313,3.1900,-1.1800,7.1500,-48.3750,177.0625,10.4375,-0.0883,0.1151,-0.9363,-0.3199,
2025-03-08 19:40:47.341,2.8400,-1.1600,7.1000,-54.5000,162.5000,12.0000,-0.0734,0.1147,-0.9372,-0.3210,
2025-03-08 19:40:47.343,2.5200,-1.2600,6.9100,-59.0625,155.5000,11.3750,-0.0589,0.1147,-0.9380,-0.3219,
2025-03-08 19:40:47.353,1.8900,-1.8700,6.9800,-60.8125,147.6250,11.3750,-0.0449,0.1152,-0.9384,-0.3228,
2025-03-08 19:40:47.362,1.7700,-2.0000,6.9900,-60.8125,147.6250,11.3750,-0.0314,0.1160,-0.9386,-0.3235,
2025-03-08 19:40:47.371,1.5100,-1.9200,6.8800,-58.8125,139.7500,12.8750,-0.0186,0.1169,-0.9385,-0.3244,
2025-03-08 19:40:47.384,1.1600,-1.8800,6.8200,-54.0000,123.3750,19.7500,-0.0063,0.1177,-0.9385,-0.3245,
2025-03-08 19:40:47.394,0.6200,-2.0300,6.8600,-52.6875,116.0000,21.8125,0.0051,0.1186,-0.9385,-0.3242,
2025-03-08 19:40:47.401,0.4700,-2.0200,6.8500,-52.3750,107.5625,22.8125,0.0159,0.1196,-0.9385,-0.3235,
2025-03-08 19:40:47.412,0.4000,-1.9600,6.7200,-52.3750,107.5625,22.8125,0.0261,0.1208,-0.9384,-0.3227,
2025-03-08 19:40:47.421,0.0800,-2.1700,6.7700,-53.3750,100.0000,24.5625,0.0359,0.1222,-0.9378,-0.3229,
2025-03-08 19:40:47.431,-0.5700,-2.6600,6.7500,-49.8125,80.8750,25.5625,0.0449,0.1238,-0.9377,-0.3216,
2025-03-08 19:40:47.445,-0.4900,-2.8500,6.4300,-44.6875,72.8125,26.2500,0.0529,0.1254,-0.9375,-0.3203,
2025-03-08 19:40:47.455,-0.6000,-2.8800,6.3800,-36.9375,66.1250,27.3125,0.0602,0.1269,-0.9374,-0.3187,
2025-03-08 19:40:47.455,-0.8500,-2.6000,6.1500,-36.9375,66.1250,27.3125,0.0667,0.1279,-0.9374,-0.3171,
2025-03-08 19:40:47.495,-0.8700,-2.6000,6.0000,-31.3125,57.9375,25.5625,0.0724,0.1286,-0.9372,-0.3161,
2025-03-08 19:40:47.495,-1.0600,-2.6800,6.0900,-27.8125,43.8750,18.4375,0.0775,0.1294,-0.9371,-0.3147,
2025-03-08 19:40:47.495,-1.1400,-2.7400,6.0600,-27.0000,33.9375,15.8750,0.0819,0.1303,-0.9370,-0.3135,
2025-03-08 19:40:47.505,-1.2600,-2.6800,5.6200,-22.5000,24.5000,16.6875,0.0855,0.1315,-0.9369,-0.3124,
2025-03-08 19:40:47.515,-1.5000,-2.8000,5.5800,-22.5000,24.5000,16.6875,0.0882,0.1325,-0.9369,-0.3112,
2025-03-08 19:40:47.515,-1.7200,-2.8800,5.5600,-18.2500,17.6250,20.4375,0.0903,0.1333,-0.9371,-0.3097,
2025-03-08 19:40:47.531,-1.6000,-2.9500,5.5500,-15.7500,9.5000,21.1875,0.0917,0.1342,-0.9374,-0.3080,
2025-03-08 19:40:47.546,-1.6300,-3.1900,5.7900,-14.1250,-7.1250,17.7500,0.0924,0.1351,-0.9378,-0.3063,
2025-03-08 19:40:47.553,-1.5000,-3.3900,5.9400,-13.6875,-14.9375,14.6250,0.0924,0.1362,-0.9381,-0.3047,
2025-03-08 19:40:47.563,-1.3600,-3.4700,6.0600,-13.6875,-14.9375,14.6250,0.0917,0.1376,-0.9385,-0.3032,
2025-03-08 19:40:47.569,-1.1900,-3.3200,6.3400,-10.7500,-22.7500,12.3750,0.0903,0.1389,-0.9388,-0.3019,
2025-03-08 19:40:47.583,-1.1800,-3.1200,6.3800,-5.0000,-31.6250,10.9375,0.0881,0.1401,-0.9393,-0.3006,
2025-03-08 19:40:47.591,-1.2500,-2.8500,6.3600,0.7500,-41.6250,9.2500,0.0848,0.1410,-0.9398,-0.2994,
2025-03-08 19:40:47.608,-1.0200,-2.4600,6.2400,3.7500,-51.3750,8.2500,0.0808,0.1419,-0.9404,-0.2982,
2025-03-08 19:40:47.612,-0.9600,-2.4500,6.2000,3.5000,-59.2500,7.8750,0.0761,0.1431,-0.9411,-0.2968,
2025-03-08 19:40:47.621,-0.9700,-2.6000,6.1700,1.9375,-64.9375,8.1875,0.0710,0.1445,-0.9417,-0.2954,
2025-03-08 19:40:47.644,-1.0100,-2.8000,6.2200,-2.6250,-70.5625,9.2500,0.0656,0.1464,-0.9423,-0.2938,
2025-03-08 19:40:47.644,-1.0000,-2.9800,6.4600,-8.5000,-77.3750,10.4375,0.0597,0.1489,-0.9429,-0.2919,
2025-03-08 19:40:47.654,-0.9000,-3.0400,6.8200,-12.8125,-85.6875,12.6875,0.0533,0.1520,-0.9434,-0.2898,
2025-03-08 19:40:47.677,0.6800,-4.4700,7.0400,-15.5000,-103.6250,13.0000,0.0386,0.1591,-0.9445,-0.2849,
2025-03-08 19:40:47.682,0.8800,-4.2400,7.2300,-13.6875,-107.1250,5.6250,0.0305,0.1628,-0.9447,-0.2830,
2025-03-08 19:40:47.707,1.0300,-3.5600,7.3900,-3.1875,-121.6250,-4.8125,0.0208,0.1660,-0.9448,-0.2816,
2025-03-08 19:40:47.707,1.1100,-2.8000,7.3400,13.8750,-134.6875,-8.1875,0.0096,0.1680,-0.9450,-0.2804,
2025-03-08 19:40:47.721,0.4700,-1.2700,7.3100,34.1875,-162.3750,-1.3750,-0.0164,0.1701,-0.9457,-0.2766,
2025-03-08 19:40:47.732,1.2200,-0.8500,7.3800,34.1875,-162.3750,-1.3750,-0.0301,0.1711,-0.9458,-0.2742,
2025-03-08 19:40:47.757,4.2200,-4.1700,6.2800,-8.6875,-146.2500,9.6250,-0.0557,0.1773,-0.9453,-0.2682,
2025-03-08 19:40:47.771,3.6000,-3.5900,8.4200,1.3125,-182.6875,5.0625,-0.0831,0.1856,-0.9434,-0.2621,
2025-03-08 19:40:47.796,3.4500,-2.7400,8.5300,7.5000,-189.3750,6.0000,-0.0983,0.1892,-0.9422,-0.2585,
2025-03-08 19:40:47.802,3.5400,-2.2000,7.7000,19.6875,-193.8750,4.1875,-0.1294,0.1949,-0.9392,-0.2513,
2025-03-08 19:40:47.820,7.1800,-3.1300,5.3200,13.4375,-194.2500,-3.0625,-0.1613,0.2004,-0.9350,-0.2443,
2025-03-08 19:40:47.834,7.0100,-3.8600,5.5300,8.0000,-186.0625,-12.8750,-0.1763,0.2034,-0.9322,-0.2420,
2025-03-08 19:40:47.855,5.4200,-1.9200,7.4800,44.0625,-201.4375,0.3750,-0.2089,0.2058,-0.9267,-0.2348,
2025-03-08 19:40:47.874,5.9300,-2.1000,7.3200,43.3750,-218.1250,-7.5000,-0.2443,0.2070,-0.9199,-0.2263,
2025-03-08 19:40:47.884,6.4500,-2.0500,7.1400,41.8125,-221.6250,-4.0000,-0.2623,0.2078,-0.9158,-0.2219,
2025-03-08 19:40:47.905,9.7300,-2.1900,5.2800,25.3125,-218.6875,4.4375,-0.2974,0.2112,-0.9066,-0.2120,
2025-03-08 19:40:47.905,8.4500,-3.0200,4.8700,16.5000,-197.5000,-1.5000,-0.3128,0.2134,-0.9018,-0.2081,
2025-03-08 19:40:47.921,6.9200,-3.2500,7.1200,23.0000,-189.0000,-6.5625,-0.3277,0.2147,-0.8971,-0.2043,
2025-03-08 19:40:47.937,7.1600,-2.9300,7.4800,43.5000,-196.7500,-9.9375,-0.3435,0.2145,-0.8921,-0.2003,
2025-03-08 19:40:47.944,7.6300,-3.2100,7.4800,60.6250,-205.4375,-8.0625,-0.3601,0.2131,-0.8870,-0.1954,
2025-03-08 19:40:47.952,7.8400,-3.7500,7.3100,76.0625,-207.7500,0.9375,-0.3768,0.2109,-0.8819,-0.1893,
2025-03-08 19:40:47.961,8.0900,-3.5300,6.8700,97.8125,-208.0625,14.6250,-0.3936,0.2073,-0.8771,-0.1813,
2025-03-08 19:40:47.971,8.6100,-2.6700,6.7600,122.5625,-209.0625,28.0625,-0.4104,0.2023,-0.8725,-0.1714,
2025-03-08 19:40:47.981,9.7000,-1.7900,5.9300,140.3750,-208.8125,36.5000,-0.4271,0.1962,-0.8680,-0.1603,
2025-03-08 19:40:47.998,9.8100,-1.7200,4.6000,141.2500,-199.8750,29.1250,-0.4431,0.1896,-0.8633,-0.1497,
2025-03-08 19:40:48.002,8.1800,-1.3700,4.9900,140.8750,-187.4375,14.7500,-0.4582,0.1822,-0.8586,-0.1403,
2025-03-08 19:40:48.011,8.8400,-0.8500,5.1400,151.3750,-184.1250,17.6875,-0.4730,0.1741,-0.8538,-0.1303,
2025-03-08 19:40:48.021,9.7500,-0.5200,4.8000,162.1875,-189.1875,29.8125,-0.4878,0.1656,-0.8488,-0.1189,
2025-03-08 19:40:48.032,10.9400,-1.0100,4.8300,159.8125,-192.6250,34.8125,-0.5027,0.1575,-0.8432,-0.1071,
2025-03-08 19:40:48.042,10.7500,-1.4400,4.8100,150.3125,-189.3750,29.3125,-0.5170,0.1497,-0.8373,-0.0961,
2025-03-08 19:40:48.051,10.4200,-1.0500,4.8500,140.8125,-179.8750,27.1250,-0.5304,0.1423,-0.8313,-0.0857,
2025-03-08 19:40:48.061,10.0800,-0.1100,5.0400,129.3125,-171.2500,24.5000,-0.5430,0.1356,-0.8252,-0.0761,
2025-03-08 19:40:48.070,10.6400,1.0000,4.8300,117.6875,-168.5625,22.0000,-0.5552,0.1295,-0.8188,-0.0673,
2025-03-08 19:40:48.091,9.7500,0.3800,4.6500,106.6875,-165.8125,14.5000,-0.5670,0.1237,-0.8122,-0.0594,
2025-03-08 19:40:48.098,9.6700,0.0600,4.7400,100.7500,-161.6875,2.4375,-0.5785,0.1177,-0.8054,-0.0527,
2025-03-08 19:40:48.103,12.3500,-0.2000,3.8800,99.5625,-157.8125,-9.8125,-0.5897,0.1111,-0.7985,-0.0469,
2025-03-08 19:40:48.111,13.2900,-0.2800,3.2900,97.0000,-150.1875,-15.6875,-0.6003,0.1044,-0.7918,-0.0417,
2025-03-08 19:40:48.116,13.3000,-0.2400,3.0100,90.7500,-134.5000,-17.4375,-0.6098,0.0977,-0.7857,-0.0369,
2025-03-08 19:40:48.132,12.7900,-0.2300,3.0700,85.5000,-116.0000,-13.8125,-0.6178,0.0917,-0.7803,-0.0325,
2025-03-08 19:40:48.142,11.8300,0.6300,3.8300,80.3750,-104.6250,-12.0000,-0.6250,0.0860,-0.7754,-0.0283,
2025-03-08 19:40:48.155,11.7800,0.9300,3.9900,71.1875,-99.8125,-11.6250,-0.6317,0.0810,-0.7706,-0.0245,
2025-03-08 19:40:48.161,11.8000,0.8700,3.8000,55.6875,-94.4375,-13.5625,-0.6381,0.0768,-0.7658,-0.0218,
2025-03-08 19:40:48.169,11.3700,0.3600,3.0300,40.4375,-83.8125,-17.6250,-0.6438,0.0725,-0.7616,-0.0192,
2025-03-08 19:40:48.182,11.1400,0.1100,2.7200,29.5000,-71.6250,-18.9375,-0.6485,0.0697,-0.7578,-0.0184,
2025-03-08 19:40:48.191,11.0100,-0.0500,2.4600,22.3750,-61.2500,-17.9375,-0.6526,0.0674,-0.7545,-0.0179,
2025-03-08 19:40:48.201,10.8700,-0.1300,2.1900,15.8750,-53.8125,-17.0000,-0.6561,0.0655,-0.7516,-0.0178,
2025-03-08 19:40:48.211,10.7000,-0.3900,1.5900,6.8125,-47.6875,-16.0625,-0.6592,0.0643,-0.7490,-0.0182,
2025-03-08 19:40:48.211,10.7900,-0.5700,1.4100,-1.8125,-42.0625,-14.3750,-0.6620,0.0635,-0.7466,-0.0189,
2025-03-08 19:40:48.233,10.8800,-0.8900,1.2700,-8.2500,-36.2500,-12.8750,-0.6643,0.0634,-0.7445,-0.0200,
2025-03-08 19:40:48.242,10.8600,-1.1700,1.3300,-10.6250,-30.3750,-11.1250,-0.6662,0.0635,-0.7427,-0.0211,
2025-03-08 19:40:48.252,10.6200,-1.4500,1.5700,-7.3750,-25.1875,-8.7500,-0.6679,0.0635,-0.7412,-0.0220,
2025-03-08 19:40:48.262,10.4800,-1.4400,1.5700,0.0625,-19.8750,-6.1875,-0.6691,0.0632,-0.7401,-0.0222,
2025-03-08 19:40:48.262,10.3700,-1.3900,1.5500,9.9375,-15.1250,-4.3125,-0.6702,0.0621,-0.7393,-0.0215,
2025-03-08 19:40:48.282,10.3500,-1.0900,1.3600,20.6875,-10.6250,-2.4375,-0.6709,0.0607,-0.7388,-0.0204,
2025-03-08 19:40:48.291,10.3300,-0.9300,1.2400,28.0000,-5.8750,-0.8750,-0.6713,0.0589,-0.7386,-0.0189,
2025-03-08 19:40:48.302,10.3000,-0.6800,1.1500,31.7500,-0.2500,0.6250,-0.6713,0.0569,-0.7388,-0.0170,
2025-03-08 19:40:48.303,10.1600,-0.5200,1.0200,33.2500,6.1250,1.7500,-0.6710,0.0549,-0.7393,-0.0151,
2025-03-08 19:40:48.311,9.8700,-0.3100,0.7700,32.5000,11.6875,2.6875,-0.6703,0.0530,-0.7401,-0.0131,
2025-03-08 19:40:48.333,9.7400,-0.2700,0.6900,27.7500,14.6250,4.1250,-0.6694,0.0515,-0.7410,-0.0113,
2025-03-08 19:40:48.342,9.7400,-0.1700,0.6300,20.0000,14.8125,5.6250,-0.6685,0.0505,-0.7420,-0.0099,
2025-03-08 19:40:48.353,9.6900,-0.0900,0.5400,13.5000,13.5000,6.8125,-0.6676,0.0500,-0.7428,-0.0087,
2025-03-08 19:40:48.353,9.6500,-0.0900,0.4600,10.4375,12.0000,7.1875,-0.6668,0.0498,-0.7435,-0.0078,
2025-03-08 19:40:48.362,9.5700,-0.0500,0.4500,10.5625,9.6250,6.1250,-0.6662,0.0494,-0.7441,-0.0067,
2025-03-08 19:40:48.392,9.5200,-0.0400,0.4200,11.2500,6.1250,4.6875,-0.6658,0.0490,-0.7445,-0.0058,
2025-03-08 19:40:48.392,9.4800,0.0200,0.5100,10.0625,2.8125,2.8750,-0.6656,0.0485,-0.7447,-0.0051,
2025-03-08 19:40:48.401,9.5500,0.0600,0.5700,6.4375,-0.1875,1.1875,-0.6656,0.0481,-0.7448,-0.0046,
2025-03-08 19:40:48.411,9.5900,0.0400,0.6500,1.0000,-1.6250,0.5000,-0.6663,0.0474,-0.7442,-0.0052,
2025-03-08 19:40:48.420,9.6800,0.0200,0.8700,-4.5000,-1.7500,0.5625,-0.6667,0.0472,-0.7438,-0.0062,
2025-03-08 19:40:48.431,9.6800,0.0000,0.9400,-8.1875,-0.8750,0.8750,-0.6668,0.0478,-0.7437,-0.0067,
2025-03-08 19:40:48.442,9.6200,-0.0600,1.0300,-9.6250,0.1250,0.6875,-0.6668,0.0485,-0.7437,-0.0071,
2025-03-08 19:40:48.452,9.5300,-0.1300,1.1200,-9.3750,0.3125,0.4375,-0.6668,0.0490,-0.7436,-0.0077,
2025-03-08 19:40:48.463,9.5200,-0.1900,1.1900,-8.4375,0.1250,0.1875,-0.6667,0.0496,-0.7436,-0.0082,
2025-03-08 19:40:48.472,9.5400,-0.1700,1.1400,-8.0625,-0.8750,0.5000,-0.6668,0.0500,-0.7435,-0.0085,
2025-03-08 19:40:48.482,9.5900,-0.1900,1.1400,-8.0625,-1.3750,0.5000,-0.6669,0.0505,-0.7434,-0.0089,
2025-03-08 19:40:48.493,9.7400,-0.2800,0.9700,-8.0000,-1.8750,0.2500,-0.6670,0.0510,-0.7432,-0.0094,
2025-03-08 19:40:48.502,9.8500,-0.3300,0.9000,-8.3750,-2.3125,-0.1250,-0.6672,0.0514,-0.7431,-0.0099,
2025-03-08 19:40:48.511,9.9100,-0.3900,0.9000,-10.0000,-2.8125,-0.3125,-0.6674,0.0520,-0.7429,-0.0105,
2025-03-08 19:40:48.521,9.9500,-0.5000,0.9400,-12.1250,-3.0625,-0.1875,-0.6675,0.0529,-0.7426,-0.0113,
2025-03-08 19:40:48.531,9.9200,-0.5900,1.0300,-13.3750,-3.1875,-0.1250,-0.6677,0.0537,-0.7424,-0.0121,
2025-03-08 19:40:48.541,9.8700,-0.5600,1.0900,-13.5625,-3.4375,-0.1875,-0.6679,0.0546,-0.7421,-0.0128,
2025-03-08 19:40:48.551,9.8100,-0.4800,1.1100,-12.3125,-3.6875,-0.2500,-0.6681,0.0554,-0.7419,-0.0135,
2025-03-08 19:40:48.561,9.7300,-0.4300,1.1100,-11.1250,-3.6875,-0.8125,-0.6683,0.0560,-0.7416,-0.0142,
2025-03-08 19:40:48.571,9.6400,-0.4300,1.1300,-10.5000,-4.0625,-1.4375,-0.6686,0.0565,-0.7414,-0.0148,
2025-03-08 19:40:48.582,9.6600,-0.4500,1.0500,-10.5000,-4.3750,-1.7500,-0.6688,0.0570,-0.7411,-0.0156,
2025-03-08 19:40:48.591,9.6800,-0.5500,0.9800,-10.6250,-4.0000,-1.8750,-0.6690,0.0576,-0.7408,-0.0163,
2025-03-08 19:40:48.602,9.7400,-0.6600,0.9300,-10.9375,-3.3750,-1.6250,-0.6692,0.0581,-0.7406,-0.0170,
2025-03-08 19:40:48.611,9.7800,-0.7300,0.9200,-10.8125,-3.0000,-1.0625,-0.6694,0.0588,-0.7403,-0.0176,
2025-03-08 19:40:48.623,9.7800,-0.7400,0.9600,-10.4375,-2.5625,-0.2500,-0.6695,0.0596,-0.7402,-0.0184,
2025-03-08 19:40:48.632,9.7600,-0.7200,1.0200,-9.8125,-2.1250,0.0625,-0.6697,0.0602,-0.7400,-0.0189,
2025-03-08 19:40:48.640,9.7000,-0.6100,0.9900,-9.1875,-2.0000,0.2500,-0.6698,0.0608,-0.7398,-0.0195,
2025-03-08 19:40:48.651,9.6400,-0.5900,0.9600,-8.3750,-1.8125,0.5000,-0.6699,0.0613,-0.7397,-0.0199,
2025-03-08 19:40:48.662,9.5600,-0.6100,0.9500,-7.3750,-1.6250,0.5000,-0.6699,0.0618,-0.7396,-0.0203,
2025-03-08 19:40:48.682,9.5200,-0.6800,0.9100,-6.4375,-1.8125,0.5000,-0.6700,0.0623,-0.7394,-0.0208,
2025-03-08 19:40:48.692,9.5400,-0.6700,0.8800,-6.5000,-1.8750,0.6875,-0.6702,0.0627,-0.7393,-0.0211,
2025-03-08 19:40:48.692,9.6300,-0.6600,0.9000,-6.8125,-1.5625,0.6875,-0.6702,0.0632,-0.7391,-0.0214,
2025-03-08 19:40:48.702,9.6900,-0.6400,0.9200,-6.8125,-1.2500,0.6875,-0.6703,0.0637,-0.7391,-0.0217,
2025-03-08 19:40:48.711,9.8000,-0.5800,0.9200,-6.5625,-1.0000,0.5625,-0.6703,0.0641,-0.7389,-0.0221,
2025-03-08 19:40:48.721,9.8200,-0.5600,0.9300,-6.2500,-1.0000,0.5625,-0.6704,0.0645,-0.7389,-0.0225,
2025-03-08 19:40:48.722,9.8300,-0.6100,0.9200,-5.7500,-0.9375,0.6250,-0.6704,0.0648,-0.7388,-0.0228,
2025-03-08 19:40:48.742,9.8000,-0.7000,0.8500,-4.5000,-1.1250,0.8125,-0.6705,0.0652,-0.7387,-0.0229,
2025-03-08 19:40:48.752,9.7800,-0.7200,0.8300,-3.6250,-1.1875,0.9375,-0.6706,0.0654,-0.7386,-0.0231,
2025-03-08 19:40:48.782,9.7900,-0.6900,0.8300,-3.5000,-1.1875,0.8125,-0.6706,0.0657,-0.7385,-0.0232,
2025-03-08 19:40:48.782,9.7900,-0.6600,0.8600,-3.5625,-1.4375,0.4375,-0.6706,0.0657,-0.7385,-0.0232,
2025-03-08 19:40:48.782,9.8500,-0.5900,0.8700,-3.6250,-1.7500,-0.0625,-0.6707,0.0660,-0.7384,-0.0234,
2025-03-08 19:40:48.793,9.8600,-0.5200,0.9000,-3.3125,-1.9375,-0.6875,-0.6709,0.0663,-0.7381,-0.0238,
2025-03-08 19:40:48.794,9.8400,-0.5000,0.9200,-3.1250,-1.8750,-1.0625,-0.6711,0.0665,-0.7380,-0.0240,
2025-03-08 19:40:48.811,9.8300,-0.5100,0.9800,-2.8125,-1.5000,-1.3750,-0.6711,0.0666,-0.7379,-0.0244,
2025-03-08 19:40:48.814,9.8100,-0.5000,1.0300,-2.5000,-1.0000,-1.6875,-0.6711,0.0671,-0.7379,-0.0251,
2025-03-08 19:40:48.832,9.7600,-0.5000,1.0300,-2.1875,-0.5625,-2.0000,-0.6711,0.0671,-0.7379,-0.0254,
2025-03-08 19:40:48.843,9.7100,-0.5300,0.9900,-1.7500,-0.1250,-2.1250,-0.6711,0.0670,-0.7379,-0.0256,
2025-03-08 19:40:48.851,9.6300,-0.5200,0.9700,-1.4375,0.2500,-2.3125,-0.6711,0.0670,-0.7379,-0.0259,
2025-03-08 19:40:48.862,9.5900,-0.5100,0.8900,-1.2500,0.1250,-2.2500,-0.6711,0.0669,-0.7379,-0.0261,
2025-03-08 19:40:48.871,9.5800,-0.4600,0.8900,-1.1250,-0.1250,-2.1250,-0.6711,0.0669,-0.7379,-0.0261,
2025-03-08 19:40:48.881,9.5600,-0.4100,0.8300,-1.0000,-0.2500,-2.1875,-0.6711,0.0668,-0.7378,-0.0263,
2025-03-08 19:40:48.892,9.5500,-0.3800,0.7600,-0.3750,-0.2500,-2.3125,-0.6711,0.0667,-0.7378,-0.0266,
2025-03-08 19:40:48.901,9.5300,-0.3600,0.7700,-0.2500,-0.1875,-2.6250,-0.6711,0.0666,-0.7379,-0.0267,
2025-03-08 19:40:48.912,9.5400,-0.3300,0.7600,-0.6875,-0.0625,-2.7500,-0.6712,0.0663,-0.7378,-0.0269,
2025-03-08 19:40:48.922,9.5700,-0.2700,0.7900,-1.1875,-0.0625,-2.7500,-0.6712,0.0662,-0.7378,-0.0272,
2025-03-08 19:40:48.934,9.6200,-0.2600,0.7900,-1.8125,0.2500,-3.0625,-0.6713,0.0654,-0.7378,-0.0269,
2025-03-08 19:40:48.941,9.6800,-0.2100,0.7600,-2.2500,0.6875,-3.1250,-0.6714,0.0652,-0.7377,-0.0273,
2025-03-08 19:40:48.951,9.7000,-0.1800,0.8000,-3.1250,1.2500,-3.0625,-0.6714,0.0651,-0.7377,-0.0277,
2025-03-08 19:40:48.962,9.7000,-0.2300,0.8200,-4.3125,1.3125,-3.1250,-0.6714,0.0649,-0.7377,-0.0283,
2025-03-08 19:40:48.982,9.7100,-0.2400,0.8000,-5.1250,1.0000,-3.1875,-0.6714,0.0649,-0.7377,-0.0288,
2025-03-08 19:40:48.982,9.6900,-0.2200,0.7600,-5.0625,1.0000,-3.1875,-0.6713,0.0649,-0.7377,-0.0294,
2025-03-08 19:40:48.992,9.6700,-0.2000,0.7400,-5.5000,1.0000,-3.0000,-0.6713,0.0649,-0.7377,-0.0300,
2025-03-08 19:40:49.002,9.6800,-0.2000,0.7500,-7.0625,1.0625,-3.0625,-0.6713,0.0649,-0.7377,-0.0306,
2025-03-08 19:40:49.012,9.6900,-0.2400,0.8000,-8.5625,1.1875,-2.8750,-0.6713,0.0651,-0.7376,-0.0314,
2025-03-08 19:40:49.021,9.7000,-0.2900,0.7400,-9.3750,1.2500,-2.8750,-0.6713,0.0654,-0.7376,-0.0322,
2025-03-08 19:40:49.032,9.7900,-0.4500,0.8000,-9.0625,1.0000,-2.4375,-0.6713,0.0657,-0.7376,-0.0330,
2025-03-08 19:40:49.042,9.7800,-0.5100,0.8200,-8.8125,0.6875,-2.1250,-0.6712,0.0660,-0.7376,-0.0337,
2025-03-08 19:40:49.051,9.8200,-0.5700,0.8700,-8.5625,0.8750,-2.1250,-0.6712,0.0665,-0.7375,-0.0344,
2025-03-08 19:40:49.062,9.7700,-0.5600,0.9300,-8.2500,1.2500,-1.9375,-0.6711,0.0669,-0.7375,-0.0350,
2025-03-08 19:40:49.072,9.7400,-0.5200,0.9700,-8.2500,1.0000,-1.7500,-0.6710,0.0673,-0.7375,-0.0356,
2025-03-08 19:40:49.072,9.7500,-0.4800,0.9900,-8.1875,0.5625,-1.9375,-0.6709,0.0676,-0.7375,-0.0361,
2025-03-08 19:40:49.092,9.7200,-0.4400,0.9600,-7.3750,0.2500,-2.5625,-0.6709,0.0680,-0.7375,-0.0366,
2025-03-08 19:40:49.102,9.7000,-0.4500,0.9800,-6.1875,0.2500,-3.1250,-0.6709,0.0683,-0.7374,-0.0372,
2025-03-08 19:40:49.111,9.7000,-0.4500,1.0200,-5.3125,0.0625,-3.5000,-0.6709,0.0685,-0.7374,-0.0378,
2025-03-08 19:40:49.124,9.6800,-0.4700,1.0200,-4.8125,0.1875,-3.6250,-0.6709,0.0687,-0.7374,-0.0383,
2025-03-08 19:40:49.131,9.6800,-0.4800,1.0100,-4.7500,0.5000,-4.0000,-0.6710,0.0682,-0.7374,-0.0383,
2025-03-08 19:40:49.171,9.6400,-0.4100,0.9500,-4.1250,0.5625,-4.3125,-0.6709,0.0683,-0.7374,-0.0388,
2025-03-08 19:40:49.171,9.6300,-0.4200,0.9300,-3.0000,0.3750,-4.6250,-0.6709,0.0683,-0.7373,-0.0393,
2025-03-08 19:40:49.171,9.5900,-0.3600,0.9500,-1.4375,-0.0625,-5.1250,-0.6709,0.0682,-0.7373,-0.0397,
2025-03-08 19:40:49.171,9.5400,-0.2800,0.9500,-0.1875,-0.8125,-5.5625,-0.6709,0.0681,-0.7373,-0.0402,
2025-03-08 19:40:49.182,9.5400,-0.2800,0.9500,0.6250,-1.1250,-5.8125,-0.6711,0.0670,-0.7373,-0.0397,
2025-03-08 19:40:49.192,9.5400,-0.1900,0.8900,0.9375,-1.5000,-6.0000,-0.6712,0.0666,-0.7372,-0.0401,
2025-03-08 19:40:49.203,9.5400,-0.1300,0.8400,1.3750,-1.5000,-5.7500,-0.6713,0.0662,-0.7371,-0.0405,
2025-03-08 19:40:49.212,9.5500,-0.1300,0.8200,1.6250,-1.2500,-5.7500,-0.6714,0.0657,-0.7370,-0.0408,
2025-03-08 19:40:49.223,9.5500,-0.1300,0.8200,2.1250,-1.3750,-5.5625,-0.6716,0.0652,-0.7369,-0.0411,
2025-03-08 19:40:49.231,9.5400,-0.1300,0.8000,2.6250,-1.2500,-5.3750,-0.6717,0.0647,-0.7368,-0.0413,
2025-03-08 19:40:49.242,9.5300,-0.1200,0.8000,3.0625,-1.1250,-5.0000,-0.6718,0.0642,-0.7368,-0.0416,
2025-03-08 19:40:49.251,9.5500,-0.1100,0.8600,3.6875,-1.4375,-4.6875,-0.6719,0.0637,-0.7367,-0.0418,
2025-03-08 19:40:49.262,9.5500,-0.0800,0.8600,4.1875,-1.5000,-4.5625,-0.6721,0.0631,-0.7366,-0.0419,
2025-03-08 19:40:49.302,9.5500,-0.0800,0.8600,4.0625,-1.8750,-4.4375,-0.6722,0.0625,-0.7365,-0.0420,
2025-03-08 19:40:49.302,9.5800,-0.0600,0.9000,4.4375,-2.0625,-4.3750,-0.6723,0.0624,-0.7364,-0.0426,
2025-03-08 19:40:49.311,9.6300,0.0700,0.8600,4.5000,-1.8125,-4.2500,-0.6725,0.0618,-0.7363,-0.0427,
2025-03-08 19:40:49.311,9.6900,0.1000,0.8500,3.7500,-1.7500,-4.0000,-0.6727,0.0612,-0.7362,-0.0428,
2025-03-08 19:40:49.311,9.7500,0.0700,0.7800,2.0625,-1.3750,-3.5000,-0.6728,0.0606,-0.7361,-0.0430,
2025-03-08 19:40:49.322,9.7500,0.0700,0.7800,0.0000,-1.1250,-3.1875,-0.6730,0.0601,-0.7360,-0.0432,
2025-03-08 19:40:49.331,9.7600,0.0000,0.7600,-1.1250,-0.6250,-2.8125,-0.6731,0.0598,-0.7359,-0.0435,
2025-03-08 19:40:49.343,9.7400,-0.1800,0.7400,-1.6875,-0.6875,-2.4375,-0.6732,0.0596,-0.7358,-0.0438,
2025-03-08 19:40:49.352,9.7400,-0.2800,0.8400,-3.3750,-0.8750,-1.8750,-0.6732,0.0595,-0.7357,-0.0441,
2025-03-08 19:40:49.361,9.7700,-0.3400,0.9300,-5.1250,-1.1250,-1.6875,-0.6733,0.0596,-0.7356,-0.0444,
2025-03-08 19:40:49.361,9.7700,-0.3400,0.9300,-5.1250,-1.1250,-1.6875,-0.6733,0.0599,-0.7355,-0.0448,
2025-03-08 19:40:49.381,9.7600,-0.3900,0.9200,-5.4375,-1.3750,-1.6250,-0.6735,0.0592,-0.7355,-0.0443,
2025-03-08 19:40:49.392,9.8800,-0.5500,1.0000,-2.5625,-1.8750,-1.2500,-0.6736,0.0594,-0.7354,-0.0446,
2025-03-08 19:40:49.401,9.9100,-0.5500,1.0100,-1.6250,-2.0000,-0.5625,-0.6737,0.0594,-0.7352,-0.0447,
2025-03-08 19:40:49.412,9.9300,-0.5600,1.0100,-1.0625,-1.2500,-0.1250,-0.6738,0.0596,-0.7351,-0.0449,
2025-03-08 19:40:49.422,9.9300,-0.5600,1.0100,-0.3125,-1.0625,0.3750,-0.6739,0.0596,-0.7350,-0.0449,
2025-03-08 19:40:49.435,9.8900,-0.4900,0.8600,-0.1875,-1.0625,1.0000,-0.6740,0.0596,-0.7350,-0.0448,
2025-03-08 19:40:49.447,9.8600,-0.4700,0.8200,-0.8125,-1.6250,1.3125,-0.6740,0.0598,-0.7349,-0.0447,
2025-03-08 19:40:49.452,9.7800,-0.4800,0.8500,-2.3125,-1.8750,1.5000,-0.6741,0.0599,-0.7349,-0.0446,
2025-03-08 19:40:49.462,9.6900,-0.5800,0.9000,-3.8125,-1.8125,1.6875,-0.6742,0.0602,-0.7347,-0.0446,
2025-03-08 19:40:49.471,9.6900,-0.5800,0.9000,-3.8125,-1.8125,1.6875,-0.6742,0.0606,-0.7347,-0.0446,
2025-03-08 19:40:49.482,9.6700,-0.6400,0.9300,-5.5000,-2.1250,1.5625,-0.6743,0.0607,-0.7346,-0.0442,
2025-03-08 19:40:49.492,9.6500,-0.6900,0.9300,-6.8125,-2.6875,1.2500,-0.6744,0.0613,-0.7345,-0.0443,
2025-03-08 19:40:49.501,9.6200,-0.7800,1.0000,-5.9375,-2.8750,0.8125,-0.6744,0.0621,-0.7344,-0.0444,
2025-03-08 19:40:49.521,9.6200,-0.7800,1.0000,-3.9375,-3.2500,0.5625,-0.6744,0.0627,-0.7343,-0.0444,
2025-03-08 19:40:49.521,9.6300,-0.7600,0.9500,-3.9375,-3.2500,0.5625,-0.6745,0.0633,-0.7342,-0.0444,
2025-03-08 19:40:49.532,9.6500,-0.8000,0.9600,-1.2500,-4.0625,0.3750,-0.6746,0.0635,-0.7341,-0.0440,
2025-03-08 19:40:49.547,9.5100,-0.8200,0.8700,5.4375,-5.1875,0.6875,-0.6748,0.0637,-0.7339,-0.0436,
2025-03-08 19:40:49.552,9.3200,-0.7400,0.9600,8.7500,-7.6875,1.3125,-0.6750,0.0637,-0.7338,-0.0430,
2025-03-08 19:40:49.562,9.3500,-0.6100,0.7900,9.0000,-9.0000,1.8125,-0.6754,0.0634,-0.7335,-0.0422,
2025-03-08 19:40:49.571,9.6400,-0.3100,0.5700,9.0000,-9.0000,1.8125,-0.6760,0.0631,-0.7330,-0.0414,
2025-03-08 19:40:49.582,9.6300,-0.3500,0.6900,6.8750,-8.3750,1.6250,-0.6766,0.0623,-0.7326,-0.0404,
2025-03-08 19:40:49.592,9.5800,-0.4500,0.7600,4.5625,-5.3750,2.0000,-0.6770,0.0621,-0.7323,-0.0400,
2025-03-08 19:40:49.601,9.5600,-0.5600,0.7600,3.2500,-4.2500,2.1875,-0.6773,0.0619,-0.7320,-0.0396,
2025-03-08 19:40:49.612,9.7500,-0.5700,0.7500,1.5625,-3.2500,2.1875,-0.6776,0.0618,-0.7318,-0.0392,
2025-03-08 19:40:49.622,9.8400,-0.5800,0.8000,1.5625,-3.2500,2.1875,-0.6778,0.0619,-0.7316,-0.0389,
2025-03-08 19:40:49.631,9.9200,-0.5500,0.8600,0.8125,-2.6250,1.8750,-0.6779,0.0618,-0.7315,-0.0385,
2025-03-08 19:40:49.642,9.8900,-0.5300,0.9400,4.3125,-2.8125,2.1250,-0.6781,0.0618,-0.7314,-0.0383,
2025-03-08 19:40:49.653,9.8900,-0.4700,0.9100,5.8125,-3.0000,1.5625,-0.6782,0.0617,-0.7313,-0.0378,
2025-03-08 19:40:49.662,9.8800,-0.4800,0.9100,5.6250,-2.5000,1.4375,-0.6784,0.0614,-0.7311,-0.0374,
2025-03-08 19:40:49.672,9.8500,-0.4700,0.9200,5.6250,-2.5000,1.4375,-0.6785,0.0612,-0.7311,-0.0369,
2025-03-08 19:40:49.672,9.7500,-0.5100,0.9100,4.6875,-1.8750,1.1875,-0.6786,0.0610,-0.7310,-0.0366,
2025-03-08 19:40:49.692,9.7200,-0.5500,0.8900,2.8750,-1.2500,0.6875,-0.6787,0.0609,-0.7310,-0.0363,
2025-03-08 19:40:49.702,9.7000,-0.6200,0.8600,2.3125,-1.6250,0.3125,-0.6786,0.0608,-0.7311,-0.0359,
2025-03-08 19:40:49.712,9.7500,-0.6500,0.8500,1.8125,-1.8125,-0.0625,-0.6787,0.0607,-0.7310,-0.0358,
2025-03-08 19:40:49.722,9.8200,-0.6400,0.9000,1.8125,-1.8125,-0.0625,-0.6787,0.0607,-0.7310,-0.0356,
2025-03-08 19:40:49.735,9.8300,-0.6800,1.0100,2.0625,-2.0625,-0.4375,-0.6788,0.0607,-0.7310,-0.0353,
2025-03-08 19:40:49.742,9.8700,-0.6900,1.0300,6.1250,-0.6250,-0.2500,-0.6787,0.0605,-0.7311,-0.0350,
2025-03-08 19:40:49.751,9.7900,-0.6700,1.0000,8.4375,0.0625,-0.2500,-0.6786,0.0603,-0.7312,-0.0345,
2025-03-08 19:40:49.762,9.7500,-0.6200,0.9300,9.4375,0.3750,0.0000,-0.6785,0.0599,-0.7314,-0.0339,
2025-03-08 19:40:49.762,9.7000,-0.5500,0.8800,9.4375,0.3750,0.0000,-0.6784,0.0594,-0.7315,-0.0333,
2025-03-08 19:40:49.776,9.7000,-0.4900,0.8000,9.2500,0.5000,0.1875,-0.6784,0.0588,-0.7316,-0.0327,
2025-03-08 19:40:49.791,9.6300,-0.3200,0.8000,7.3750,1.5000,0.1250,-0.6784,0.0584,-0.7317,-0.0323,
2025-03-08 19:40:49.803,9.6100,-0.3100,0.7900,6.1875,1.5625,-0.3750,-0.6783,0.0579,-0.7318,-0.0319,
2025-03-08 19:40:49.812,9.5700,-0.2900,0.7900,5.1875,1.4375,-0.7500,-0.6782,0.0575,-0.7320,-0.0315,
2025-03-08 19:40:49.822,9.6000,-0.2800,0.8300,5.1875,1.4375,-0.7500,-0.6781,0.0571,-0.7321,-0.0313,
2025-03-08 19:40:49.832,9.6200,-0.3200,0.8900,3.7500,0.8125,-1.2500,-0.6781,0.0568,-0.7321,-0.0311,
2025-03-08 19:40:49.842,9.6500,-0.3500,0.8900,2.3750,0.4375,-2.0625,-0.6780,0.0565,-0.7322,-0.0311,
2025-03-08 19:40:49.856,9.7200,-0.3800,0.9000,2.3750,1.0625,-2.4375,-0.6781,0.0563,-0.7322,-0.0311,
2025-03-08 19:40:49.863,9.7900,-0.4400,0.9400,2.5625,1.7500,-2.4375,-0.6780,0.0560,-0.7323,-0.0311,
2025-03-08 19:40:49.863,9.8100,-0.4800,0.9500,2.5625,1.7500,-2.4375,-0.6778,0.0557,-0.7325,-0.0311,
2025-03-08 19:40:49.891,9.8100,-0.5000,0.9600,2.8125,2.3125,-2.6250,-0.6776,0.0554,-0.7326,-0.0311,
2025-03-08 19:40:49.892,9.7900,-0.5100,0.9100,3.5625,2.3125,-2.6250,-0.6775,0.0550,-0.7328,-0.0310,
2025-03-08 19:40:49.902,9.7400,-0.4600,0.8900,4.8750,1.5625,-2.1250,-0.6774,0.0546,-0.7330,-0.0309,
2025-03-08 19:40:49.916,9.6900,-0.4500,0.8700,4.6250,1.1250,-1.9375,-0.6772,0.0542,-0.7331,-0.0307,
2025-03-08 19:40:49.921,9.6500,-0.4100,0.8800,4.6250,1.1250,-1.9375,-0.6772,0.0538,-0.7332,-0.0306,
2025-03-08 19:40:49.942,9.6200,-0.4400,0.8000,4.5000,0.8125,-1.8750,-0.6771,0.0534,-0.7333,-0.0304,
2025-03-08 19:40:49.942,9.6000,-0.4400,0.8000,3.7500,0.3125,-1.5625,-0.6771,0.0531,-0.7333,-0.0303,
2025-03-08 19:40:49.961,9.6200,-0.4600,0.8100,1.5625,-0.3125,-0.9375,-0.6771,0.0529,-0.7333,-0.0302,
2025-03-08 19:40:49.971,9.6300,-0.4500,0.8600,1.1250,-0.3125,-0.6250,-0.6771,0.0527,-0.7334,-0.0302,
2025-03-08 19:40:49.982,9.6700,-0.4100,0.9100,1.1250,-0.3125,-0.6250,-0.6771,0.0526,-0.7334,-0.0301,
2025-03-08 19:40:49.982,9.6900,-0.4100,0.8900,0.6875,0.1875,-0.1875,-0.6770,0.0526,-0.7334,-0.0300,
2025-03-08 19:40:49.992,9.7000,-0.4100,0.8900,0.8125,0.2500,0.1875,-0.6770,0.0526,-0.7335,-0.0300,
2025-03-08 19:40:50.002,9.6800,-0.4000,0.8500,1.2500,0.5625,0.1250,-0.6770,0.0525,-0.7335,-0.0300,
2025-03-08 19:40:50.023,9.6700,-0.3800,0.8400,1.3125,0.8125,0.1875,-0.6770,0.0524,-0.7335,-0.0298,
2025-03-08 19:40:50.041,9.6600,-0.3700,0.8400,1.3125,0.8125,0.1875,-0.6769,0.0524,-0.7336,-0.0298,
2025-03-08 19:40:50.041,9.6800,-0.3800,0.8400,1.2500,0.8750,0.3125,-0.6769,0.0523,-0.7336,-0.0297,
2025-03-08 19:40:50.052,9.7100,-0.5000,0.8600,0.2500,0.5000,0.1250,-0.6769,0.0522,-0.7336,-0.0297,
2025-03-08 19:40:50.062,9.7000,-0.5000,0.9000,-0.7500,0.2500,0.1875,-0.6768,0.0523,-0.7337,-0.0297,
2025-03-08 19:40:50.072,9.7400,-0.5200,1.0100,-1.2500,0.1875,0.1250,-0.6768,0.0524,-0.7337,-0.0297,
2025-03-08 19:40:50.082,9.7200,-0.5400,1.0700,-1.3750,0.1875,-0.1250,-0.6767,0.0525,-0.7338,-0.0297,
2025-03-08 19:40:50.094,9.7300,-0.5300,1.0800,-1.2500,0.5625,-0.1250,-0.6766,0.0527,-0.7339,-0.0297,
2025-03-08 19:40:50.108,9.7200,-0.5700,1.0800,-0.1250,0.5000,-0.1250,-0.6764,0.0528,-0.7340,-0.0297,
2025-03-08 19:40:50.111,9.6900,-0.5700,1.0300,1.1875,0.3750,-0.0625,-0.6763,0.0528,-0.7341,-0.0295,
2025-03-08 19:40:50.122,9.6300,-0.5500,1.0000,2.1250,0.6875,0.1250,-0.6762,0.0527,-0.7343,-0.0294,
2025-03-08 19:40:50.132,9.5800,-0.5700,0.9400,2.6875,1.0625,0.2500,-0.6760,0.0526,-0.7344,-0.0291,
2025-03-08 19:40:50.142,9.5700,-0.5300,0.8900,2.3125,1.6875,0.0625,-0.6758,0.0526,-0.7346,-0.0289,
2025-03-08 19:40:50.167,9.5900,-0.5600,0.8300,1.1875,2.2500,0.1875,-0.6757,0.0526,-0.7348,-0.0288,
2025-03-08 19:40:50.200,9.6500,-0.5900,0.8200,0.1875,2.4375,0.4375,-0.6755,0.0526,-0.7349,-0.0288,
2025-03-08 19:40:50.200,9.8300,-0.6300,0.8700,1.5625,3.5625,1.9375,-0.6750,0.0528,-0.7353,-0.0284,
2025-03-08 19:40:50.209,9.8700,-0.6100,0.9500,3.0000,4.8750,3.4375,-0.6747,0.0529,-0.7356,-0.0280,
2025-03-08 19:40:50.209,9.8800,-0.6300,1.0100,3.7500,6.4375,4.5000,-0.6743,0.0529,-0.7361,-0.0275,
2025-03-08 19:40:50.232,9.8000,-0.7700,1.3600,4.4375,8.7500,4.6875,-0.6737,0.0529,-0.7366,-0.0269,
2025-03-08 19:40:50.232,9.7400,-0.9800,1.5000,8.6875,14.2500,4.2500,-0.6721,0.0524,-0.7382,-0.0256,
2025-03-08 19:40:50.261,9.8500,-1.1800,1.5200,10.3125,17.0000,4.6250,-0.6710,0.0519,-0.7392,-0.0248,
2025-03-08 19:40:50.261,10.2700,-1.9200,1.5200,12.2500,23.5000,4.8750,-0.6683,0.0509,-0.7418,-0.0231,
2025-03-08 19:40:50.282,10.1900,-2.0700,1.7700,14.9375,25.0000,3.6250,-0.6652,0.0495,-0.7447,-0.0212,
2025-03-08 19:40:50.293,10.0500,-1.8600,2.0800,22.3750,26.7500,5.6875,-0.6635,0.0484,-0.7463,-0.0197,
2025-03-08 19:40:50.313,10.2800,-1.9400,2.3200,39.2500,40.6250,14.6250,-0.6589,0.0450,-0.7507,-0.0145,
2025-03-08 19:40:50.322,10.7000,-1.9100,2.5000,31.6875,53.6875,28.0625,-0.6522,0.0433,-0.7567,-0.0079,
2025-03-08 19:40:50.343,10.9200,-1.8200,2.5500,25.5000,55.7500,35.3750,-0.6486,0.0436,-0.7599,-0.0044,
2025-03-08 19:40:50.364,10.8700,-0.9800,2.5600,16.9375,64.0625,43.7500,-0.6403,0.0457,-0.7668,0.0026,
2025-03-08 19:40:50.364,10.8700,-1.0300,2.4300,15.3125,68.1250,45.9375,-0.6357,0.0472,-0.7705,0.0062,
2025-03-08 19:40:50.386,10.9200,-1.3000,2.5000,14.5000,71.4375,49.8125,-0.6308,0.0492,-0.7743,0.0096,
2025-03-08 19:40:50.391,11.2000,-2.0400,3.2100,5.0625,76.3125,57.6250,-0.6255,0.0520,-0.7784,0.0134,
2025-03-08 19:40:50.404,11.3300,-2.1000,3.4900,-13.3125,85.1875,69.2500,-0.6196,0.0566,-0.7827,0.0168,
2025-03-08 19:40:50.419,11.3900,-2.1000,3.6900,-31.1875,95.5625,81.6875,-0.6129,0.0631,-0.7874,0.0201,
2025-03-08 19:40:50.425,11.4600,-2.0300,3.7800,-41.8125,102.9375,91.8125,-0.6056,0.0708,-0.7923,0.0236,
2025-03-08 19:40:50.432,11.4100,-1.8800,4.0200,-47.1250,108.5000,98.4375,-0.5978,0.0793,-0.7973,0.0270,
2025-03-08 19:40:50.445,11.1800,-1.9700,4.0700,-49.5000,115.1250,101.7500,-0.5894,0.0880,-0.8025,0.0306,
2025-03-08 19:40:50.455,11.0100,-2.4300,4.1200,-51.5000,119.8125,106.3125,-0.5806,0.0971,-0.8077,0.0343,
2025-03-08 19:40:50.464,10.5100,-4.5200,4.5500,-55.0625,121.1875,114.3750,-0.5714,0.1068,-0.8128,0.0384,
2025-03-08 19:40:50.465,10.2800,-4.9200,4.8800,-61.6875,123.2500,127.8750,-0.5620,0.1176,-0.8176,0.0431,
2025-03-08 19:40:50.486,10.0300,-4.5900,4.9900,-69.8125,127.0000,139.3125,-0.5520,0.1295,-0.8223,0.0481,
2025-03-08 19:40:50.518,9.9600,-4.4000,5.1300,-71.5625,130.8125,151.0000,-0.5414,0.1420,-0.8269,0.0538,
2025-03-08 19:40:50.518,9.9700,-4.3400,4.9400,-60.3750,133.6250,158.5000,-0.5304,0.1541,-0.8314,0.0605,
2025-03-08 19:40:50.518,9.8600,-4.1400,4.9300,-34.8125,134.8125,160.5000,-0.5189,0.1644,-0.8361,0.0684,
2025-03-08 19:40:50.521,9.7100,-4.3200,4.9300,-18.1875,135.3125,161.8750,-0.5071,0.1735,-0.8407,0.0771,
2025-03-08 19:40:50.531,9.5900,-4.7800,5.0100,-13.8125,136.8750,164.6250,-0.4950,0.1824,-0.8451,0.0862,
2025-03-08 19:40:50.547,8.5400,-4.3500,5.0400,-15.3125,139.1875,167.3125,-0.4825,0.1915,-0.8493,0.0954,
2025-03-08 19:40:50.557,8.0800,-4.0600,4.9900,-23.5625,140.3125,167.6875,-0.4698,0.2011,-0.8532,0.1042,
2025-03-08 19:40:50.562,7.8000,-4.1300,5.0500,-29.5000,138.8125,166.0000,-0.4572,0.2110,-0.8566,0.1126,
2025-03-08 19:40:50.571,7.0800,-4.6500,4.9800,-32.6250,135.4375,165.2500,-0.4447,0.2210,-0.8595,0.1208,
2025-03-08 19:40:50.582,6.6800,-4.8900,4.9300,-27.2500,131.1875,164.0000,-0.4323,0.2305,-0.8621,0.1293,
2025-03-08 19:40:50.591,6.3000,-5.2200,4.9900,-19.7500,127.5000,163.6875,-0.4200,0.2393,-0.8645,0.1379,
2025-03-08 19:40:50.602,6.0100,-5.5400,5.0700,-15.8750,122.8750,163.6250,-0.4078,0.2476,-0.8665,0.1468,
2025-03-08 19:40:50.611,5.9200,-6.3100,5.1800,-14.7500,118.1875,164.5000,-0.3959,0.2558,-0.8681,0.1559,
2025-03-08 19:40:50.622,5.8600,-6.5300,5.1800,-12.0625,114.1250,168.2500,-0.3840,0.2637,-0.8693,0.1653,
2025-03-08 19:40:50.631,5.9200,-6.7600,4.9900,-10.0625,111.5000,175.3125,-0.3719,0.2717,-0.8701,0.1754,
2025-03-08 19:40:50.642,5.9900,-7.0100,5.0500,-8.4375,108.6250,181.9375,-0.3599,0.2796,-0.8705,0.1859,
2025-03-08 19:40:50.652,5.6400,-6.7200,5.2600,-4.1875,106.2500,184.8750,-0.3477,0.2872,-0.8706,0.1968,
2025-03-08 19:40:50.662,5.2300,-6.3100,5.5000,6.6250,103.9375,183.4375,-0.3354,0.2938,-0.8706,0.2080,
2025-03-08 19:40:50.672,4.9500,-6.0900,5.5300,22.9375,100.5625,178.6875,-0.3231,0.2988,-0.8708,0.2192,
2025-03-08 19:40:50.682,4.3200,-5.9900,5.2100,47.0625,95.5000,171.0000,-0.3109,0.3018,-0.8713,0.2307,
2025-03-08 19:40:50.701,4.0600,-5.9000,5.1100,47.0625,95.5000,171.0000,-0.2985,0.3046,-0.8715,0.2420,
2025-03-08 19:40:50.701,3.7400,-5.5900,4.9800,51.3125,94.1875,173.5625,-0.2860,0.3071,-0.8715,0.2537,
2025-03-08 19:40:50.712,3.6500,-4.6800,4.9300,50.7500,88.7500,178.8125,-0.2737,0.3095,-0.8710,0.2657,
2025-03-08 19:40:50.712,3.4200,-4.3300,5.0300,44.3750,84.2500,172.7500,-0.2620,0.3121,-0.8701,0.2772,
2025-03-08 19:40:50.731,3.3000,-4.3300,5.2500,34.8750,79.2500,159.1250,-0.2511,0.3149,-0.8690,0.2875,
2025-03-08 19:40:50.742,3.1100,-4.7600,5.3700,26.1250,75.0000,141.3125,-0.2412,0.3177,-0.8677,0.2964,
2025-03-08 19:40:50.752,2.3700,-4.8800,5.8900,25.1875,73.6250,132.2500,-0.2316,0.3204,-0.8666,0.3046,
2025-03-08 19:40:50.761,2.1800,-4.4200,5.6400,33.5625,71.6250,135.1875,-0.2218,0.3224,-0.8653,0.3132,
2025-03-08 19:40:50.772,1.9900,-4.5200,5.3700,38.5000,70.5000,137.2500,-0.2119,0.3240,-0.8640,0.3220,
2025-03-08 19:40:50.782,1.9700,-4.0500,5.3100,38.5625,67.5625,137.9375,-0.2021,0.3254,-0.8624,0.3309,
2025-03-08 19:40:50.802,1.4600,-3.4200,5.4900,38.1250,62.6250,123.5625,-0.1930,0.3265,-0.8610,0.3388,
2025-03-08 19:40:50.806,1.1400,-3.3100,5.7100,34.1250,58.5000,109.3125,-0.1848,0.3274,-0.8597,0.3457,
2025-03-08 19:40:50.812,1.0800,-3.0700,5.7000,27.5625,55.2500,100.9375,-0.1772,0.3286,-0.8583,0.3519,
2025-03-08 19:40:50.821,0.7000,-3.2000,5.4700,19.1875,54.4375,88.7500,-0.1702,0.3302,-0.8570,0.3571,
2025-03-08 19:40:50.832,0.1000,-4.1700,5.5400,10.0625,51.7500,78.5000,-0.1639,0.3322,-0.8557,0.3613,
2025-03-08 19:40:50.842,-0.0300,-4.6500,5.5600,6.4375,47.0625,74.2500,-0.1582,0.3342,-0.8542,0.3655,
2025-03-08 19:40:50.852,-0.0900,-4.8700,5.5500,10.8750,44.0000,66.0625,-0.1528,0.3356,-0.8531,0.3691,
2025-03-08 19:40:50.862,-0.2700,-4.8600,5.7100,18.1250,43.0625,57.4375,-0.1475,0.3364,-0.8523,0.3723,
2025-03-08 19:40:50.871,-0.3400,-4.4800,5.9300,23.1250,38.6875,48.1250,-0.1426,0.3365,-0.8520,0.3749,
2025-03-08 19:40:50.883,-0.3800,-4.1100,6.1000,21.1250,27.1875,38.3750,-0.1389,0.3363,-0.8517,0.3772,
2025-03-08 19:40:50.893,0.7500,-4.3700,5.3700,19.8750,19.2500,36.3125,-0.1359,0.3359,-0.8513,0.3794,
2025-03-08 19:40:50.901,0.3500,-4.2700,5.4300,20.8750,18.3750,35.6250,-0.1328,0.3354,-0.8510,0.3818,
2025-03-08 19:40:50.911,-0.2800,-4.4400,5.3300,19.9375,12.5000,22.6875,-0.1306,0.3346,-0.8509,0.3832,
2025-03-08 19:40:50.922,-0.9000,-5.0800,5.3700,15.6250,7.3750,17.8125,-0.1291,0.3339,-0.8509,0.3845,
2025-03-08 19:40:50.931,-1.2500,-4.8100,5.7000,8.9375,1.3750,16.4375,-0.1282,0.3335,-0.8506,0.3857,
2025-03-08 19:40:50.938,-1.3500,-4.1300,6.0800,3.1875,-7.7500,14.1250,-0.1283,0.3332,-0.8502,0.3870,
2025-03-08 19:40:50.952,-1.5300,-4.0700,6.2400,-1.0625,-18.8125,9.0625,-0.1294,0.3328,-0.8496,0.3881,
2025-03-08 19:40:50.991,-0.7100,-4.0400,5.7000,-5.1875,-26.3750,-0.1250,-0.1315,0.3323,-0.8492,0.3888,
2025-03-08 19:40:50.991,-0.7200,-4.4000,5.5200,-8.8125,-26.8750,-5.6875,-0.1338,0.3320,-0.8489,0.3890,
2025-03-08 19:40:50.992,-0.7100,-4.7600,5.4200,-13.1250,-27.8125,-12.6250,-0.1367,0.3318,-0.8485,0.3889,
2025-03-08 19:40:50.992,-0.6700,-5.0600,5.4500,-17.0625,-31.1250,-20.1875,-0.1400,0.3318,-0.8484,0.3881,
2025-03-08 19:40:51.002,-0.6500,-5.2200,5.6800,-18.8125,-36.3125,-27.6250,-0.1440,0.3316,-0.8483,0.3869,
2025-03-08 19:40:51.012,-0.6400,-4.9100,5.7800,-16.1250,-41.1875,-34.6875,-0.1485,0.3310,-0.8485,0.3854,
2025-03-08 19:40:51.022,-0.5900,-4.4100,5.8000,-12.7500,-45.1250,-41.8750,-0.1533,0.3299,-0.8489,0.3834,
2025-03-08 19:40:51.032,0.0500,-3.2500,5.9900,-15.8750,-49.0625,-51.4375,-0.1589,0.3287,-0.8493,0.3812,
2025-03-08 19:40:51.042,0.3000,-2.9000,6.1300,-24.3750,-51.9375,-62.5000,-0.1652,0.3279,-0.8500,0.3778,
2025-03-08 19:40:51.052,0.4700,-3.0000,6.0200,-33.4375,-54.9375,-72.4375,-0.1722,0.3276,-0.8505,0.3737,
2025-03-08 19:40:51.061,0.6200,-3.5900,5.6600,-39.9375,-57.0000,-80.6250,-0.1797,0.3275,-0.8511,0.3688,
2025-03-08 19:40:51.071,0.5400,-5.2700,5.6100,-41.4375,-59.8125,-86.2500,-0.1877,0.3273,-0.8517,0.3637,
2025-03-08 19:40:51.092,0.6900,-5.8100,5.4800,-39.1875,-69.1250,-92.3750,-0.1965,0.3264,-0.8522,0.3585,
2025-03-08 19:40:51.092,1.3100,-5.8800,5.0300,-29.1875,-77.2500,-99.6875,-0.2057,0.3245,-0.8531,0.3530,
2025-03-08 19:40:51.100,1.5000,-5.5800,5.1500,-14.9375,-78.5000,-105.5625,-0.2147,0.3214,-0.8544,0.3472,
2025-03-08 19:40:51.111,1.8900,-4.6800,6.0200,-10.0625,-83.5625,-110.0625,-0.2240,0.3177,-0.8558,0.3414,
2025-03-08 19:40:51.121,2.1700,-4.2400,6.0000,-16.7500,-89.6250,-113.6250,-0.2340,0.3141,-0.8569,0.3352,
2025-03-08 19:40:51.132,2.4200,-4.0700,5.6700,-27.7500,-91.5000,-117.5000,-0.2444,0.3112,-0.8576,0.3285,
2025-03-08 19:40:51.139,2.3500,-4.3800,4.9200,-40.4375,-92.1875,-121.5000,-0.2554,0.3090,-0.8579,0.3212,
2025-03-08 19:40:51.152,2.3100,-4.5400,4.7600,-52.6250,-97.4375,-127.6250,-0.2673,0.3074,-0.8578,0.3133,
2025-03-08 19:40:51.161,2.4000,-4.4200,4.8800,-60.6250,-105.8750,-134.3125,-0.2800,0.3060,-0.8573,0.3050,
2025-03-08 19:40:51.171,2.7600,-4.2400,4.8300,-67.6250,-113.3750,-139.1250,-0.2935,0.3046,-0.8564,0.2962,
2025-03-08 19:40:51.179,3.7000,-4.6800,4.6600,-73.1875,-114.7500,-141.1875,-0.2935,0.3046,-0.8564,0.2962,
2025-03-08 19:40:51.192,4.0800,-5.2900,4.5600,-78.7500,-113.0000,-141.3750,-0.3072,0.3035,-0.8550,0.2871,
2025-03-08 19:40:51.201,4.3100,-6.0600,4.4800,-87.8125,-111.9375,-141.0625,-0.3345,0.3025,-0.8513,0.2680,
2025-03-08 19:40:51.211,4.8800,-6.9900,4.8300,-95.6875,-113.0625,-138.7500,-0.3483,0.3029,-0.8487,0.2581,
2025-03-08 19:40:51.222,5.3900,-7.0300,5.3500,-96.8125,-116.3750,-137.3750,-0.3623,0.3032,-0.8457,0.2484,
2025-03-08 19:40:51.232,6.0300,-6.8800,5.6100,-94.8125,-119.2500,-142.3125,-0.3764,0.3031,-0.8424,0.2383,
2025-03-08 19:40:51.242,6.5300,-6.7800,5.6400,-88.6875,-114.3125,-150.8750,-0.3901,0.3023,-0.8394,0.2277,
2025-03-08 19:40:51.252,6.4500,-6.9600,5.0600,-73.1250,-106.3750,-157.3750,-0.4030,0.3002,-0.8370,0.2168,
2025-03-08 19:40:51.262,6.2000,-7.0600,5.0500,-59.5625,-103.7500,-157.5625,-0.4154,0.2971,-0.8347,0.2062,
2025-03-08 19:40:51.292,6.1300,-7.2300,5.2400,-55.3750,-105.1875,-150.4375,-0.4275,0.2938,-0.8321,0.1963,
2025-03-08 19:40:51.292,5.9900,-7.9500,5.6600,-51.8125,-103.3750,-140.9375,-0.4275,0.2938,-0.8321,0.1963,
2025-03-08 19:40:51.292,5.8400,-7.8400,5.8600,-41.2500,-99.0625,-134.9375,-0.4390,0.2906,-0.8293,0.1870,
2025-03-08 19:40:51.302,5.7500,-7.1700,6.0000,-25.8750,-95.1250,-134.3750,-0.4601,0.2822,-0.8244,0.1704,
2025-03-08 19:40:51.312,5.9800,-6.2900,6.1300,-12.0000,-93.3125,-138.7500,-0.4701,0.2762,-0.8224,0.1625,
2025-03-08 19:40:51.323,6.7600,-4.9600,5.1300,-4.0000,-94.4375,-143.2500,-0.4800,0.2695,-0.8204,0.1545,
2025-03-08 19:40:51.336,6.9900,-4.9500,4.3000,-0.5000,-98.1250,-144.6875,-0.4800,0.2695,-0.8204,0.1545,
2025-03-08 19:40:51.342,7.1900,-5.3400,3.6800,-4.0000,-101.9375,-140.2500,-0.4900,0.2623,-0.8182,0.1468,
2025-03-08 19:40:51.351,7.9700,-6.3700,3.4000,-15.4375,-102.4375,-129.0625,-0.5002,0.2554,-0.8156,0.1392,
2025-03-08 19:40:51.362,8.2700,-6.8100,3.6200,-24.1875,-99.3125,-119.8125,-0.5102,0.2498,-0.8123,0.1319,
2025-03-08 19:40:51.393,8.5100,-6.8500,3.9700,-24.6875,-93.7500,-115.8750,-0.5198,0.2452,-0.8088,0.1247,
2025-03-08 19:40:51.393,8.8200,-6.4400,4.3400,-19.3750,-86.8125,-119.0625,-0.5288,0.2408,-0.8053,0.1176,
2025-03-08 19:40:51.394,9.6600,-5.0000,4.7000,-13.8125,-82.5000,-128.3125,-0.5373,0.2358,-0.8022,0.1105,
2025-03-08 19:40:51.405,9.9000,-4.5300,4.0700,-17.2500,-83.7500,-137.0625,-0.5455,0.2302,-0.7993,0.1028,
2025-03-08 19:40:51.412,9.6400,-4.4500,3.3800,-28.5000,-89.4375,-140.1250,-0.5539,0.2243,-0.7962,0.0944,
2025-03-08 19:40:51.427,9.4300,-4.8800,2.8700,-40.8750,-94.9375,-135.6250,-0.5628,0.2189,-0.7925,0.0853,
2025-03-08 19:40:51.442,9.8000,-5.1800,2.5300,-53.8750,-100.0000,-129.8125,-0.5719,0.2145,-0.7881,0.0760,
2025-03-08 19:40:51.442,9.9200,-5.2800,2.3800,-57.8125,-100.3750,-124.5625,-0.5812,0.2111,-0.7831,0.0667,
2025-03-08 19:40:51.451,10.1000,-5.2200,2.3200,-47.0000,-94.5000,-124.6875,-0.5903,0.2083,-0.7777,0.0573,
2025-03-08 19:40:51.462,10.5900,-4.5600,2.3800,-32.7500,-88.7500,-129.8125,-0.5989,0.2047,-0.7727,0.0485,
2025-03-08 19:40:51.488,10.7700,-3.9800,2.2600,-22.6250,-83.0625,-133.8125,-0.6070,0.1998,-0.7681,0.0399,
2025-03-08 19:40:51.488,10.6400,-3.6900,1.8700,-17.8750,-78.8125,-133.7500,-0.6147,0.1942,-0.7639,0.0314,
2025-03-08 19:40:51.491,10.2700,-3.8500,1.4100,-16.8125,-76.0625,-128.0000,-0.6220,0.1881,-0.7598,0.0231,
2025-03-08 19:40:51.502,10.4300,-4.7500,0.9900,-14.6875,-73.0625,-111.1875,-0.6289,0.1823,-0.7557,0.0153,
2025-03-08 19:40:51.519,10.6900,-4.6400,1.2600,-17.4375,-69.6875,-92.1250,-0.6352,0.1773,-0.7517,0.0085,
2025-03-08 19:40:51.522,10.8400,-4.4100,1.7200,-21.1250,-65.4375,-79.2500,-0.6410,0.1733,-0.7477,0.0027,
2025-03-08 19:40:51.532,10.9000,-3.9400,2.3300,-16.6250,-62.0625,-75.0000,-0.6463,0.1703,-0.7438,-0.0024,
2025-03-08 19:40:51.539,10.9000,-3.9400,2.3300,-6.6250,-60.5625,-77.1250,-0.6513,0.1671,-0.7402,-0.0068,
2025-03-08 19:40:51.552,10.6000,-2.9700,1.8200,2.3125,-58.0000,-79.7500,-0.6561,0.1633,-0.7367,-0.0112,
2025-03-08 19:40:51.562,10.0200,-2.4600,1.4200,7.8750,-55.8125,-78.8125,-0.6608,0.1588,-0.7334,-0.0152,
2025-03-08 19:40:51.571,9.6400,-2.7300,0.5200,7.8750,-55.0000,-73.5625,-0.6654,0.1539,-0.7302,-0.0189,
2025-03-08 19:40:51.581,9.6400,-2.7300,0.5200,5.6875,-52.9375,-61.3125,-0.6697,0.1494,-0.7271,-0.0223,
2025-03-08 19:40:51.591,10.0700,-3.5800,0.2800,0.5625,-45.8125,-45.1250,-0.6738,0.1455,-0.7241,-0.0249,
2025-03-08 19:40:51.602,10.5400,-4.3800,1.6200,-8.3750,-33.3750,-28.5000,-0.6771,0.1430,-0.7214,-0.0271,
2025-03-08 19:40:51.612,10.5600,-4.7500,1.8600,-12.8125,-19.7500,-14.8125,-0.6794,0.1420,-0.7193,-0.0289,
2025-03-08 19:40:51.622,10.4500,-4.9800,1.9300,-9.5625,-8.3125,-3.0625,-0.6808,0.1420,-0.7180,-0.0303,
2025-03-08 19:40:51.623,10.4500,-4.9800,1.9300,0.1875,1.8750,7.4375,-0.6813,0.1424,-0.7173,-0.0309,
2025-03-08 19:40:51.642,10.1800,-5.1000,1.8200,13.1250,9.8750,17.3750,-0.6811,0.1427,-0.7175,-0.0305,
2025-03-08 19:40:51.652,10.1600,-4.6900,1.2000,24.3750,16.6875,27.5625,-0.6803,0.1429,-0.7183,-0.0287,
2025-03-08 19:40:51.662,10.5100,-4.5300,1.1400,30.5625,23.8750,39.0625,-0.6791,0.1429,-0.7195,-0.0259,
2025-03-08 19:40:51.682,11.2300,-4.4600,1.4800,33.3750,32.6875,51.9375,-0.6772,0.1433,-0.7214,-0.0220,
2025-03-08 19:40:51.682,11.2300,-4.4600,1.4800,35.6875,43.9375,64.3125,-0.6746,0.1442,-0.7237,-0.0173,
2025-03-08 19:40:51.692,11.4300,-4.4700,1.7200,37.8125,57.8125,75.6250,-0.6712,0.1456,-0.7267,-0.0119,
2025-03-08 19:40:51.702,11.6200,-4.2000,2.3000,37.8125,71.2500,86.9375,-0.6667,0.1475,-0.7305,-0.0058,
2025-03-08 19:40:51.712,11.6900,-3.3300,2.3400,34.1875,81.1875,98.6875,-0.6612,0.1500,-0.7350,0.0008,
2025-03-08 19:40:51.721,11.6400,-3.3800,2.2000,27.8125,88.5625,108.9375,-0.6549,0.1534,-0.7399,0.0078,
2025-03-08 19:40:51.732,11.6400,-3.3800,2.2000,15.8125,93.1875,118.0625,-0.6479,0.1577,-0.7451,0.0150,
2025-03-08 19:40:51.742,11.6500,-3.8700,2.1000,15.8125,93.1875,118.0625,-0.6403,0.1635,-0.7502,0.0219,
2025-03-08 19:40:51.752,12.6900,-6.5400,3.0600,-18.5625,102.1250,149.0000,-0.6323,0.1708,-0.7551,0.0288,
2025-03-08 19:40:51.762,12.4600,-6.8600,3.9100,-36.4375,109.4375,164.4375,-0.6236,0.1802,-0.7598,0.0358,
2025-03-08 19:40:51.772,12.0100,-6.6200,4.5400,-43.3125,115.4375,172.1875,-0.6141,0.1915,-0.7644,0.0428,
2025-03-08 19:40:51.782,12.0100,-6.6200,4.5400,-33.4375,119.5625,173.1250,-0.6039,0.2036,-0.7690,0.0498,
2025-03-08 19:40:51.792,10.6500,-5.9900,4.4400,-15.1875,118.1875,171.7500,-0.5933,0.2151,-0.7736,0.0573,
2025-03-08 19:40:51.802,10.0800,-5.9900,3.5200,3.3125,113.6875,170.3750,-0.5824,0.2252,-0.7783,0.0656,
2025-03-08 19:40:51.812,9.9700,-6.5800,3.4600,10.6250,113.2500,181.4375,-0.5716,0.2340,-0.7829,0.0748,
2025-03-08 19:40:51.821,9.9800,-7.7100,4.0000,12.6875,116.9375,194.5000,-0.5604,0.2427,-0.7873,0.0850,
2025-03-08 19:40:51.827,9.9800,-7.7100,4.0000,12.6875,116.9375,194.5000,-0.5484,0.2519,-0.7916,0.0961,
2025-03-08 19:40:51.842,9.7200,-7.6100,4.0900,32.1250,130.5625,204.1875,-0.5355,0.2608,-0.7960,0.1080,
2025-03-08 19:40:51.852,8.3200,-6.3700,4.4200,42.0625,132.2500,201.9375,-0.5219,0.2690,-0.8005,0.1202,
2025-03-08 19:40:51.862,7.8800,-6.0700,4.3900,50.5625,131.0000,199.1250,-0.5077,0.2764,-0.8051,0.1327,
2025-03-08 19:40:51.872,7.5000,-5.8900,4.2600,56.8125,130.8125,198.9375,-0.4935,0.2828,-0.8095,0.1453,
2025-03-08 19:40:51.882,7.5000,-5.8900,4.2600,56.8125,130.8125,198.9375,-0.4790,0.2888,-0.8137,0.1581,
2025-03-08 19:40:51.891,7.1200,-5.9000,4.1200,59.6250,131.0625,199.5000,-0.4642,0.2945,-0.8176,0.1711,
2025-03-08 19:40:51.902,6.0200,-6.3200,3.8500,51.1250,126.0000,196.8750,-0.4494,0.3001,-0.8211,0.1838,
2025-03-08 19:40:51.912,5.5200,-6.3500,3.8900,45.5625,121.7500,194.5000,-0.4348,0.3059,-0.8240,0.1962,
2025-03-08 19:40:51.922,4.9900,-6.6000,3.8000,40.7500,117.9375,193.9375,-0.4205,0.3118,-0.8262,0.2082,
2025-03-08 19:40:51.932,4.9900,-6.6000,3.8000,40.7500,117.9375,193.9375,-0.4063,0.3179,-0.8279,0.2200,
2025-03-08 19:40:51.942,4.5100,-6.3500,3.8000,36.3750,115.1250,190.5625,-0.3924,0.3239,-0.8292,0.2314,
2025-03-08 19:40:51.952,4.3500,-6.3000,3.7400,46.7500,114.3125,189.2500,-0.3784,0.3296,-0.8302,0.2427,
2025-03-08 19:40:51.961,4.5300,-6.1800,3.8200,53.5625,112.4375,193.7500,-0.3641,0.3346,-0.8312,0.2543,
2025-03-08 19:40:51.992,5.0900,-6.0900,3.9100,56.4375,111.0000,196.6875,-0.3495,0.3392,-0.8318,0.2663,
2025-03-08 19:40:51.992,5.1400,-6.0800,3.8700,56.4375,111.0000,196.6875,-0.3347,0.3435,-0.8321,0.2785,
2025-03-08 19:40:51.992,4.8300,-5.9400,3.9800,54.6875,109.6875,194.3125,-0.3200,0.3476,-0.8321,0.2905,
2025-03-08 19:40:52.002,4.3300,-5.6900,4.1000,48.6250,102.3125,178.5625,-0.3057,0.3516,-0.8317,0.3019,
2025-03-08 19:40:52.021,3.3100,-5.4000,4.5300,46.7500,96.5625,168.1875,-0.2919,0.3554,-0.8311,0.3126,
2025-03-08 19:40:52.021,2.7800,-5.5700,4.7600,47.6875,92.5000,161.1250,-0.2788,0.3588,-0.8303,0.3226,
2025-03-08 19:40:52.031,2.3100,-5.6000,4.8000,47.6875,92.5000,161.1250,-0.2661,0.3617,-0.8295,0.3322,
2025-03-08 19:40:52.040,2.0100,-5.7300,4.1700,53.5000,91.3750,161.1875,-0.2532,0.3641,-0.8286,0.3417,
2025-03-08 19:40:52.051,1.8200,-5.8000,4.3200,62.8125,87.1250,156.7500,-0.2402,0.3660,-0.8276,0.3514,
2025-03-08 19:40:52.062,1.3400,-5.7100,4.9700,64.0000,81.5000,152.5625,-0.2273,0.3674,-0.8265,0.3609,
2025-03-08 19:40:52.072,1.3300,-5.0500,5.0500,52.8125,76.5000,139.3750,-0.2150,0.3682,-0.8253,0.3702,
2025-03-08 19:40:52.082,0.8900,-4.4900,4.8300,52.8125,76.5000,139.3750,-0.2036,0.3694,-0.8239,0.3784,
2025-03-08 19:40:52.094,0.4700,-4.5900,4.9300,39.1875,73.6875,125.0625,-0.1933,0.3712,-0.8223,0.3855,
2025-03-08 19:40:52.106,0.4200,-4.7000,4.8000,24.1875,69.8125,116.2500,-0.1834,0.3733,-0.8204,0.3923,
2025-03-08 19:40:52.111,-0.2500,-5.6500,4.9500,17.6875,67.1875,108.0000,-0.1741,0.3757,-0.8184,0.3985,
2025-03-08 19:40:52.123,-0.2700,-6.5800,5.0500,22.3750,67.8750,107.3750,-0.1654,0.3783,-0.8162,0.4041,
2025-03-08 19:40:52.141,-0.2200,-6.4000,5.2200,22.3750,67.8750,107.3750,-0.1565,0.3805,-0.8142,0.4096,
2025-03-08 19:40:52.142,-0.2800,-6.0100,5.2700,31.7500,66.0625,102.8125,-0.1473,0.3821,-0.8127,0.4145,
2025-03-08 19:40:52.153,-0.8200,-4.5500,5.4400,43.4375,54.4375,85.7500,-0.1385,0.3825,-0.8114,0.4196,
2025-03-08 19:40:52.161,-0.7000,-4.0100,5.3900,35.3125,46.7500,73.1875,-0.1304,0.3824,-0.8104,0.4242,
2025-03-08 19:40:52.177,-0.9900,-4.0900,5.5100,28.9375,44.2500,69.1250,-0.1236,0.3825,-0.8094,0.4281,
2025-03-08 19:40:52.183,-1.5400,-4.5400,5.0500,28.9375,44.2500,69.1250,-0.1173,0.3828,-0.8083,0.4317,
2025-03-08 19:40:52.191,-2.0900,-5.3800,4.9300,21.8750,44.3125,60.8750,-0.1115,0.3835,-0.8072,0.4346,
2025-03-08 19:40:52.202,-2.1100,-5.8700,4.9900,20.0000,43.5625,43.3125,-0.1061,0.3844,-0.8063,0.4369,
2025-03-08 19:40:52.213,-2.2100,-6.0500,5.0600,21.5000,39.8125,35.8750,-0.1010,0.3850,-0.8057,0.4386,
2025-03-08 19:40:52.225,-2.0000,-5.2700,5.5900,22.1875,29.2500,25.5625,-0.0964,0.3853,-0.8054,0.4399,
2025-03-08 19:40:52.226,-1.7600,-4.5800,5.6800,22.1875,29.2500,25.5625,-0.0927,0.3851,-0.8054,0.4409,
2025-03-08 19:40:52.240,-1.7300,-3.8600,5.5500,25.1250,14.1250,18.3125,-0.0900,0.3841,-0.8059,0.4415,
2025-03-08 19:40:52.257,-2.0000,-3.4500,5.1400,28.6875,-2.1875,9.9375,-0.0883,0.3824,-0.8063,0.4426,
2025-03-08 19:40:52.263,-2.1100,-3.8700,5.1700,24.4375,-2.4375,3.3750,-0.0870,0.3804,-0.8068,0.4435,
2025-03-08 19:40:52.287,-1.8600,-4.1500,5.1200,18.1875,-4.0000,-1.1250,-0.0862,0.3787,-0.8075,0.4440,
2025-03-08 19:40:52.292,-1.9700,-4.3600,5.1300,18.1875,-4.0000,-1.1250,-0.0858,0.3773,-0.8081,0.4442,
2025-03-08 19:40:52.292,-2.0700,-4.4900,5.5300,12.6250,-4.5625,-5.2500,-0.0858,0.3762,-0.8086,0.4441,
2025-03-08 19:40:52.304,-2.0100,-4.7500,5.3300,7.1250,-17.6875,-33.4375,-0.0867,0.3750,-0.8094,0.4435,
2025-03-08 19:40:52.317,-3.8700,-4.7300,6.0800,6.3125,-26.4375,-47.6250,-0.0887,0.3736,-0.8107,0.4419,
2025-03-08 19:40:52.326,-2.2900,-4.0700,5.5800,3.7500,-33.6875,-38.5000,-0.0917,0.3718,-0.8125,0.4395,
2025-03-08 19:40:52.332,-1.2800,-4.2400,5.1800,3.7500,-33.6875,-38.5000,-0.0952,0.3700,-0.8138,0.4379,
2025-03-08 19:40:52.341,-1.4400,-4.6900,5.2100,1.9375,-35.8125,-40.8750,-0.0988,0.3682,-0.8151,0.4363,
2025-03-08 19:40:52.356,-1.6100,-4.9500,5.3200,-8.6875,-45.0000,-44.0000,-0.1030,0.3667,-0.8162,0.4345,
2025-03-08 19:40:52.362,-1.8200,-5.1200,5.3700,-12.8750,-49.7500,-46.5625,-0.1078,0.3652,-0.8171,0.4327,
2025-03-08 19:40:52.377,-1.7700,-5.1800,5.5000,-16.4375,-52.6875,-51.6875,-0.1131,0.3639,-0.8180,0.4309,
2025-03-08 19:40:52.382,-1.6900,-5.1300,5.8100,-16.4375,-52.6875,-51.6875,-0.1190,0.3626,-0.8188,0.4288,
2025-03-08 19:40:52.391,-1.3300,-4.9700,5.7900,-17.5625,-55.1250,-58.8125,-0.1253,0.3612,-0.8197,0.4265,
2025-03-08 19:40:52.401,-1.6400,-4.8400,5.6800,-18.1875,-53.6875,-72.3750,-0.1317,0.3598,-0.8210,0.4233,
2025-03-08 19:40:52.411,-1.4500,-4.8900,5.6400,-18.1875,-53.6875,-72.3750,-0.1383,0.3583,-0.8224,0.4197,
2025-03-08 19:40:52.422,0.2000,-5.1600,5.4000,-18.0625,-57.5625,-75.1250,-0.1452,0.3566,-0.8238,0.4160,
2025-03-08 19:40:52.433,0.0100,-5.4100,5.8500,-21.8750,-64.4375,-81.2500,-0.1529,0.3549,-0.8252,0.4120,
2025-03-08 19:40:52.440,0.1300,-5.5600,6.3800,-30.5000,-72.2500,-88.3750,-0.1616,0.3533,-0.8264,0.4076,
2025-03-08 19:40:52.451,0.4400,-5.8700,6.5000,-44.3125,-85.3750,-95.5000,-0.1719,0.3522,-0.8271,0.4028,
2025-03-08 19:40:52.462,0.3500,-6.1700,6.6100,-52.7500,-91.8125,-103.5000,-0.1832,0.3512,-0.8277,0.3975,
2025-03-08 19:40:52.472,0.2300,-6.5500,6.0800,-49.1875,-91.7500,-107.5000,-0.1945,0.3498,-0.8284,0.3920,
2025-03-08 19:40:52.491,0.2600,-5.8000,5.5500,-17.1875,-85.8750,-110.1250,-0.2150,0.3439,-0.8307,0.3814,
2025-03-08 19:40:52.501,0.1500,-4.5000,4.7800,-8.1250,-87.3750,-114.6250,-0.2247,0.3395,-0.8325,0.3757,
2025-03-08 19:40:52.516,1.7800,-4.0500,4.8700,-9.8750,-88.6250,-119.3125,-0.2347,0.3351,-0.8342,0.3697,
2025-03-08 19:40:52.531,2.1700,-3.8900,5.2600,-21.0000,-94.0625,-122.4375,-0.2454,0.3312,-0.8355,0.3633,
2025-03-08 19:40:52.541,2.0100,-5.6900,5.2000,-63.5625,-115.0000,-128.9375,-0.2712,0.3263,-0.8355,0.3491,
2025-03-08 19:40:52.551,2.2600,-6.7700,4.9100,-80.1250,-113.2500,-128.8750,-0.2851,0.3256,-0.8344,0.3412,
2025-03-08 19:40:52.563,2.4100,-7.4000,5.2000,-80.1250,-108.6250,-129.7500,-0.2986,0.3250,-0.8333,0.3331,
2025-03-08 19:40:52.582,2.9300,-6.6500,5.9000,-66.5000,-107.6250,-133.7500,-0.3117,0.3233,-0.8324,0.3249,
2025-03-08 19:40:52.592,3.6300,-5.3400,5.9900,-33.3125,-101.3125,-151.3125,-0.3364,0.3154,-0.8323,0.3077,
2025-03-08 19:40:52.611,3.7500,-5.0900,5.6600,-23.6875,-97.6875,-155.7500,-0.3480,0.3101,-0.8328,0.2986,
2025-03-08 19:40:52.622,5.1500,-6.2600,4.6000,-26.5000,-103.8750,-143.5625,-0.3710,0.2996,-0.8327,0.2815,
2025-03-08 19:40:52.641,4.9200,-7.5200,4.9400,-46.0625,-111.6875,-129.1250,-0.3950,0.2917,-0.8295,0.2659,
2025-03-08 19:40:52.651,4.8300,-7.1900,5.7400,-47.5000,-108.3750,-134.3125,-0.4069,0.2881,-0.8277,0.2576,
2025-03-08 19:40:52.667,5.1600,-6.4500,6.0600,-36.7500,-103.0000,-146.0000,-0.4185,0.2834,-0.8263,0.2486,
2025-03-08 19:40:52.683,7.0600,-5.7600,4.3500,-20.0000,-101.4375,-153.5625,-0.4407,0.2713,-0.8242,0.2302,
2025-03-08 19:40:52.693,7.2800,-5.5200,4.0200,-20.5000,-107.6250,-140.4375,-0.4518,0.2653,-0.8223,0.2223,
2025-03-08 19:40:52.702,7.0400,-5.0500,3.9400,-33.6250,-113.5625,-121.6250,-0.4630,0.2608,-0.8194,0.2150,
2025-03-08 19:40:52.712,6.3600,-4.9300,4.2300,-54.3750,-113.3125,-112.0000,-0.4743,0.2581,-0.8157,0.2076,
2025-03-08 19:40:52.731,6.2100,-4.8400,5.2100,-84.7500,-98.8125,-114.4375,-0.4960,0.2563,-0.8076,0.1901,
2025-03-08 19:40:52.751,6.7200,-4.3300,5.1000,-85.7500,-90.5000,-125.3750,-0.5062,0.2554,-0.8039,0.1799,
2025-03-08 19:40:52.753,8.7800,-5.2200,3.5700,-86.0000,-84.6250,-136.1875,-0.5161,0.2541,-0.8003,0.1688,
2025-03-08 19:40:52.772,9.8100,-6.3600,2.6100,-91.9375,-83.8750,-142.3750,-0.5261,0.2529,-0.7966,0.1569,
2025-03-08 19:40:52.772,10.8700,-7.5000,2.0300,-96.1875,-87.0625,-145.0000,-0.5362,0.2518,-0.7925,0.1447,
2025-03-08 19:40:52.782,11.6400,-8.4100,1.9800,-89.7500,-92.8125,-139.0000,-0.5464,0.2503,-0.7880,0.1333,
2025-03-08 19:40:52.791,11.0200,-9.2600,2.9300,-75.0625,-100.7500,-131.8750,-0.5567,0.2480,-0.7832,0.1232,
2025-03-08 19:40:52.801,10.0400,-9.2900,3.4000,-53.6250,-103.8750,-127.0000,-0.5667,0.2446,-0.7784,0.1144,
2025-03-08 19:40:52.812,9.2400,-8.9600,3.6300,-25.6875,-100.0000,-123.0000,-0.5760,0.2394,-0.7742,0.1071,
2025-03-08 19:40:52.821,7.7200,-6.7000,3.8300,2.3750,-95.9375,-123.1250,-0.5847,0.2323,-0.7706,0.1011,
2025-03-08 19:40:52.831,7.8200,-5.4900,3.6400,17.4375,-93.0000,-122.1875,-0.5930,0.2243,-0.7673,0.0958,
2025-03-08 19:40:52.840,8.1600,-4.5200,3.1100,17.3125,-84.4375,-116.8125,-0.6005,0.2168,-0.7643,0.0906,
2025-03-08 19:40:52.852,8.6500,-3.5900,2.6200,5.3750,-76.6250,-115.1250,-0.6074,0.2100,-0.7614,0.0848,
2025-03-08 19:40:52.862,10.0000,-2.7600,1.6100,-8.5000,-72.5000,-112.0000,-0.6141,0.2043,-0.7583,0.0784,
2025-03-08 19:40:52.882,10.6500,-2.9600,1.3400,-21.5625,-70.3750,-109.1875,-0.6206,0.1995,-0.7549,0.0715,
2025-03-08 19:40:52.892,11.2200,-3.5900,1.0100,-33.3750,-70.1250,-109.6250,-0.6271,0.1955,-0.7513,0.0640,
2025-03-08 19:40:52.892,11.6200,-4.7300,0.5300,-36.0625,-69.5625,-110.4375,-0.6336,0.1910,-0.7476,0.0567,
2025-03-08 19:40:52.901,11.3100,-4.9200,0.7600,-34.0625,-67.5000,-110.6250,-0.6398,0.1870,-0.7439,0.0490,
2025-03-08 19:40:52.912,10.9300,-4.7000,1.1400,-33.1875,-65.7500,-107.6875,-0.6457,0.1829,-0.7402,0.0414,
2025-03-08 19:40:52.924,10.8200,-4.4000,1.5200,-31.2500,-65.0000,-102.3750,-0.6514,0.1791,-0.7365,0.0344,
2025-03-08 19:40:52.932,10.7200,-3.2700,1.6000,-26.2500,-61.8125,-95.5625,-0.6567,0.1753,-0.7329,0.0279,
2025-03-08 19:40:52.942,10.4800,-3.1700,1.5400,-19.6250,-54.6250,-87.2500,-0.6614,0.1716,-0.7298,0.0222,
2025-03-08 19:40:52.952,10.0600,-3.3600,1.1900,-17.1875,-49.6250,-78.5000,-0.6657,0.1682,-0.7269,0.0171,
2025-03-08 19:40:52.962,10.0800,-3.9900,0.9400,-22.3125,-48.8750,-68.1250,-0.6696,0.1656,-0.7239,0.0123,
2025-03-08 19:40:52.972,10.1000,-4.9100,1.2100,-28.8750,-48.0000,-54.4375,-0.6733,0.1642,-0.7208,0.0081,
2025-03-08 19:40:52.982,10.2100,-5.3200,1.5700,-30.3750,-41.8125,-42.7500,-0.6765,0.1636,-0.7180,0.0043,
2025-03-08 19:40:52.993,10.1200,-5.4300,1.7700,-27.3125,-31.5000,-31.5625,-0.6789,0.1634,-0.7158,0.0013,
2025-03-08 19:40:53.003,9.7200,-5.0300,1.9600,-23.6250,-20.3125,-25.9375,-0.6805,0.1633,-0.7143,-0.0013,
2025-03-08 19:40:53.013,9.6300,-4.6300,1.8400,-19.7500,-12.1875,-20.8750,-0.6815,0.1633,-0.7134,-0.0035,
2025-03-08 19:40:53.022,9.7900,-4.3300,1.6200,-13.6875,-7.8750,-16.6250,-0.6822,0.1632,-0.7127,-0.0052,
2025-03-08 19:40:53.031,9.9700,-4.0700,1.3900,-4.6875,-3.1250,-9.3125,-0.6825,0.1629,-0.7125,-0.0060,
2025-03-08 19:40:53.051,9.8700,-4.2700,0.9200,5.0000,5.1875,-2.0000,-0.6822,0.1625,-0.7128,-0.0060,
2025-03-08 19:40:53.051,9.8200,-4.4000,0.9500,13.0000,14.8750,8.1250,-0.6812,0.1622,-0.7139,-0.0049,
2025-03-08 19:40:53.061,9.8400,-4.5300,0.9900,19.8125,23.1250,18.0000,-0.6796,0.1621,-0.7155,-0.0031,
2025-03-08 19:40:53.073,10.0600,-4.7300,1.0700,23.0625,29.8125,27.6250,-0.6774,0.1622,-0.7175,-0.0004,
2025-03-08 19:40:53.081,10.1100,-4.7800,1.1800,23.6250,37.9375,39.6875,-0.6746,0.1631,-0.7200,0.0028,
2025-03-08 19:40:53.092,10.3300,-4.9500,1.2100,23.4375,45.5625,53.6250,-0.6708,0.1655,-0.7229,0.0059,
2025-03-08 19:40:53.102,10.7600,-5.2000,1.3200,23.8750,52.0625,68.0000,-0.6666,0.1679,-0.7261,0.0107,
2025-03-08 19:40:53.111,11.4200,-5.7700,1.8400,23.0000,60.6875,83.0000,-0.6617,0.1713,-0.7298,0.0162,
2025-03-08 19:40:53.121,11.7600,-6.0200,2.2800,18.5000,72.0000,97.0625,-0.6558,0.1756,-0.7339,0.0222,
2025-03-08 19:40:53.131,12.1800,-5.9000,2.7100,12.0000,82.8125,111.3750,-0.6489,0.1812,-0.7384,0.0286,
2025-03-08 19:40:53.142,11.4700,-4.8300,3.1900,6.0000,92.8750,124.1875,-0.6412,0.1879,-0.7432,0.0352,
2025-03-08 19:40:53.151,10.9100,-4.7400,3.1700,2.0000,99.2500,127.6875,-0.6329,0.1949,-0.7482,0.0417,
2025-03-08 19:40:53.161,11.0000,-4.9000,3.1000,-0.0625,98.9375,127.5000,-0.6245,0.2020,-0.7529,0.0482,
2025-03-08 19:40:53.191,11.3700,-5.5900,3.0300,-1.5000,96.5000,134.3750,-0.6160,0.2096,-0.7574,0.0550,
2025-03-08 19:40:53.191,11.4100,-7.5600,3.2700,-4.3750,97.8125,145.2500,-0.6071,0.2179,-0.7617,0.0623,
2025-03-08 19:40:53.196,10.9500,-8.1600,3.5300,-7.8125,105.4375,157.0000,-0.5973,0.2272,-0.7660,0.0698,
2025-03-08 19:40:53.201,10.6500,-8.2500,3.7100,-5.6250,113.6875,167.3750,-0.5867,0.2366,-0.7705,0.0781,
2025-03-08 19:40:53.212,10.5800,-7.9300,3.8300,3.5625,120.3125,173.1875,-0.5752,0.2457,-0.7753,0.0872,
2025-03-08 19:40:53.221,10.4100,-7.0200,3.7300,15.6250,124.3125,177.0000,-0.5632,0.2542,-0.7802,0.0969,
2025-03-08 19:40:53.226,10.1800,-7.1000,3.7200,29.8750,126.2500,184.1250,-0.5506,0.2620,-0.7852,0.1077,
2025-03-08 19:40:53.239,10.0500,-7.3800,3.8500,40.3750,128.0000,195.0625,-0.5373,0.2695,-0.7901,0.1197,
2025-03-08 19:40:53.252,9.2200,-7.8900,4.1600,42.7500,130.8750,204.1875,-0.5234,0.2771,-0.7949,0.1323,
2025-03-08 19:40:53.262,8.6800,-7.8800,4.4600,38.5625,135.1875,209.0000,-0.5089,0.2852,-0.7992,0.1448,
2025-03-08 19:40:53.275,8.2800,-7.5000,4.7000,35.3125,138.7500,209.5000,-0.4939,0.2935,-0.8033,0.1571,
2025-03-08 19:40:53.281,8.2100,-6.8700,4.6500,39.1250,139.8125,208.7500,-0.4786,0.3013,-0.8071,0.1694,
2025-03-08 19:40:53.287,7.9800,-6.8800,3.8400,48.1875,142.1875,211.8750,-0.4627,0.3085,-0.8109,0.1821,
2025-03-08 19:40:53.305,7.6100,-7.5200,3.8000,52.2500,143.5000,216.1250,-0.4463,0.3155,-0.8143,0.1952,
2025-03-08 19:40:53.311,7.1600,-8.1300,4.1000,47.8750,141.0000,219.3750,-0.4299,0.3228,-0.8171,0.2083,
2025-03-08 19:40:53.320,6.3500,-9.4200,4.5700,41.8750,136.6875,220.1875,-0.4136,0.3302,-0.8191,0.2212,
2025-03-08 19:40:53.335,6.0100,-9.3300,5.0200,37.6875,132.6250,216.7500,-0.3976,0.3376,-0.8206,0.2338,
2025-03-08 19:40:53.341,5.9100,-8.5700,5.1000,49.3125,134.4375,215.8125,-0.3810,0.3439,-0.8220,0.2465,
2025-03-08 19:40:53.353,6.1000,-7.6400,4.8600,79.1875,139.2500,224.3125,-0.3632,0.3485,-0.8239,0.2605,
2025-03-08 19:40:53.368,6.0500,-5.8300,4.3100,104.5625,142.6875,231.4375,-0.3440,0.3513,-0.8260,0.2755,
2025-03-08 19:40:53.371,5.4300,-4.9400,4.2600,116.3750,143.2500,228.0625,-0.3244,0.3531,-0.8281,0.2905,
2025-03-08 19:40:53.378,4.7100,-4.6200,4.2300,113.3750,141.9375,216.1250,-0.3052,0.3544,-0.8298,0.3044,
2025-03-08 19:40:53.389,3.1800,-5.2700,3.9400,95.1875,136.1875,204.1250,-0.2870,0.3565,-0.8307,0.3170,
2025-03-08 19:40:53.401,2.5500,-5.8800,3.8900,73.8750,130.8750,194.0000,-0.2699,0.3594,-0.8307,0.3284,
2025-03-08 19:40:53.411,2.1600,-6.5900,4.1800,54.5000,125.6250,189.8750,-0.2538,0.3633,-0.8298,0.3391,
2025-03-08 19:40:53.422,1.8600,-6.8700,4.6800,46.3750,121.0625,192.6250,-0.2380,0.3676,-0.8282,0.3498,
2025-03-08 19:40:53.433,1.5800,-6.0900,4.8700,55.0000,119.5625,198.0000,-0.2218,0.3712,-0.8263,0.3610,
2025-03-08 19:40:53.441,1.5700,-4.9500,4.7300,72.2500,120.5625,201.3750,-0.2048,0.3735,-0.8245,0.3726,
2025-03-08 19:40:53.457,1.1800,-3.7900,4.6300,87.0625,121.5625,199.1250,-0.1873,0.3746,-0.8229,0.3840,
2025-03-08 19:40:53.461,0.4800,-3.1300,4.0900,91.2500,120.1875,190.4375,-0.1699,0.3751,-0.8213,0.3948,
2025-03-08 19:40:53.471,0.0700,-3.4500,4.1600,80.1250,117.7500,178.3125,-0.1534,0.3760,-0.8195,0.4045,
2025-03-08 19:40:53.491,-0.1300,-4.2200,4.1700,59.3750,116.1250,166.4375,-0.1381,0.3779,-0.8170,0.4130,
2025-03-08 19:40:53.491,-0.1500,-4.9700,4.1900,35.0000,112.4375,154.0000,-0.1241,0.3812,-0.8140,0.4204,
2025-03-08 19:40:53.496,-0.3300,-5.4600,4.7400,35.0000,112.4375,154.0000,-0.1102,0.3843,-0.8107,0.4277,
2025-03-08 19:40:53.512,-0.5700,-4.7900,4.8800,45.5625,112.9375,152.3125,-0.0958,0.3867,-0.8076,0.4348,
2025-03-08 19:40:53.522,-1.0400,-3.9300,5.1400,75.8125,103.1250,135.5000,-0.0816,0.3863,-0.8058,0.4413,
2025-03-08 19:40:53.531,-1.1900,-3.2300,5.0200,73.9375,94.6250,118.0000,-0.0685,0.3856,-0.8044,0.4467,
2025-03-08 19:40:53.536,-1.5200,-2.3700,4.8900,64.2500,90.6875,106.2500,-0.0563,0.3853,-0.8032,0.4509,
2025-03-08 19:40:53.553,-1.3400,-2.9100,4.5300,43.1250,84.8750,96.0000,-0.0458,0.3860,-0.8013,0.4549,
2025-03-08 19:40:53.561,-2.3900,-4.0600,4.9900,25.7500,83.2500,86.5000,-0.0363,0.3878,-0.7991,0.4581,
2025-03-08 19:40:53.571,-2.8800,-5.3100,5.1300,24.5000,84.1250,84.3750,-0.0269,0.3896,-0.7968,0.4611,
2025-03-08 19:40:53.579,-3.4900,-5.4700,5.2000,37.3750,84.5625,84.9375,-0.0170,0.3906,-0.7949,0.4641,
2025-03-08 19:40:53.582,-4.1500,-5.3200,5.3700,50.1875,81.8750,85.8750,-0.0170,0.3906,-0.7949,0.4641,
2025-03-08 19:40:53.601,-4.2500,-4.4500,5.1200,57.2500,73.9375,75.8125,-0.0064,0.3905,-0.7935,0.4667,
2025-03-08 19:40:53.613,-4.2900,-2.6800,5.7700,56.8125,58.7500,70.4375,0.0118,0.3881,-0.7915,0.4721,
2025-03-08 19:40:53.622,-4.0100,-1.9500,4.8100,49.4375,43.4375,63.1250,0.0187,0.3864,-0.7905,0.4748,
2025-03-08 19:40:53.631,-4.3500,-2.0900,4.8000,34.5000,42.0625,54.5000,0.0247,0.3857,-0.7894,0.4770,
2025-03-08 19:40:53.642,-4.3800,-3.4700,4.8100,19.8750,44.1250,43.5625,0.0299,0.3860,-0.7882,0.4783,
2025-03-08 19:40:53.652,-4.7500,-3.8900,4.8100,12.6875,42.1875,24.8750,0.0341,0.3868,-0.7875,0.4786,
2025-03-08 19:40:53.662,-5.0600,-4.0800,5.1300,8.1875,33.7500,21.0000,0.0373,0.3876,-0.7868,0.4788,
2025-03-08 19:40:53.672,-5.0400,-3.9700,5.4800,21.5625,26.0625,22.5625,0.0373,0.3876,-0.7868,0.4788,
2025-03-08 19:40:53.681,-7.0600,-3.0200,5.3000,21.9375,18.0625,19.7500,0.0407,0.3872,-0.7865,0.4794,
2025-03-08 19:40:53.691,-5.3700,-2.4100,5.5400,25.2500,14.4375,16.0000,0.0434,0.3864,-0.7864,0.4800,
2025-03-08 19:40:53.701,-5.3500,-2.1600,5.3400,26.3750,6.5000,9.9375,0.0460,0.3852,-0.7866,0.4803,
2025-03-08 19:40:53.712,-5.6100,-2.4700,4.8900,23.0000,3.7500,1.8750,0.0479,0.3837,-0.7871,0.4807,
2025-03-08 19:40:53.722,-5.9200,-2.5200,4.9300,20.0625,1.1875,-1.1250,0.0491,0.3823,-0.7877,0.4806,
2025-03-08 19:40:53.732,-6.0300,-2.6400,4.8200,15.0625,-3.3125,-1.7500,0.0500,0.3810,-0.7884,0.4804,
2025-03-08 19:40:53.732,-6.0400,-2.8600,4.7100,8.1875,-7.8125,-5.5000,0.0503,0.3799,-0.7890,0.4803,
2025-03-08 19:40:53.752,-5.8000,-3.0200,4.9800,0.8750,-12.6875,-14.8125,0.0502,0.3790,-0.7899,0.4795,
2025-03-08 19:40:53.761,-5.5400,-2.9700,5.1900,-4.5000,-19.4375,-25.9375,0.0489,0.3785,-0.7906,0.4789,
2025-03-08 19:40:53.792,-5.4900,-3.0600,5.4900,-6.6250,-26.7500,-35.6250,0.0466,0.3781,-0.7915,0.4778,
2025-03-08 19:40:53.792,-5.2000,-2.9300,5.2300,-4.4375,-33.8125,-38.1875,0.0435,0.3776,-0.7929,0.4763,
2025-03-08 19:40:53.792,-5.2300,-3.3200,5.1400,-3.6875,-37.1875,-35.5625,0.0398,0.3767,-0.7944,0.4749,
2025-03-08 19:40:53.792,-5.3400,-3.6700,5.1400,-7.1250,-42.8750,-33.6875,0.0361,0.3755,-0.7960,0.4734,
2025-03-08 19:40:53.812,-5.2700,-3.8200,4.9900,-12.2500,-50.0000,-33.1875,0.0319,0.3744,-0.7972,0.4725,
2025-03-08 19:40:53.822,-5.0100,-3.7800,5.1000,-17.1250,-54.5000,-34.6250,0.0270,0.3733,-0.7983,0.4719,
2025-03-08 19:40:53.832,-4.6700,-3.6200,5.2800,-21.3750,-57.4375,-38.6875,0.0215,0.3724,-0.7992,0.4712,
2025-03-08 19:40:53.841,-4.6700,-3.6200,5.2800,-26.3125,-61.2500,-46.0000,0.0156,0.3716,-0.8002,0.4705,
2025-03-08 19:40:53.852,-4.3100,-3.4800,5.5200,-34.6250,-67.8750,-55.8750,0.0089,0.3710,-0.8012,0.4695,
2025-03-08 19:40:53.863,-3.0500,-3.8500,5.4700,-41.1250,-72.0000,-65.3750,0.0012,0.3707,-0.8023,0.4678,
2025-03-08 19:40:53.871,-3.3700,-3.9100,5.6200,-40.6250,-72.6875,-69.8125,-0.0074,0.3706,-0.8036,0.4656,
2025-03-08 19:40:53.882,-3.6900,-4.1300,5.7600,-40.5000,-76.0000,-71.3750,-0.0161,0.3704,-0.8050,0.4631,
2025-03-08 19:40:53.892,-3.6900,-4.1300,5.7600,-42.6875,-78.5625,-73.5000,-0.0251,0.3701,-0.8064,0.4606,
2025-03-08 19:40:53.901,-3.5800,-4.5900,5.9100,-43.2500,-79.8125,-76.6250,-0.0343,0.3698,-0.8079,0.4576,
2025-03-08 19:40:53.912,-3.2000,-4.5900,6.7900,-42.1875,-85.6875,-80.3750,-0.0438,0.3694,-0.8093,0.4546,
2025-03-08 19:40:53.922,-2.2700,-4.4800,6.3400,-40.4375,-96.9375,-85.6875,-0.0538,0.3687,-0.8107,0.4517,
2025-03-08 19:40:53.932,-1.3600,-5.1600,5.4400,-39.1250,-93.4375,-95.4375,-0.0646,0.3674,-0.8122,0.4486,
2025-03-08 19:40:53.943,-1.3600,-5.1600,5.4400,-35.2500,-90.4375,-105.6875,-0.0755,0.3660,-0.8140,0.4447,
2025-03-08 19:40:53.952,-1.9600,-5.4100,6.0200,-30.4375,-97.0625,-107.8750,-0.0863,0.3643,-0.8162,0.4400,
2025-03-08 19:40:53.962,-1.4000,-5.6400,6.4500,-29.9375,-98.4375,-105.1875,-0.0974,0.3619,-0.8185,0.4353,
2025-03-08 19:40:53.971,-0.8100,-5.4800,6.5100,-30.8125,-89.7500,-102.8750,-0.1085,0.3595,-0.8206,0.4307,
2025-03-08 19:40:53.983,-0.2900,-4.7900,6.7800,-30.0625,-79.3125,-106.6875,-0.1190,0.3574,-0.8226,0.4260,
2025-03-08 19:40:53.992,-0.2900,-4.7900,6.7800,-32.3125,-76.8125,-119.0000,-0.1288,0.3555,-0.8247,0.4207,
2025-03-08 19:40:54.001,-0.0300,-3.7100,7.0300,-36.0625,-81.5625,-136.5625,-0.1389,0.3538,-0.8270,0.4143,
2025-03-08 19:40:54.011,0.0700,-2.3600,5.3000,-34.0000,-90.2500,-146.4375,-0.1499,0.3518,-0.8297,0.4067,
2025-03-08 19:40:54.031,1.0600,-2.6000,4.7200,-36.4375,-103.6875,-153.0000,-0.1617,0.3492,-0.8324,0.3987,
2025-03-08 19:40:54.031,1.1900,-5.6000,5.2100,-46.3750,-114.4375,-161.8125,-0.1747,0.3461,-0.8350,0.3904,
2025-03-08 19:40:54.042,1.1900,-5.6000,5.2100,-53.9375,-115.0000,-161.8125,-0.1890,0.3432,-0.8372,0.3817,
2025-03-08 19:40:54.051,-0.6500,-8.1900,5.9600,-59.5000,-105.6250,-137.5625,-0.2036,0.3406,-0.8389,0.3726,
2025-03-08 19:40:54.071,2.9000,-7.5200,6.5300,-70.2500,-107.2500,-133.0000,-0.2169,0.3391,-0.8396,0.3648,
2025-03-08 19:40:54.090,2.6400,-5.0600,7.1300,-50.3125,-96.6875,-158.3125,-0.2304,0.3383,-0.8396,0.3571,
2025-03-08 19:40:54.090,6.5900,-4.5000,6.3000,-40.3125,-101.5000,-175.6250,-0.2433,0.3359,-0.8409,0.3476,
2025-03-08 19:40:54.093,6.5900,-4.5000,6.3000,-26.8750,-107.6250,-184.8750,-0.2567,0.3321,-0.8427,0.3372,
2025-03-08 19:40:54.100,4.0100,-4.0300,6.2200,-26.8750,-107.6250,-184.8750,-0.2702,0.3269,-0.8447,0.3264,
2025-03-08 19:40:54.112,4.8600,-6.2800,4.9400,-34.8750,-113.3125,-174.5625,-0.2841,0.3213,-0.8464,0.3158,
2025-03-08 19:40:54.122,4.4600,-7.4100,5.0400,-50.3125,-113.3125,-166.3750,-0.2978,0.3166,-0.8472,0.3055,
2025-03-08 19:40:54.131,4.0500,-7.9800,5.5400,-62.5000,-114.9375,-164.1250,-0.3116,0.3130,-0.8472,0.2953,
2025-03-08 19:40:54.142,4.0500,-7.9800,5.5400,-61.2500,-114.2500,-169.7500,-0.3257,0.3102,-0.8465,0.2849,
2025-03-08 19:40:54.152,3.8300,-7.1400,6.8900,-50.2500,-112.1250,-177.2500,-0.3397,0.3072,-0.8457,0.2740,
2025-03-08 19:40:54.162,4.9800,-5.6000,6.4600,-37.2500,-109.9375,-184.1250,-0.3535,0.3030,-0.8451,0.2628,
2025-03-08 19:40:54.172,5.9000,-5.6000,5.6400,-22.8750,-110.3750,-188.3750,-0.3668,0.2977,-0.8448,0.2513,
2025-03-08 19:40:54.181,7.4700,-7.1600,4.8100,-25.1875,-116.8750,-181.3750,-0.3798,0.2911,-0.8447,0.2399,
2025-03-08 19:40:54.181,7.4700,-7.1600,4.8100,-25.1875,-116.8750,-181.3750,-0.3931,0.2847,-0.8438,0.2289,
2025-03-08 19:40:54.202,7.4900,-8.3800,4.6400,-46.3125,-124.5625,-160.5000,-0.4066,0.2802,-0.8416,0.2189,
2025-03-08 19:40:54.222,5.0900,-8.4100,5.5600,-55.3125,-118.1250,-130.1875,-0.4198,0.2773,-0.8383,0.2099,
2025-03-08 19:40:54.222,4.5600,-7.1900,6.0200,-39.6875,-111.9375,-133.4375,-0.4321,0.2745,-0.8351,0.2015,
2025-03-08 19:40:54.231,4.7700,-6.1200,6.0700,-19.2500,-110.3750,-140.1875,-0.4438,0.2704,-0.8322,0.1932,
2025-03-08 19:40:54.243,4.7700,-6.1200,6.0700,-19.2500,-110.3750,-140.1875,-0.4550,0.2647,-0.8298,0.1851,
2025-03-08 19:40:54.252,5.4700,-5.6900,5.5700,-4.5625,-111.6875,-141.5625,-0.4660,0.2579,-0.8276,0.1775,
2025-03-08 19:40:54.261,10.0300,-6.8400,4.0800,-12.8125,-128.5625,-121.0000,-0.4771,0.2510,-0.8248,0.1707,
2025-03-08 19:40:54.272,11.7800,-7.2300,3.8500,-29.1250,-136.4375,-115.3750,-0.4887,0.2452,-0.8210,0.1645,
2025-03-08 19:40:54.282,11.7800,-7.2300,3.8500,-32.6875,-131.4375,-114.3750,-0.5009,0.2405,-0.8163,0.1581,
2025-03-08 19:40:54.282,11.5900,-6.3300,4.1300,-32.6875,-131.4375,-114.3750,-0.5126,0.2361,-0.8115,0.1515,
2025-03-08 19:40:54.296,9.5300,-4.7600,4.3000,-16.5625,-121.6250,-127.0625,-0.5237,0.2302,-0.8074,0.1443,
2025-03-08 19:40:54.312,7.9900,-3.4300,4.7100,3.5000,-124.9375,-173.0625,-0.5347,0.2220,-0.8039,0.1363,
2025-03-08 19:40:54.322,7.6900,-2.4900,4.8100,-3.6875,-130.8750,-171.5000,-0.5463,0.2125,-0.8002,0.1270,
2025-03-08 19:40:54.331,9.4200,-3.2700,4.0800,-13.7500,-134.6250,-152.6250,-0.5582,0.2034,-0.7958,0.1176,
2025-03-08 19:40:54.341,10.1900,-4.2800,3.8600,-13.7500,-134.6250,-152.6250,-0.5699,0.1958,-0.7906,0.1089,
2025-03-08 19:40:54.344,10.7000,-4.9500,3.7300,-19.8750,-136.0625,-133.5000,-0.5813,0.1894,-0.7848,0.1013,
2025-03-08 19:40:54.362,10.6400,-5.7100,3.5000,-20.3750,-135.3125,-120.8750,-0.5925,0.1837,-0.7787,0.0943,
2025-03-08 19:40:54.382,9.6300,-5.9500,3.7700,-14.5000,-130.3125,-128.3125,-0.6033,0.1779,-0.7725,0.0874,
2025-03-08 19:40:54.391,8.5500,-6.1800,4.0900,-12.3750,-129.6875,-137.3125,-0.6138,0.1713,-0.7664,0.0802,
2025-03-08 19:40:54.391,7.9900,-6.5200,4.5500,-12.3750,-129.6875,-137.3125,-0.6242,0.1641,-0.7604,0.0726,
2025-03-08 19:40:54.401,8.6500,-7.3700,4.3700,-13.0000,-131.0000,-137.6250,-0.6345,0.1568,-0.7540,0.0648,
2025-03-08 19:40:54.411,9.1500,-7.3800,3.7700,-15.8750,-108.4375,-111.0625,-0.6442,0.1500,-0.7478,0.0577,
2025-03-08 19:40:54.422,9.6000,-7.0100,3.4500,-20.5000,-91.3750,-92.5625,-0.6525,0.1445,-0.7422,0.0511,
2025-03-08 19:40:54.431,9.7600,-6.3600,3.5500,-19.7500,-78.8125,-79.9375,-0.6594,0.1403,-0.7372,0.0453,
