A1,,,,,,,,,,,
time,accx,accy,accz,gyrox,gyroy,gyroz,w1,w2,w3,w4,
2025-03-06 20:20:00.267,9.7300,-0.9900,0.2800,-0.5625,-0.1875,-0.0625,-0.6778,0.1718,-0.7073,-0.1038,
2025-03-06 20:20:00.287,9.7800,-1.0100,0.2900,-0.4375,-0.0625,-0.2500,-0.6778,0.1718,-0.7073,-0.1038,
2025-03-06 20:20:00.299,9.7900,-0.9800,0.2500,0.1250,-0.1250,-0.3125,-0.6778,0.1718,-0.7073,-0.1038,
2025-03-06 20:20:00.306,9.7800,-0.9400,0.2100,0.4375,-0.1250,-0.3750,-0.6778,0.1718,-0.7073,-0.1038,
2025-03-06 20:20:00.317,9.7600,-0.9100,0.1700,0.0000,0.1250,-0.3750,-0.6778,0.1718,-0.7073,-0.1038,
2025-03-06 20:20:00.345,9.7800,-0.9500,0.2400,-0.4375,0.1250,-0.3750,-0.6778,0.1718,-0.7073,-0.1038,
2025-03-06 20:20:00.362,9.7800,-1.0200,0.2100,-0.6250,0.0625,-0.3125,-0.6778,0.1718,-0.7073,-0.1039,
2025-03-06 20:20:00.367,9.7800,-1.0000,0.2100,-0.1875,0.0000,-0.0625,-0.6778,0.1718,-0.7073,-0.1039,
2025-03-06 20:20:00.388,9.7800,-0.8800,0.1900,0.0625,0.1250,0.3125,-0.6778,0.1718,-0.7073,-0.1039,
2025-03-06 20:20:00.402,9.8000,-0.8900,0.2200,0.0625,0.3125,0.2500,-0.6778,0.1718,-0.7073,-0.1039,
2025-03-06 20:20:00.406,9.7800,-0.9200,0.2500,-0.2500,0.4375,0.2500,-0.6778,0.1718,-0.7073,-0.1039,
2025-03-06 20:20:00.419,9.7500,-0.9500,0.2400,-0.6250,0.7500,0.3125,-0.6778,0.1718,-0.7073,-0.1039,
2025-03-06 20:20:00.437,9.7700,-1.0400,0.2700,-0.3750,0.6250,0.1250,-0.6777,0.1718,-0.7074,-0.1039,
2025-03-06 20:20:00.460,9.8100,-1.0400,0.2300,0.9375,0.2500,0.3750,-0.6777,0.1718,-0.7074,-0.1039,
2025-03-06 20:20:00.474,9.8200,-0.9900,0.2400,1.1250,0.5000,0.3750,-0.6777,0.1717,-0.7074,-0.1038,
2025-03-06 20:20:00.486,9.7900,-0.9300,0.2300,0.9375,0.3750,0.3125,-0.6777,0.1716,-0.7075,-0.1037,
2025-03-06 20:20:00.540,9.7400,-0.9700,0.2900,0.6875,0.6250,0.0000,-0.6777,0.1715,-0.7075,-0.1036,
2025-03-06 20:20:00.552,9.7800,-1.0000,0.2700,0.5625,0.5625,0.1250,-0.6777,0.1715,-0.7075,-0.1036,
2025-03-06 20:20:00.552,9.7900,-1.0200,0.2400,0.9375,0.6250,0.3750,-0.6777,0.1715,-0.7075,-0.1037,
2025-03-06 20:20:00.552,9.7700,-0.9300,0.2000,1.1250,0.3750,0.3125,-0.6776,0.1714,-0.7076,-0.1036,
2025-03-06 20:20:00.552,9.7800,-0.9300,0.2100,1.0625,0.3125,0.2500,-0.6776,0.1713,-0.7076,-0.1035,
2025-03-06 20:20:00.552,9.7500,-0.9200,0.2400,1.0000,0.2500,0.1250,-0.6777,0.1713,-0.7076,-0.1035,
2025-03-06 20:20:00.565,9.7500,-0.9600,0.2900,1.0625,0.3750,0.0625,-0.6777,0.1712,-0.7076,-0.1034,
2025-03-06 20:20:00.590,9.7000,-1.0700,0.2800,1.4375,0.1250,-0.0625,-0.6777,0.1711,-0.7077,-0.1033,
2025-03-06 20:20:00.593,9.7200,-1.0600,0.2800,2.0000,-0.1250,0.0000,-0.6777,0.1710,-0.7077,-0.1032,
2025-03-06 20:20:00.603,9.7900,-1.0000,0.2400,2.5625,-0.5000,0.1250,-0.6777,0.1708,-0.7078,-0.1030,
2025-03-06 20:20:00.614,9.8300,-0.8900,0.2200,2.6875,-0.5000,0.1250,-0.6777,0.1707,-0.7078,-0.1028,
2025-03-06 20:20:00.624,9.8700,-0.8400,0.2300,2.5625,-0.3125,0.3750,-0.6778,0.1705,-0.7078,-0.1027,
2025-03-06 20:20:00.640,9.8400,-0.8000,0.2600,1.3125,0.0625,0.4375,-0.6778,0.1703,-0.7079,-0.1025,
2025-03-06 20:20:00.660,9.8100,-0.8800,0.2600,0.6250,0.3125,0.1875,-0.6778,0.1702,-0.7079,-0.1025,
2025-03-06 20:20:00.665,9.8100,-0.9400,0.2500,-0.1875,0.6250,0.5000,-0.6778,0.1702,-0.7079,-0.1025,
2025-03-06 20:20:00.685,9.7200,-1.0200,0.2200,0.6250,0.6250,0.4375,-0.6777,0.1702,-0.7080,-0.1024,
2025-03-06 20:20:00.699,9.6600,-1.0000,0.2200,1.8125,0.4375,0.6250,-0.6777,0.1701,-0.7080,-0.1023,
2025-03-06 20:20:00.699,9.6700,-1.0200,0.2400,2.5625,-0.1250,0.5000,-0.6777,0.1700,-0.7081,-0.1022,
2025-03-06 20:20:00.719,9.7200,-0.9900,0.2800,2.6250,-0.5625,0.0625,-0.6778,0.1698,-0.7081,-0.1020,
2025-03-06 20:20:00.733,9.7500,-1.0000,0.2600,1.7500,-0.8750,0.0000,-0.6778,0.1697,-0.7081,-0.1019,
2025-03-06 20:20:00.750,9.8100,-0.9800,0.2700,1.6250,-0.6875,0.1250,-0.6779,0.1696,-0.7080,-0.1018,
2025-03-06 20:20:00.750,9.8000,-0.9500,0.2600,2.3750,-0.5000,0.4375,-0.6780,0.1694,-0.7081,-0.1016,
2025-03-06 20:20:00.765,9.7800,-0.9400,0.2100,2.8750,-0.5625,0.7500,-0.6780,0.1693,-0.7081,-0.1013,
2025-03-06 20:20:00.780,9.8400,-0.8900,0.1800,2.9375,-0.6250,0.9375,-0.6780,0.1691,-0.7081,-0.1011,
2025-03-06 20:20:00.829,9.8800,-0.8400,0.1900,1.1250,-0.1250,1.1250,-0.6781,0.1691,-0.7081,-0.1009,
2025-03-06 20:20:00.829,9.8900,-0.8000,0.2500,0.0000,0.3125,1.1250,-0.6780,0.1691,-0.7082,-0.1007,
2025-03-06 20:20:00.829,9.8400,-0.8700,0.2400,-0.1875,0.6250,0.8750,-0.6780,0.1692,-0.7082,-0.1006,
2025-03-06 20:20:00.839,9.8400,-0.9800,0.2500,0.2500,0.6250,0.9375,-0.6779,0.1693,-0.7083,-0.1006,
2025-03-06 20:20:00.839,9.8100,-0.9700,0.2500,0.8125,0.6250,0.6875,-0.6778,0.1693,-0.7084,-0.1005,
2025-03-06 20:20:00.851,9.8000,-0.9200,0.2300,0.8750,0.5625,0.6250,-0.6778,0.1693,-0.7084,-0.1004,
2025-03-06 20:20:00.865,9.7900,-0.8800,0.2200,0.8125,0.5625,-0.0625,-0.6778,0.1692,-0.7084,-0.1003,
2025-03-06 20:20:00.889,9.7400,-0.8400,0.2200,0.5000,0.5625,-0.3750,-0.6778,0.1691,-0.7084,-0.1003,
2025-03-06 20:20:00.889,9.7700,-0.8600,0.2200,0.1250,0.5000,-0.5000,-0.6778,0.1691,-0.7084,-0.1003,
2025-03-06 20:20:00.909,9.7800,-0.8900,0.2200,-0.1250,0.5625,-0.6250,-0.6778,0.1691,-0.7084,-0.1003,
2025-03-06 20:20:00.909,9.8100,-0.8500,0.2000,-0.5000,0.6875,-0.6875,-0.6778,0.1691,-0.7085,-0.1004,
2025-03-06 20:20:00.930,9.7700,-0.8300,0.2100,-1.1250,0.9375,-0.9375,-0.6777,0.1690,-0.7085,-0.1006,
2025-03-06 20:20:00.951,9.7700,-0.8300,0.2100,-1.6250,0.8750,-1.0625,-0.6777,0.1691,-0.7085,-0.1007,
2025-03-06 20:20:00.951,9.7500,-0.9300,0.2600,-2.3125,0.8125,-1.0000,-0.6776,0.1691,-0.7086,-0.1010,
2025-03-06 20:20:00.972,9.7600,-1.0000,0.2700,-2.7500,0.8750,-0.6875,-0.6776,0.1693,-0.7086,-0.1011,
2025-03-06 20:20:00.972,9.7600,-1.0300,0.2900,-2.6250,0.8750,-0.6250,-0.6775,0.1694,-0.7086,-0.1014,
2025-03-06 20:20:01.022,9.7500,-1.0700,0.2800,-1.8750,0.6875,-0.3125,-0.6774,0.1695,-0.7086,-0.1016,
2025-03-06 20:20:01.022,9.7400,-1.0400,0.2900,-1.1875,0.5625,-0.1250,-0.6774,0.1697,-0.7085,-0.1017,
2025-03-06 20:20:01.029,9.7500,-1.0100,0.2800,-1.0625,0.3750,-0.2500,-0.6774,0.1697,-0.7085,-0.1018,
2025-03-06 20:20:01.042,9.7400,-1.0400,0.3500,-1.0000,0.3750,-0.4375,-0.6773,0.1699,-0.7085,-0.1019,
2025-03-06 20:20:01.049,9.7700,-1.1000,0.3600,-1.0625,0.5000,-0.5625,-0.6773,0.1699,-0.7085,-0.1020,
2025-03-06 20:20:01.059,9.7800,-1.0900,0.3500,-0.8125,0.4375,-0.3750,-0.6773,0.1699,-0.7085,-0.1020,
2025-03-06 20:20:01.070,9.7200,-1.0900,0.3200,1.0625,0.0625,0.0000,-0.6773,0.1699,-0.7085,-0.1020,
2025-03-06 20:20:01.079,9.7000,-1.1000,0.3200,1.8750,-0.4375,0.1875,-0.6773,0.1697,-0.7085,-0.1019,
2025-03-06 20:20:01.132,9.7100,-1.0100,0.2700,2.2500,-0.7500,0.1875,-0.6774,0.1696,-0.7085,-0.1017,
2025-03-06 20:20:01.132,9.7200,-0.9700,0.2300,2.2500,-1.0000,0.3750,-0.6775,0.1695,-0.7085,-0.1016,
2025-03-06 20:20:01.132,9.7400,-0.9200,0.2400,1.9375,-1.0625,0.6875,-0.6775,0.1694,-0.7085,-0.1014,
2025-03-06 20:20:01.132,9.7500,-0.9000,0.2100,1.8750,-1.0625,0.6875,-0.6776,0.1694,-0.7084,-0.1013,
2025-03-06 20:20:01.140,9.8000,-0.9300,0.2400,1.4375,-1.0000,0.6875,-0.6777,0.1693,-0.7084,-0.1011,
2025-03-06 20:20:01.149,9.8000,-0.9700,0.2800,1.3125,-0.7500,0.5000,-0.6778,0.1692,-0.7084,-0.1008,
2025-03-06 20:20:01.181,9.7700,-1.0200,0.3000,1.3125,-0.5625,0.3750,-0.6778,0.1691,-0.7084,-0.1008,
2025-03-06 20:20:01.181,9.7500,-1.0500,0.2700,1.5000,-0.5625,0.2500,-0.6779,0.1691,-0.7084,-0.1007,
2025-03-06 20:20:01.181,9.7300,-1.0900,0.2500,2.2500,-1.2500,-0.0625,-0.6779,0.1689,-0.7084,-0.1006,
2025-03-06 20:20:01.210,9.7800,-1.1000,0.2400,2.8125,-1.5625,-0.1875,-0.6781,0.1686,-0.7083,-0.1002,
2025-03-06 20:20:01.219,9.8000,-1.0500,0.2400,3.4375,-1.7500,-0.1875,-0.6782,0.1685,-0.7083,-0.1000,
2025-03-06 20:20:01.219,9.7800,-1.0200,0.2200,4.0000,-1.8750,-0.3125,-0.6784,0.1683,-0.7082,-0.0998,
2025-03-06 20:20:01.243,9.8000,-0.9400,0.2600,4.6875,-1.6875,-0.2500,-0.6785,0.1680,-0.7081,-0.0995,
2025-03-06 20:20:01.259,9.8300,-0.9200,0.2200,4.6875,-1.2500,-0.2500,-0.6788,0.1675,-0.7081,-0.0989,
2025-03-06 20:20:01.265,9.8200,-0.9600,0.2500,4.5000,-1.1875,-0.1875,-0.6789,0.1672,-0.7081,-0.0986,
2025-03-06 20:20:01.279,9.8300,-1.0000,0.1800,4.3125,-0.8750,-0.0625,-0.6790,0.1669,-0.7081,-0.0983,
2025-03-06 20:20:01.289,9.8400,-1.0100,0.1800,4.4375,-0.8125,0.0000,-0.6791,0.1667,-0.7081,-0.0981,
2025-03-06 20:20:01.301,9.8400,-0.9000,0.2100,4.5625,-0.8750,-0.1875,-0.6792,0.1661,-0.7082,-0.0975,
2025-03-06 20:20:01.329,9.8200,-0.8800,0.2400,4.4375,-0.8125,-0.1875,-0.6793,0.1659,-0.7082,-0.0973,
2025-03-06 20:20:01.329,9.8000,-0.8800,0.2500,4.1875,-0.7500,-0.3125,-0.6794,0.1656,-0.7082,-0.0970,
2025-03-06 20:20:01.371,9.7900,-0.9200,0.3100,3.6250,-0.5000,-0.4375,-0.6795,0.1654,-0.7082,-0.0968,
2025-03-06 20:20:01.380,9.7700,-0.9800,0.2400,3.5625,-0.3750,-0.4375,-0.6796,0.1650,-0.7083,-0.0964,
2025-03-06 20:20:01.380,9.7800,-0.9400,0.2000,3.7500,-0.5000,-0.6250,-0.6796,0.1647,-0.7084,-0.0962,
2025-03-06 20:20:01.380,9.8000,-0.8900,0.1600,3.9375,-1.0625,-0.3125,-0.6797,0.1645,-0.7084,-0.0959,
2025-03-06 20:20:01.440,9.8300,-0.8600,0.2000,3.8750,-0.8125,-0.5000,-0.6799,0.1641,-0.7084,-0.0955,
2025-03-06 20:20:01.440,9.8300,-0.8800,0.1800,3.5625,-0.8125,-0.3125,-0.6799,0.1638,-0.7084,-0.0953,
2025-03-06 20:20:01.442,9.8100,-0.8700,0.2300,2.8750,-0.1875,-0.1250,-0.6799,0.1636,-0.7084,-0.0951,
2025-03-06 20:20:01.442,9.7800,-0.9000,0.2300,2.5000,0.0000,0.1250,-0.6800,0.1635,-0.7084,-0.0950,
2025-03-06 20:20:01.442,9.7600,-0.9100,0.2000,2.2500,0.1250,0.3125,-0.6800,0.1634,-0.7085,-0.0948,
2025-03-06 20:20:01.442,9.7900,-0.8900,0.1800,1.6250,0.1875,0.5625,-0.6800,0.1633,-0.7085,-0.0947,
2025-03-06 20:20:01.459,9.8000,-0.8900,0.1400,1.3125,0.0625,0.8125,-0.6800,0.1633,-0.7085,-0.0946,
2025-03-06 20:20:01.481,9.8000,-0.8900,0.1800,1.1875,0.1875,0.8125,-0.6800,0.1632,-0.7086,-0.0945,
2025-03-06 20:20:01.481,9.7800,-0.8700,0.1700,1.1875,0.2500,1.0625,-0.6800,0.1632,-0.7086,-0.0944,
2025-03-06 20:20:01.490,9.7900,-0.8700,0.2600,0.7500,0.3750,1.0625,-0.6800,0.1632,-0.7086,-0.0942,
2025-03-06 20:20:01.490,9.7800,-0.9100,0.2800,0.0000,0.3750,1.3125,-0.6800,0.1633,-0.7086,-0.0942,
2025-03-06 20:20:01.510,9.7600,-0.9300,0.3100,-0.6250,0.6875,1.0000,-0.6799,0.1634,-0.7086,-0.0942,
2025-03-06 20:20:01.519,9.7700,-0.9900,0.2600,-0.3125,0.8750,1.0625,-0.6798,0.1635,-0.7087,-0.0942,
2025-03-06 20:20:01.539,9.7100,-0.9700,0.1600,0.3750,0.6250,1.1250,-0.6797,0.1636,-0.7088,-0.0941,
2025-03-06 20:20:01.539,9.7400,-0.9700,0.1500,0.8125,0.2500,1.0000,-0.6797,0.1636,-0.7088,-0.0939,
2025-03-06 20:20:01.565,9.8000,-0.9700,0.1800,0.6875,-0.0625,0.9375,-0.6797,0.1636,-0.7088,-0.0938,
2025-03-06 20:20:01.579,9.8100,-0.9300,0.2300,0.1250,-0.0625,0.4375,-0.6797,0.1637,-0.7088,-0.0938,
2025-03-06 20:20:01.579,9.8100,-0.9100,0.2500,-0.2500,0.1875,0.5625,-0.6797,0.1637,-0.7088,-0.0938,
2025-03-06 20:20:01.590,9.7800,-0.9500,0.2500,-0.3750,0.0625,0.2500,-0.6797,0.1637,-0.7088,-0.0938,
2025-03-06 20:20:01.609,9.8000,-0.9700,0.2500,-0.5000,-0.3125,0.3750,-0.6797,0.1637,-0.7088,-0.0938,
2025-03-06 20:20:01.609,9.8000,-1.0100,0.2300,-0.3125,-0.3750,0.0625,-0.6797,0.1637,-0.7088,-0.0938,
2025-03-06 20:20:01.630,9.7800,-0.9700,0.2200,-0.4375,-0.2500,0.0000,-0.6797,0.1637,-0.7088,-0.0938,
2025-03-06 20:20:01.641,9.7600,-0.9300,0.2400,-0.7500,-0.1875,-0.2500,-0.6797,0.1637,-0.7088,-0.0938,
2025-03-06 20:20:01.650,9.7800,-0.9200,0.2500,-1.2500,-0.2500,-0.2500,-0.6797,0.1638,-0.7088,-0.0939,
2025-03-06 20:20:01.665,9.7400,-0.9500,0.2500,-1.5625,-0.1875,-0.1250,-0.6796,0.1639,-0.7088,-0.0940,
2025-03-06 20:20:01.671,9.7700,-1.0100,0.2400,-1.3750,-0.2500,0.1875,-0.6796,0.1640,-0.7088,-0.0941,
2025-03-06 20:20:01.730,9.7200,-1.0100,0.2800,-1.5625,-0.1250,0.2500,-0.6796,0.1642,-0.7087,-0.0942,
2025-03-06 20:20:01.730,9.7300,-1.0200,0.3000,-1.4375,-0.2500,0.1250,-0.6796,0.1642,-0.7087,-0.0944,
2025-03-06 20:20:01.730,9.7700,-1.0200,0.2900,-1.0625,-0.6875,-0.0625,-0.6796,0.1643,-0.7087,-0.0944,
2025-03-06 20:20:01.730,9.7800,-1.0300,0.2900,-0.6875,-0.5625,-0.1250,-0.6796,0.1644,-0.7086,-0.0944,
2025-03-06 20:20:01.730,9.8300,-1.0600,0.3400,-0.2500,-0.5625,-0.0625,-0.6797,0.1644,-0.7086,-0.0944,
2025-03-06 20:20:01.750,9.8000,-1.0900,0.2700,0.3125,-0.5000,-0.0625,-0.6797,0.1644,-0.7086,-0.0944,
2025-03-06 20:20:01.770,9.7800,-0.9900,0.2400,0.1875,-0.4375,0.1875,-0.6797,0.1644,-0.7086,-0.0944,
2025-03-06 20:20:01.770,9.7500,-0.9600,0.1800,0.3125,-0.3750,0.3125,-0.6797,0.1644,-0.7086,-0.0944,
2025-03-06 20:20:01.799,9.7500,-0.9500,0.1500,0.3750,-0.3750,0.3750,-0.6797,0.1644,-0.7086,-0.0944,
2025-03-06 20:20:01.799,9.7500,-1.0100,0.3000,-0.3125,-0.3750,0.5625,-0.6797,0.1644,-0.7086,-0.0944,
2025-03-06 20:20:01.811,9.7900,-1.0200,0.3400,-0.8750,-0.2500,0.3750,-0.6797,0.1644,-0.7086,-0.0945,
2025-03-06 20:20:01.831,9.8300,-1.0800,0.3000,-0.2500,0.3125,0.5000,-0.6797,0.1645,-0.7085,-0.0945,
2025-03-06 20:20:01.840,9.8000,-1.0500,0.2600,0.5000,0.1250,0.5625,-0.6797,0.1645,-0.7085,-0.0945,
2025-03-06 20:20:01.851,9.7900,-1.0300,0.2100,1.2500,-0.2500,0.8125,-0.6797,0.1644,-0.7086,-0.0944,
2025-03-06 20:20:01.870,9.7800,-0.9900,0.2200,1.7500,-0.3125,0.6250,-0.6797,0.1644,-0.7086,-0.0942,
2025-03-06 20:20:01.889,9.7800,-0.9400,0.2900,1.2500,-0.2500,0.5625,-0.6797,0.1642,-0.7087,-0.0941,
2025-03-06 20:20:01.902,9.7400,-1.0300,0.2900,0.8125,0.1250,0.3125,-0.6797,0.1641,-0.7087,-0.0940,
2025-03-06 20:20:01.929,9.7300,-1.0200,0.2900,0.7500,0.3125,0.3125,-0.6797,0.1641,-0.7087,-0.0939,
2025-03-06 20:20:01.929,9.7500,-1.0500,0.2300,0.8750,0.1875,0.5000,-0.6797,0.1640,-0.7087,-0.0939,
2025-03-06 20:20:01.940,9.7800,-1.0600,0.2500,1.0625,0.3125,0.6875,-0.6797,0.1639,-0.7087,-0.0938,
2025-03-06 20:20:01.952,9.8100,-1.0100,0.2900,1.7500,0.3750,0.5000,-0.6797,0.1638,-0.7088,-0.0936,
2025-03-06 20:20:01.979,9.7900,-1.0100,0.3100,1.9375,0.3125,0.3750,-0.6798,0.1637,-0.7088,-0.0934,
2025-03-06 20:20:01.979,9.8000,-1.0100,0.3500,2.4375,-0.0625,0.0625,-0.6797,0.1636,-0.7089,-0.0933,
2025-03-06 20:20:02.033,9.8000,-1.0400,0.3500,2.8750,0.0000,-0.0625,-0.6798,0.1633,-0.7089,-0.0930,
2025-03-06 20:20:02.033,9.7900,-1.0200,0.3200,3.3125,0.1250,0.1250,-0.6798,0.1630,-0.7090,-0.0928,
2025-03-06 20:20:02.033,9.8100,-1.0100,0.2500,3.8750,0.0625,0.1250,-0.6799,0.1628,-0.7090,-0.0926,
2025-03-06 20:20:02.039,9.7900,-0.9700,0.2000,4.3750,0.0625,0.0000,-0.6799,0.1625,-0.7091,-0.0924,
2025-03-06 20:20:02.039,9.7800,-0.9800,0.2500,4.3750,0.0625,-0.0625,-0.6799,0.1623,-0.7091,-0.0921,
2025-03-06 20:20:02.041,9.7500,-0.9500,0.2300,4.3125,-0.0625,0.0000,-0.6800,0.1620,-0.7092,-0.0919,
2025-03-06 20:20:02.050,9.7000,-0.9900,0.2400,4.0625,-0.1875,0.0000,-0.6800,0.1617,-0.7092,-0.0916,
2025-03-06 20:20:02.074,9.7100,-0.9900,0.2600,3.7500,-0.3750,0.2500,-0.6800,0.1616,-0.7093,-0.0914,
2025-03-06 20:20:02.080,9.7300,-0.9900,0.2000,3.7500,-0.5000,0.1875,-0.6801,0.1613,-0.7094,-0.0912,
2025-03-06 20:20:02.110,9.7500,-0.9100,0.1700,3.7500,-0.8125,0.6875,-0.6802,0.1609,-0.7094,-0.0907,
2025-03-06 20:20:02.112,9.8000,-0.8500,0.1500,3.8125,-0.8750,0.6875,-0.6802,0.1607,-0.7094,-0.0905,
2025-03-06 20:20:02.120,9.7700,-0.8000,0.1300,3.9375,-1.0000,0.7500,-0.6803,0.1605,-0.7094,-0.0902,
2025-03-06 20:20:02.126,9.7800,-0.8100,0.1500,3.5625,-1.0625,0.6875,-0.6804,0.1604,-0.7094,-0.0899,
2025-03-06 20:20:02.136,9.7900,-0.8000,0.2000,2.7500,-0.8750,0.6875,-0.6805,0.1603,-0.7094,-0.0897,
2025-03-06 20:20:02.139,9.7800,-0.8500,0.2300,1.8750,-0.6875,1.0000,-0.6805,0.1602,-0.7094,-0.0895,
2025-03-06 20:20:02.151,9.8000,-0.8900,0.1800,1.0000,-0.3750,0.8750,-0.6805,0.1602,-0.7094,-0.0894,
2025-03-06 20:20:02.167,9.8500,-0.9000,0.1700,0.5625,-0.5000,1.0000,-0.6805,0.1603,-0.7094,-0.0893,
2025-03-06 20:20:02.174,9.9100,-0.9300,0.1400,0.0625,-0.5625,1.0000,-0.6805,0.1603,-0.7094,-0.0892,
2025-03-06 20:20:02.190,9.9600,-0.9300,0.2000,-0.8750,-0.1250,0.5000,-0.6804,0.1604,-0.7094,-0.0892,
2025-03-06 20:20:02.210,9.9400,-0.9400,0.1900,-1.1875,0.2500,0.5000,-0.6804,0.1605,-0.7094,-0.0894,
2025-03-06 20:20:02.210,9.9200,-0.9400,0.2200,-1.2500,0.4375,0.3125,-0.6804,0.1606,-0.7094,-0.0894,
2025-03-06 20:20:02.230,9.6900,-0.9500,0.2800,-1.1250,0.5000,0.2500,-0.6804,0.1607,-0.7094,-0.0895,
2025-03-06 20:20:02.240,9.6900,-0.9600,0.2300,-1.1250,0.1250,0.1875,-0.6803,0.1608,-0.7094,-0.0896,
2025-03-06 20:20:02.259,9.7100,-1.0100,0.2000,-1.2500,0.0625,0.2500,-0.6804,0.1608,-0.7094,-0.0897,
2025-03-06 20:20:02.267,9.7300,-1.0400,0.1800,-1.5000,-0.0625,0.3125,-0.6803,0.1609,-0.7093,-0.0898,
2025-03-06 20:20:02.283,9.7600,-1.0300,0.2200,-2.7500,-0.3125,0.3125,-0.6803,0.1612,-0.7093,-0.0900,
2025-03-06 20:20:02.310,9.7100,-0.9900,0.2400,-2.8125,-0.5000,0.1875,-0.6803,0.1614,-0.7092,-0.0902,
2025-03-06 20:20:02.342,9.6500,-0.9900,0.2600,-2.1875,-0.5625,0.1875,-0.6803,0.1615,-0.7092,-0.0903,
2025-03-06 20:20:02.342,9.6500,-1.0000,0.2000,-1.1875,-0.6875,0.3125,-0.6803,0.1616,-0.7092,-0.0904,
2025-03-06 20:20:02.342,9.6700,-0.9800,0.2100,-0.7500,-1.1250,0.4375,-0.6804,0.1616,-0.7091,-0.0904,
2025-03-06 20:20:02.342,9.7800,-1.0000,0.1900,-1.0625,-1.0000,0.5000,-0.6804,0.1617,-0.7090,-0.0905,
2025-03-06 20:20:02.349,9.8600,-0.9700,0.2100,-2.1875,-0.6250,0.5000,-0.6805,0.1620,-0.7089,-0.0906,
2025-03-06 20:20:02.380,9.8600,-1.0300,0.2000,-2.5625,-0.3750,0.6875,-0.6804,0.1622,-0.7089,-0.0907,
2025-03-06 20:20:02.380,9.8500,-1.0700,0.1800,-2.8750,-0.3750,0.6875,-0.6804,0.1624,-0.7088,-0.0908,
2025-03-06 20:20:02.390,9.8500,-1.0500,0.1900,-3.0625,-0.0625,0.8125,-0.6804,0.1627,-0.7088,-0.0909,
2025-03-06 20:20:02.392,9.7900,-1.0600,0.1700,-3.5625,-0.1250,0.7500,-0.6803,0.1629,-0.7087,-0.0911,
2025-03-06 20:20:02.399,9.8000,-1.1400,0.2400,-3.3750,-0.4375,0.8125,-0.6803,0.1631,-0.7087,-0.0912,
2025-03-06 20:20:02.412,9.7700,-1.1200,0.2200,-2.7500,-0.6875,0.6250,-0.6803,0.1633,-0.7086,-0.0914,
2025-03-06 20:20:02.419,9.7300,-1.0900,0.2800,-2.3125,-0.5625,0.5625,-0.6803,0.1635,-0.7086,-0.0915,
2025-03-06 20:20:02.439,9.7600,-1.0300,0.2800,-2.1250,-0.5625,0.6875,-0.6803,0.1636,-0.7086,-0.0916,
2025-03-06 20:20:02.469,9.7400,-1.0000,0.2400,-1.8125,-0.3125,0.9375,-0.6802,0.1640,-0.7085,-0.0917,
2025-03-06 20:20:02.469,9.7400,-1.0300,0.2100,-1.6875,-0.2500,1.0000,-0.6802,0.1641,-0.7085,-0.0917,
2025-03-06 20:20:02.482,9.6800,-1.0800,0.1500,-1.7500,0.1250,1.1250,-0.6802,0.1643,-0.7085,-0.0918,
2025-03-06 20:20:02.489,9.7200,-1.1300,0.1700,-2.0000,-0.5625,0.9375,-0.6801,0.1647,-0.7084,-0.0919,
2025-03-06 20:20:02.510,9.7500,-1.0800,0.2200,-1.8125,-1.0625,1.0000,-0.6801,0.1649,-0.7084,-0.0919,
2025-03-06 20:20:02.510,9.7700,-1.0800,0.2300,-1.6250,-1.6250,1.0000,-0.6802,0.1650,-0.7083,-0.0919,
2025-03-06 20:20:02.549,9.8200,-1.0500,0.2000,-1.2500,-1.6875,1.0000,-0.6803,0.1652,-0.7081,-0.0919,
2025-03-06 20:20:02.549,9.8500,-1.0600,0.1700,-1.0625,-1.4375,0.9375,-0.6804,0.1653,-0.7081,-0.0919,
2025-03-06 20:20:02.549,9.7800,-1.0300,0.1900,-1.1875,-1.1250,0.8750,-0.6804,0.1654,-0.7080,-0.0919,
2025-03-06 20:20:02.556,9.8000,-1.0400,0.1800,-1.3750,-1.1875,0.8750,-0.6804,0.1656,-0.7079,-0.0919,
2025-03-06 20:20:02.580,9.8200,-1.0200,0.1700,-1.7500,-1.1875,1.0000,-0.6805,0.1657,-0.7078,-0.0919,
2025-03-06 20:20:02.580,9.7800,-1.0900,0.2200,-2.1250,-0.6875,0.6875,-0.6805,0.1659,-0.7078,-0.0920,
2025-03-06 20:20:02.589,9.8100,-1.1200,0.2700,-2.2500,-0.8125,0.6250,-0.6805,0.1661,-0.7077,-0.0921,
2025-03-06 20:20:02.629,9.8300,-1.1800,0.2900,-0.6250,-0.1875,0.7500,-0.6805,0.1663,-0.7077,-0.0922,
2025-03-06 20:20:02.629,9.8600,-1.1500,0.2600,0.3750,0.0625,0.8125,-0.6805,0.1663,-0.7077,-0.0921,
2025-03-06 20:20:02.629,9.8600,-1.1100,0.2100,1.1250,0.4375,0.7500,-0.6805,0.1663,-0.7077,-0.0920,
2025-03-06 20:20:02.629,9.8600,-1.0400,0.2000,1.5625,0.5000,0.5000,-0.6805,0.1662,-0.7077,-0.0919,
2025-03-06 20:20:02.650,9.7400,-1.1100,0.1700,0.3125,1.0625,-0.0625,-0.6804,0.1661,-0.7078,-0.0919,
2025-03-06 20:20:02.667,9.6900,-1.1800,0.1800,0.1250,0.6250,-0.0625,-0.6803,0.1661,-0.7079,-0.0919,
2025-03-06 20:20:02.700,9.7800,-1.2900,0.0500,0.3750,-0.6250,0.3125,-0.6804,0.1661,-0.7078,-0.0919,
2025-03-06 20:20:02.700,9.7700,-1.1500,0.1100,1.3125,-1.1250,0.3750,-0.6805,0.1661,-0.7078,-0.0918,
2025-03-06 20:20:02.700,9.7600,-1.0900,0.1700,2.0625,-1.0625,0.6875,-0.6805,0.1660,-0.7078,-0.0916,
2025-03-06 20:20:02.720,9.8200,-0.9900,0.1800,2.1875,-1.1250,1.0000,-0.6806,0.1659,-0.7078,-0.0914,
2025-03-06 20:20:02.720,9.7600,-0.9900,0.1600,1.6875,-0.6875,0.9375,-0.6807,0.1659,-0.7077,-0.0912,
2025-03-06 20:20:02.729,9.7700,-0.9900,0.1600,0.8750,-0.1875,1.0000,-0.6806,0.1659,-0.7077,-0.0911,
2025-03-06 20:20:02.741,9.7500,-1.0500,0.1100,0.0000,-0.0625,0.8750,-0.6806,0.1659,-0.7078,-0.0911,
2025-03-06 20:20:02.769,9.7400,-1.0000,0.1800,-0.1250,-0.4375,0.5000,-0.6806,0.1659,-0.7078,-0.0911,
2025-03-06 20:20:02.769,9.7500,-0.9500,0.2000,0.1875,-0.4375,0.5000,-0.6806,0.1659,-0.7078,-0.0911,
2025-03-06 20:20:02.830,9.7500,-0.9600,0.1400,0.3125,-0.6875,0.2500,-0.6807,0.1660,-0.7077,-0.0911,
2025-03-06 20:20:02.830,9.8300,-0.9700,0.1500,-0.5625,-0.1250,0.3750,-0.6807,0.1660,-0.7077,-0.0911,
2025-03-06 20:20:02.830,9.8200,-1.0000,0.1400,-1.1250,0.4375,0.4375,-0.6807,0.1660,-0.7077,-0.0911,
2025-03-06 20:20:02.849,9.8100,-1.0300,0.1800,-1.4375,0.8125,0.7500,-0.6806,0.1661,-0.7077,-0.0912,
2025-03-06 20:20:02.849,9.8100,-1.0700,0.1900,-1.8125,1.0625,0.5000,-0.6805,0.1662,-0.7078,-0.0913,
2025-03-06 20:20:02.849,9.8200,-1.0600,0.1900,-1.6250,1.1250,0.7500,-0.6804,0.1664,-0.7078,-0.0914,
2025-03-06 20:20:02.849,9.8000,-1.0900,0.1900,-1.3750,1.2500,0.8125,-0.6803,0.1665,-0.7079,-0.0914,
2025-03-06 20:20:02.859,9.7600,-0.9800,0.1000,-1.5625,1.0000,0.8750,-0.6802,0.1666,-0.7079,-0.0915,
2025-03-06 20:20:02.859,9.7500,-0.9800,0.1100,-2.1250,0.7500,0.7500,-0.6802,0.1667,-0.7079,-0.0916,
2025-03-06 20:20:02.879,9.7500,-0.9700,0.0700,-2.5625,0.9375,0.8125,-0.6801,0.1670,-0.7080,-0.0917,
2025-03-06 20:20:02.929,9.7600,-1.0300,0.0800,-3.5625,1.6250,1.0000,-0.6799,0.1672,-0.7080,-0.0919,
2025-03-06 20:20:02.929,9.7200,-1.2600,0.2300,-4.5625,2.0000,1.5000,-0.6798,0.1676,-0.7081,-0.0920,
2025-03-06 20:20:02.929,9.6800,-1.3000,0.3000,-4.0625,2.0000,1.9375,-0.6796,0.1679,-0.7081,-0.0922,
2025-03-06 20:20:02.929,9.7000,-1.3300,0.3800,-1.3125,1.7500,2.2500,-0.6794,0.1681,-0.7082,-0.0922,
2025-03-06 20:20:02.929,9.7300,-1.3100,0.3900,1.3750,1.5625,2.6250,-0.6793,0.1682,-0.7084,-0.0920,
2025-03-06 20:20:02.940,9.8800,-1.2300,0.2900,3.3125,1.7500,3.2500,-0.6792,0.1681,-0.7085,-0.0916,
2025-03-06 20:20:02.960,10.0000,-1.0500,0.2300,6.0000,2.2500,3.4375,-0.6789,0.1679,-0.7090,-0.0906,
2025-03-06 20:20:02.960,10.0000,-0.9600,0.2700,5.8125,3.5000,3.0625,-0.6787,0.1677,-0.7093,-0.0901,
2025-03-06 20:20:02.979,9.9800,-0.9800,0.3600,5.0000,5.0625,2.6875,-0.6784,0.1675,-0.7097,-0.0897,
2025-03-06 20:20:02.979,9.9500,-0.9500,0.3300,4.5000,6.8750,2.6250,-0.6780,0.1673,-0.7102,-0.0894,
2025-03-06 20:20:02.991,9.9600,-0.9400,0.3900,4.6875,9.3125,2.2500,-0.6774,0.1670,-0.7108,-0.0892,
2025-03-06 20:20:02.999,9.8800,-0.9700,0.5900,5.3125,11.4375,1.5000,-0.6767,0.1666,-0.7116,-0.0890,
2025-03-06 20:20:03.019,9.9000,-1.0400,0.6400,6.1250,13.4375,0.7500,-0.6759,0.1661,-0.7125,-0.0889,
2025-03-06 20:20:03.020,9.9000,-1.1100,0.6200,6.0000,15.3125,0.5000,-0.6750,0.1656,-0.7135,-0.0887,
2025-03-06 20:20:03.030,9.9200,-1.1800,0.6400,6.1875,16.7500,0.5000,-0.6740,0.1652,-0.7145,-0.0886,
2025-03-06 20:20:03.076,9.9100,-1.0700,0.6000,8.1250,17.1875,1.3125,-0.6720,0.1641,-0.7167,-0.0881,
2025-03-06 20:20:03.076,9.9000,-1.0000,0.5700,8.9375,17.8750,1.5625,-0.6710,0.1635,-0.7179,-0.0878,
2025-03-06 20:20:03.089,9.9000,-1.0000,0.5700,8.9375,19.0000,0.7500,-0.6699,0.1628,-0.7191,-0.0875,
2025-03-06 20:20:03.100,9.8700,-0.9900,0.6300,8.3750,21.4375,-0.1875,-0.6686,0.1621,-0.7205,-0.0873,
2025-03-06 20:20:03.100,9.9000,-1.0700,0.7200,6.8125,24.9375,-1.6875,-0.6672,0.1614,-0.7220,-0.0874,
2025-03-06 20:20:03.100,10.1000,-1.1900,0.8400,4.7500,27.6250,-2.6250,-0.6655,0.1607,-0.7236,-0.0877,
2025-03-06 20:20:03.120,10.1700,-1.2900,0.9000,3.6875,29.7500,-2.4375,-0.6638,0.1602,-0.7253,-0.0880,
2025-03-06 20:20:03.139,10.3100,-1.3300,0.9300,3.8750,31.0000,-1.5000,-0.6619,0.1596,-0.7271,-0.0883,
2025-03-06 20:20:03.139,10.4300,-1.3000,0.9800,5.6250,31.2500,-0.8125,-0.6600,0.1589,-0.7289,-0.0884,
2025-03-06 20:20:03.152,10.4900,-0.8400,1.1200,9.3125,33.8750,-2.3750,-0.6561,0.1572,-0.7327,-0.0886,
2025-03-06 20:20:03.169,10.2700,-0.6100,1.4800,8.9375,37.1250,-5.1250,-0.6540,0.1561,-0.7349,-0.0889,
2025-03-06 20:20:03.174,9.9900,-0.3000,1.6100,7.1875,39.1250,-7.2500,-0.6517,0.1550,-0.7371,-0.0895,
2025-03-06 20:20:03.219,9.9500,-0.3700,1.7300,3.0000,39.8750,-8.0000,-0.6493,0.1540,-0.7393,-0.0903,
2025-03-06 20:20:03.221,9.9800,-0.3600,1.7900,-3.9375,43.6875,-10.4375,-0.6440,0.1536,-0.7435,-0.0941,
2025-03-06 20:20:03.221,10.1100,-0.4300,1.7800,-6.2500,45.8750,-11.6875,-0.6412,0.1530,-0.7459,-0.0958,
2025-03-06 20:20:03.230,10.2000,-0.4600,1.7600,-7.5000,48.1875,-13.1875,-0.6382,0.1523,-0.7483,-0.0976,
2025-03-06 20:20:03.230,10.2300,-0.4900,1.8300,-8.6250,50.3125,-14.8125,-0.6352,0.1517,-0.7507,-0.0997,
2025-03-06 20:20:03.239,10.1200,-0.5300,2.0100,-9.1875,52.6250,-15.9375,-0.6319,0.1507,-0.7534,-0.1020,
2025-03-06 20:20:03.259,10.1700,-0.5800,2.1700,-8.2500,54.8125,-17.0625,-0.6284,0.1503,-0.7560,-0.1049,
2025-03-06 20:20:03.259,10.2200,-0.5800,2.2100,-7.5000,57.0000,-18.1250,-0.6249,0.1493,-0.7587,-0.1071,
2025-03-06 20:20:03.279,10.2900,-0.4900,2.2800,-8.3750,59.5000,-19.5000,-0.6213,0.1483,-0.7616,-0.1096,
2025-03-06 20:20:03.280,10.4600,-0.3400,2.4700,-11.1875,62.0625,-21.6250,-0.6174,0.1473,-0.7645,-0.1124,
2025-03-06 20:20:03.299,10.5600,-0.1200,2.5500,-15.1875,64.0000,-24.2500,-0.6135,0.1464,-0.7674,-0.1155,
2025-03-06 20:20:03.299,10.4600,0.0100,2.6300,-19.1250,67.4375,-26.5000,-0.6092,0.1456,-0.7704,-0.1190,
2025-03-06 20:20:03.310,10.1300,0.1300,3.0300,-23.4375,72.3125,-27.0000,-0.6046,0.1450,-0.7735,-0.1229,
2025-03-06 20:20:03.329,10.1000,-0.0200,3.2100,-27.3750,76.8750,-25.3125,-0.5995,0.1447,-0.7769,-0.1269,
2025-03-06 20:20:03.329,10.1400,-0.1500,3.3500,-31.1250,80.0000,-24.3750,-0.5943,0.1447,-0.7802,-0.1310,
2025-03-06 20:20:03.350,10.2000,-0.3000,3.5300,-35.0625,83.5625,-25.0625,-0.5887,0.1448,-0.7837,-0.1355,
2025-03-06 20:20:03.350,10.3300,-0.5000,3.7700,-39.3750,87.0000,-26.7500,-0.5827,0.1450,-0.7872,-0.1403,
2025-03-06 20:20:03.369,10.3100,-0.5000,3.9400,-43.0625,91.4375,-28.5000,-0.5765,0.1454,-0.7908,-0.1454,
2025-03-06 20:20:03.400,10.3300,-0.4600,4.0100,-44.5000,95.0625,-28.9375,-0.5699,0.1458,-0.7945,-0.1506,
2025-03-06 20:20:03.400,10.2100,-0.4600,4.0700,-44.8125,98.4375,-28.8750,-0.5631,0.1462,-0.7983,-0.1559,
2025-03-06 20:20:03.400,10.0200,-0.4200,4.2400,-42.7500,105.1250,-30.1250,-0.5486,0.1465,-0.8061,-0.1666,
2025-03-06 20:20:03.420,9.9900,-0.4000,4.3500,-41.5000,108.4375,-30.0625,-0.5410,0.1464,-0.8101,-0.1719,
2025-03-06 20:20:03.420,10.0500,-0.2500,4.5600,-41.0625,111.7500,-29.9375,-0.5331,0.1462,-0.8143,-0.1772,
2025-03-06 20:20:03.431,10.1100,-0.2300,4.7800,-42.3125,115.1250,-29.6875,-0.5249,0.1460,-0.8184,-0.1826,
2025-03-06 20:20:03.450,10.2000,-0.2100,4.8700,-44.6250,117.8125,-29.1250,-0.5164,0.1460,-0.8226,-0.1880,
2025-03-06 20:20:03.450,10.0600,-0.5200,5.0500,-48.0000,121.4375,-28.3750,-0.5075,0.1462,-0.8268,-0.1937,
2025-03-06 20:20:03.469,9.8900,-0.5600,5.0700,-51.8125,125.1250,-28.3750,-0.4982,0.1465,-0.8310,-0.1994,
2025-03-06 20:20:03.469,9.6100,-0.5700,5.0600,-53.6250,127.6250,-28.7500,-0.4886,0.1469,-0.8352,-0.2052,
2025-03-06 20:20:03.509,9.2600,-0.6800,5.2400,-54.3125,129.1875,-28.3750,-0.4789,0.1473,-0.8393,-0.2111,
2025-03-06 20:20:03.520,9.0300,-0.5600,5.3900,-52.8750,129.5000,-27.2500,-0.4691,0.1476,-0.8433,-0.2167,
2025-03-06 20:20:03.520,9.0400,-0.4300,5.5200,-51.8125,130.1875,-25.7500,-0.4591,0.1481,-0.8472,-0.2227,
2025-03-06 20:20:03.520,9.0500,-0.5600,5.6600,-53.1250,131.8750,-23.0625,-0.4489,0.1486,-0.8511,-0.2280,
2025-03-06 20:20:03.560,8.9400,-1.1000,5.7400,-56.2500,134.0625,-20.8750,-0.4384,0.1492,-0.8550,-0.2333,
2025-03-06 20:20:03.560,8.7400,-1.2300,5.8400,-54.1250,137.2500,-20.3125,-0.4276,0.1497,-0.8590,-0.2385,
2025-03-06 20:20:03.560,8.5500,-1.2100,5.9400,-50.1875,139.5000,-19.6250,-0.4167,0.1498,-0.8629,-0.2435,
2025-03-06 20:20:03.560,8.3800,-1.1700,6.1000,-45.2500,139.8125,-20.0000,-0.4058,0.1497,-0.8667,-0.2487,
2025-03-06 20:20:03.569,8.0900,-1.1900,6.4400,-38.6250,138.3125,-19.8750,-0.3950,0.1489,-0.8704,-0.2532,
2025-03-06 20:20:03.579,7.9500,-1.1700,6.5900,-30.6250,137.4375,-19.1875,-0.3845,0.1476,-0.8742,-0.2573,
2025-03-06 20:20:03.589,7.7000,-0.9800,6.7700,-24.6875,137.8125,-18.1875,-0.3740,0.1458,-0.8779,-0.2612,
2025-03-06 20:20:03.596,7.5200,-0.9300,6.8700,-22.8750,138.6875,-16.6250,-0.3633,0.1439,-0.8815,-0.2648,
2025-03-06 20:20:03.600,7.4300,-0.8200,7.0100,-22.3125,140.8125,-13.9375,-0.3525,0.1420,-0.8852,-0.2684,
2025-03-06 20:20:03.619,7.4000,-0.9200,7.1800,-24.2500,144.6875,-12.1875,-0.3412,0.1402,-0.8889,-0.2717,
2025-03-06 20:20:03.640,7.4500,-1.1300,7.3500,-29.8125,146.6875,-12.1875,-0.3296,0.1387,-0.8924,-0.2753,
2025-03-06 20:20:03.640,7.4900,-1.7100,7.6800,-31.8750,146.4375,-11.6875,-0.3180,0.1373,-0.8957,-0.2787,
2025-03-06 20:20:03.650,7.1700,-1.7000,7.8100,-25.0625,145.0000,-9.2500,-0.3065,0.1356,-0.8991,-0.2817,
2025-03-06 20:20:03.650,6.7300,-1.5500,7.8800,-13.1250,143.9375,-8.3125,-0.2950,0.1336,-0.9017,-0.2864,
2025-03-06 20:20:03.669,6.3800,-1.4000,7.9700,-1.8125,143.5000,-9.5000,-0.2841,0.1300,-0.9050,-0.2888,
2025-03-06 20:20:03.669,6.0900,-1.0700,8.0100,5.7500,143.1875,-10.5000,-0.2734,0.1258,-0.9082,-0.2910,
2025-03-06 20:20:03.680,6.0900,-0.9100,8.0400,9.4375,142.8750,-9.9375,-0.2628,0.1213,-0.9112,-0.2930,
2025-03-06 20:20:03.691,6.1400,-0.8100,7.9800,9.5000,142.7500,-8.8125,-0.2521,0.1169,-0.9142,-0.2949,
2025-03-06 20:20:03.700,5.8700,-0.7800,8.0000,9.8750,143.5000,-6.6875,-0.2413,0.1124,-0.9171,-0.2967,
2025-03-06 20:20:03.711,5.7900,-0.6400,7.9500,10.2500,142.9375,-5.0625,-0.2305,0.1079,-0.9199,-0.2983,
2025-03-06 20:20:03.720,5.5600,-0.5000,8.0200,9.8750,141.6250,-4.1250,-0.2198,0.1035,-0.9226,-0.2997,
2025-03-06 20:20:03.740,5.2300,-0.6700,8.1500,7.6250,140.9375,-3.5000,-0.2090,0.0992,-0.9251,-0.3010,
2025-03-06 20:20:03.740,4.9700,-0.8600,8.3800,7.1875,139.8125,-4.6250,-0.1983,0.0950,-0.9275,-0.3024,
2025-03-06 20:20:03.749,4.6400,-0.8400,8.6000,8.7500,137.8125,-5.3750,-0.1877,0.0908,-0.9296,-0.3038,
2025-03-06 20:20:03.769,4.3200,-0.8500,8.7700,9.5625,136.7500,-6.5000,-0.1773,0.0864,-0.9316,-0.3052,
2025-03-06 20:20:03.770,3.8900,-1.2900,8.7400,11.2500,135.9375,-5.5625,-0.1669,0.0819,-0.9335,-0.3065,
2025-03-06 20:20:03.819,3.8900,-1.4200,8.5300,16.3750,134.7500,-2.8125,-0.1567,0.0771,-0.9354,-0.3074,
2025-03-06 20:20:03.819,3.8400,-1.3100,8.4300,24.6875,132.4375,-0.7500,-0.1469,0.0717,-0.9373,-0.3079,
2025-03-06 20:20:03.819,3.8000,-1.1200,8.4600,32.9375,130.5625,-1.0625,-0.1374,0.0657,-0.9390,-0.3084,
2025-03-06 20:20:03.819,3.6900,-0.5700,8.6100,37.6250,127.5000,-1.0625,-0.1282,0.0593,-0.9406,-0.3088,
2025-03-06 20:20:03.819,3.6100,-0.3700,8.5900,38.9375,124.4375,-0.1875,-0.1194,0.0530,-0.9421,-0.3090,
2025-03-06 20:20:03.840,3.3700,-0.1700,8.5600,38.2500,122.3750,-0.3750,-0.1107,0.0468,-0.9434,-0.3091,
2025-03-06 20:20:03.840,2.7800,-0.0500,8.6400,37.4375,121.8125,-1.1250,-0.1019,0.0405,-0.9446,-0.3093,
2025-03-06 20:20:03.859,2.5100,0.1700,8.7300,36.2500,119.8125,-1.1250,-0.0933,0.0346,-0.9454,-0.3104,
2025-03-06 20:20:03.859,2.3800,0.0800,8.7700,32.6250,116.4375,-0.9375,-0.0848,0.0289,-0.9463,-0.3105,
2025-03-06 20:20:03.880,2.2200,0.0000,8.7100,31.7500,113.6875,-0.4375,-0.0765,0.0234,-0.9472,-0.3105,
2025-03-06 20:20:03.880,1.9700,0.0100,8.6700,30.1250,112.1250,-1.4375,-0.0684,0.0181,-0.9479,-0.3107,
2025-03-06 20:20:03.899,1.7700,0.1000,8.6800,26.0625,110.1250,-2.7500,-0.0602,0.0131,-0.9485,-0.3109,
2025-03-06 20:20:03.901,1.5000,0.0600,8.7900,19.8125,107.9375,-4.5625,-0.0521,0.0086,-0.9487,-0.3116,
2025-03-06 20:20:03.921,1.0500,-0.2500,8.6500,16.1250,105.3125,-4.8125,-0.0441,0.0045,-0.9490,-0.3120,
2025-03-06 20:20:03.940,0.9100,-0.4000,8.7000,16.0000,101.8750,-3.7500,-0.0364,0.0005,-0.9493,-0.3123,
2025-03-06 20:20:03.940,0.7500,-0.3200,8.7800,18.3750,98.5000,-2.5625,-0.0289,-0.0035,-0.9495,-0.3124,
2025-03-06 20:20:03.950,0.6700,-0.1000,8.7900,23.5000,95.3750,-1.6875,-0.0219,-0.0079,-0.9496,-0.3125,
2025-03-06 20:20:03.950,0.8000,0.3600,8.7800,25.4375,92.8750,-1.3125,-0.0151,-0.0125,-0.9496,-0.3128,
2025-03-06 20:20:03.960,0.5300,0.6500,8.8200,23.8750,91.4375,-0.3125,-0.0084,-0.0168,-0.9497,-0.3127,
2025-03-06 20:20:03.976,0.0600,0.5700,8.8400,20.7500,90.1250,0.1875,-0.0018,-0.0208,-0.9497,-0.3125,
2025-03-06 20:20:03.979,-0.5100,-0.0400,8.7900,17.8125,87.8125,-2.1250,0.0048,-0.0245,-0.9496,-0.3125,
2025-03-06 20:20:03.999,-0.6200,-0.3600,8.8800,18.6250,83.2500,-3.8125,0.0110,-0.0283,-0.9494,-0.3126,
2025-03-06 20:20:03.999,-0.5500,-0.1200,8.8500,25.0625,77.8125,-2.8125,0.0165,-0.0323,-0.9486,-0.3145,
2025-03-06 20:20:04.030,-0.3900,0.2100,8.7300,31.9375,72.4375,-0.5000,0.0215,-0.0369,-0.9483,-0.3144,
2025-03-06 20:20:04.030,-0.5100,0.5400,8.5400,31.8125,69.5625,1.4375,0.0262,-0.0413,-0.9481,-0.3141,
2025-03-06 20:20:04.030,-0.6300,0.6800,8.4500,25.9375,68.6875,0.3125,0.0311,-0.0452,-0.9479,-0.3139,
2025-03-06 20:20:04.051,-0.7400,0.7100,8.4400,19.1250,67.5625,-1.1875,0.0359,-0.0485,-0.9476,-0.3138,
2025-03-06 20:20:04.053,-0.8300,0.2700,8.3400,15.6250,65.6875,-2.2500,0.0408,-0.0515,-0.9471,-0.3140,
2025-03-06 20:20:04.070,-0.9100,-0.0800,8.2800,14.3125,61.3125,-2.5000,0.0454,-0.0542,-0.9468,-0.3140,
2025-03-06 20:20:04.129,-1.1900,0.5300,8.4100,14.0625,56.9375,-1.5625,0.0495,-0.0569,-0.9465,-0.3139,
2025-03-06 20:20:04.129,-1.4400,1.3600,8.3100,13.8750,53.1875,1.4375,0.0534,-0.0594,-0.9462,-0.3136,
2025-03-06 20:20:04.129,-1.7400,1.1400,8.1700,6.3750,49.3750,0.6250,0.0572,-0.0612,-0.9460,-0.3133,
2025-03-06 20:20:04.129,-1.5500,0.9200,8.1800,2.3750,47.6875,-2.6875,0.0609,-0.0627,-0.9455,-0.3137,
2025-03-06 20:20:04.129,-1.5500,0.6300,8.1400,-2.8750,44.5625,-5.2500,0.0646,-0.0636,-0.9451,-0.3138,
2025-03-06 20:20:04.129,-1.8400,0.1400,8.1200,-5.5000,41.8125,-5.4375,0.0681,-0.0642,-0.9448,-0.3140,
2025-03-06 20:20:04.132,-1.8600,0.1900,8.1600,-4.7500,37.8125,-4.9375,0.0713,-0.0648,-0.9445,-0.3142,
2025-03-06 20:20:04.149,-1.7600,0.3900,8.1400,-3.0625,32.6250,-3.1250,0.0740,-0.0654,-0.9442,-0.3142,
2025-03-06 20:20:04.159,-1.7200,0.5400,8.1500,-1.6875,28.1250,-0.8750,0.0762,-0.0661,-0.9438,-0.3147,
2025-03-06 20:20:04.159,-1.8400,0.8600,8.1400,-2.3750,25.1250,0.5000,0.0783,-0.0665,-0.9437,-0.3145,
2025-03-06 20:20:04.170,-2.0100,0.7700,8.1000,-5.5625,24.1875,0.8750,0.0804,-0.0668,-0.9436,-0.3143,
2025-03-06 20:20:04.190,-2.1300,0.3500,7.9300,-9.3750,22.7500,-0.1875,0.0825,-0.0666,-0.9435,-0.3141,
2025-03-06 20:20:04.190,-2.2700,-0.0100,7.4300,-10.0000,21.0000,-0.2500,0.0844,-0.0663,-0.9434,-0.3139,
2025-03-06 20:20:04.202,-2.2500,0.2700,7.6100,-8.9375,18.6250,2.0625,0.0861,-0.0662,-0.9433,-0.3136,
2025-03-06 20:20:04.210,-2.0200,0.6700,8.2400,-9.0000,12.3750,5.0625,0.0873,-0.0658,-0.9434,-0.3131,
2025-03-06 20:20:04.222,-1.6600,0.7300,8.8300,-9.9375,3.7500,7.3125,0.0878,-0.0652,-0.9436,-0.3124,
2025-03-06 20:20:04.230,-1.7300,0.7000,8.7400,-11.0000,-2.0625,6.8750,0.0879,-0.0643,-0.9439,-0.3118,
2025-03-06 20:20:04.241,-2.2300,0.5800,8.6900,-15.1875,0.4375,6.7500,0.0883,-0.0631,-0.9442,-0.3111,
2025-03-06 20:20:04.253,-2.5900,0.1200,8.9400,-23.4375,5.1875,4.8125,0.0893,-0.0614,-0.9444,-0.3104,
2025-03-06 20:20:04.259,-2.0700,-0.8900,8.8900,-22.3750,4.6250,2.3750,0.0902,-0.0598,-0.9446,-0.3100,
2025-03-06 20:20:04.290,-2.2200,-1.0300,9.0000,-10.4375,1.9375,5.3750,0.0906,-0.0590,-0.9447,-0.3094,
2025-03-06 20:20:04.312,-2.1900,-0.4500,9.1900,2.5000,-1.3750,9.1875,0.0904,-0.0593,-0.9450,-0.3088,
2025-03-06 20:20:04.319,-2.0400,-0.1900,9.4000,0.3125,-11.3750,10.2500,0.0894,-0.0591,-0.9453,-0.3080,
2025-03-06 20:20:04.319,-1.1100,0.9100,8.4200,-0.5625,-15.2500,7.6250,0.0882,-0.0587,-0.9456,-0.3075,
2025-03-06 20:20:04.320,-2.6200,0.8600,8.5100,-4.6875,-16.0625,5.0625,0.0870,-0.0580,-0.9459,-0.3071,
2025-03-06 20:20:04.329,-2.3600,0.9400,8.4600,-13.0625,-17.2500,4.5000,0.0859,-0.0565,-0.9462,-0.3068,
2025-03-06 20:20:04.329,-2.0600,0.3200,9.0600,-9.4375,-15.8125,2.5625,0.0849,-0.0554,-0.9464,-0.3066,
2025-03-06 20:20:04.349,-2.0300,0.0800,9.2000,-6.0625,-20.0625,1.8125,0.0834,-0.0543,-0.9467,-0.3065,
2025-03-06 20:20:04.370,-1.8700,0.1900,9.3900,-2.2500,-20.8125,2.2500,0.0818,-0.0537,-0.9467,-0.3070,
2025-03-06 20:20:04.370,-1.4100,0.3100,9.5500,-3.1250,-23.5625,3.2500,0.0800,-0.0529,-0.9469,-0.3068,
2025-03-06 20:20:04.370,-1.5500,0.0100,9.4300,-6.4375,-26.8125,3.3125,0.0780,-0.0516,-0.9472,-0.3066,
2025-03-06 20:20:04.431,-1.7500,0.0700,9.3500,-7.5000,-25.2500,2.1875,0.0761,-0.0504,-0.9475,-0.3065,
2025-03-06 20:20:04.431,-1.8100,0.0500,9.1200,-8.1250,-24.4375,1.0625,0.0744,-0.0491,-0.9477,-0.3065,
2025-03-06 20:20:04.433,-1.7100,-0.1000,8.8700,-4.6875,-24.7500,3.6875,0.0725,-0.0482,-0.9479,-0.3064,
2025-03-06 20:20:04.433,-1.5800,0.0600,8.9700,-4.6875,-24.7500,3.6875,0.0706,-0.0472,-0.9482,-0.3062,
2025-03-06 20:20:04.433,-1.4200,0.1400,9.1200,-2.7500,-26.3125,6.2500,0.0685,-0.0463,-0.9485,-0.3058,
2025-03-06 20:20:04.439,-1.2700,0.2300,9.4000,-1.7500,-29.8125,8.0625,0.0662,-0.0454,-0.9489,-0.3052,
2025-03-06 20:20:04.440,-0.8000,0.3100,9.6000,-1.4375,-34.6250,7.9375,0.0634,-0.0445,-0.9493,-0.3047,
2025-03-06 20:20:04.451,-0.7300,0.2600,9.4300,-5.8750,-37.5625,5.5000,0.0605,-0.0430,-0.9496,-0.3044,
2025-03-06 20:20:04.470,-1.0200,0.1000,9.0100,-5.8750,-37.5625,5.5000,0.0576,-0.0416,-0.9500,-0.3041,
2025-03-06 20:20:04.470,-1.2500,-0.0300,8.6700,-8.8750,-33.7500,5.0625,0.0551,-0.0401,-0.9503,-0.3037,
2025-03-06 20:20:04.490,-1.3300,-0.3100,8.5800,-12.0625,-33.6875,5.6250,0.0527,-0.0383,-0.9507,-0.3033,
2025-03-06 20:20:04.490,-1.2300,-0.3100,8.8700,-7.8125,-41.3750,11.2500,0.0496,-0.0366,-0.9512,-0.3025,
2025-03-06 20:20:04.509,-0.8800,-0.1400,9.1900,-6.2500,-48.1250,12.6875,0.0458,-0.0350,-0.9517,-0.3015,
2025-03-06 20:20:04.509,-0.3200,-0.2100,9.3800,-6.2500,-48.1250,12.6875,0.0421,-0.0333,-0.9522,-0.3006,
2025-03-06 20:20:04.539,-0.5000,-0.1400,9.1000,-6.6250,-50.1875,12.4375,0.0381,-0.0315,-0.9527,-0.2997,
2025-03-06 20:20:04.539,-0.6500,0.0300,8.8600,-19.9375,-50.1250,10.1250,0.0346,-0.0286,-0.9532,-0.2990,
2025-03-06 20:20:04.539,-0.8000,0.0600,8.6600,-24.9375,-52.8750,10.0000,0.0309,-0.0253,-0.9537,-0.2982,
2025-03-06 20:20:04.589,-0.7400,-0.2000,8.6100,-24.6875,-57.5625,11.4375,0.0269,-0.0219,-0.9542,-0.2973,
2025-03-06 20:20:04.591,-0.1500,-0.2500,8.3900,-23.1250,-61.7500,12.0000,0.0225,-0.0186,-0.9546,-0.2964,
2025-03-06 20:20:04.591,0.1000,-0.1700,8.3600,-22.1875,-61.5625,12.4375,0.0181,-0.0152,-0.9551,-0.2954,
2025-03-06 20:20:04.591,0.1300,0.1700,8.6500,-23.7500,-62.8125,12.1250,0.0135,-0.0117,-0.9555,-0.2945,
2025-03-06 20:20:04.591,0.2900,0.0900,8.7200,-27.5625,-66.2500,10.6250,0.0089,-0.0079,-0.9558,-0.2936,
2025-03-06 20:20:04.600,0.3300,-0.0400,8.6900,-31.2500,-67.6250,9.2500,0.0042,-0.0037,-0.9560,-0.2933,
2025-03-06 20:20:04.610,0.1900,-0.1600,8.7200,-35.6250,-68.5625,8.3125,-0.0005,0.0009,-0.9562,-0.2927,
2025-03-06 20:20:04.632,0.2000,-0.7100,8.5400,-38.4375,-70.9375,8.3750,-0.0052,0.0057,-0.9564,-0.2920,
2025-03-06 20:20:04.632,0.2100,-0.9200,8.5200,-38.1250,-73.5625,9.6250,-0.0103,0.0106,-0.9566,-0.2911,
2025-03-06 20:20:04.649,0.4100,-0.8700,8.5800,-37.4375,-77.8125,12.5000,-0.0156,0.0156,-0.9567,-0.2901,
2025-03-06 20:20:04.649,1.3100,-0.4700,8.9100,-38.3125,-81.5000,13.1875,-0.0212,0.0207,-0.9568,-0.2894,
2025-03-06 20:20:04.670,1.4200,-0.5300,9.2200,-38.0000,-81.3125,12.3750,-0.0269,0.0258,-0.9568,-0.2883,
2025-03-06 20:20:04.670,1.4400,-0.6100,9.4500,-37.5000,-81.3750,11.1875,-0.0325,0.0308,-0.9568,-0.2873,
2025-03-06 20:20:04.740,1.3200,-0.8800,9.5600,-35.6875,-82.5625,10.0625,-0.0383,0.0358,-0.9567,-0.2864,
2025-03-06 20:20:04.740,1.0700,-1.4500,9.2600,-30.3750,-84.0625,9.5000,-0.0443,0.0403,-0.9565,-0.2854,
2025-03-06 20:20:04.740,0.8000,-1.3600,9.0600,-25.0625,-88.3125,10.1250,-0.0508,0.0444,-0.9564,-0.2841,
2025-03-06 20:20:04.740,0.7500,-1.1000,8.9400,-19.7500,-94.6875,12.6875,-0.0579,0.0484,-0.9562,-0.2828,
2025-03-06 20:20:04.740,1.9900,-0.3400,8.6900,-18.5000,-101.6875,13.7500,-0.0656,0.0524,-0.9559,-0.2814,
2025-03-06 20:20:04.740,2.5100,-0.3500,8.4300,-24.5000,-101.4375,10.7500,-0.0732,0.0568,-0.9555,-0.2802,
2025-03-06 20:20:04.740,3.4400,-0.3200,8.2300,-29.4375,-94.1250,6.6875,-0.0801,0.0615,-0.9549,-0.2794,
2025-03-06 20:20:04.750,3.0600,-0.3700,8.4200,-38.3125,-96.3750,3.3125,-0.0870,0.0668,-0.9542,-0.2784,
2025-03-06 20:20:04.761,3.1000,-0.8600,8.6100,-39.3750,-101.1875,2.6250,-0.0942,0.0724,-0.9532,-0.2779,
2025-03-06 20:20:04.771,3.0600,-1.0200,8.6500,-36.3750,-105.0000,4.0000,-0.1017,0.0778,-0.9522,-0.2772,
2025-03-06 20:20:04.781,2.8500,-0.9600,8.7800,-33.8750,-108.7500,6.2500,-0.1096,0.0831,-0.9512,-0.2763,
2025-03-06 20:20:04.810,2.9200,-0.7000,9.1000,-34.4375,-115.9375,8.3125,-0.1181,0.0887,-0.9500,-0.2751,
2025-03-06 20:20:04.810,3.6800,-0.9100,8.3900,-41.8750,-120.0000,7.0000,-0.1267,0.0949,-0.9486,-0.2740,
2025-03-06 20:20:04.810,2.5200,-0.6600,8.0300,-53.8750,-110.0625,2.9375,-0.1342,0.1018,-0.9470,-0.2735,
2025-03-06 20:20:04.831,1.2000,-0.4000,8.1200,-61.1875,-105.6875,0.1875,-0.1412,0.1091,-0.9452,-0.2733,
2025-03-06 20:20:04.881,5.1000,-1.8500,7.8000,-72.5625,-124.3750,-11.7500,-0.1496,0.1177,-0.9427,-0.2739,
2025-03-06 20:20:04.881,4.1900,-2.0200,8.3800,-54.8750,-115.0625,-4.9375,-0.1575,0.1246,-0.9406,-0.2739,
2025-03-06 20:20:04.881,4.1100,-2.3500,8.7200,-41.0000,-116.1875,-0.8125,-0.1659,0.1305,-0.9386,-0.2728,
2025-03-06 20:20:04.881,3.8400,-2.0700,9.1000,-27.6875,-122.2500,0.3125,-0.1749,0.1355,-0.9366,-0.2718,
2025-03-06 20:20:04.881,4.4300,-1.8700,9.1200,-19.5000,-130.1875,-0.5625,-0.1848,0.1400,-0.9344,-0.2706,
2025-03-06 20:20:04.881,5.3400,-1.8900,8.1900,-19.2500,-130.4375,-3.4375,-0.1946,0.1445,-0.9319,-0.2697,
2025-03-06 20:20:04.902,5.4100,-1.9800,7.6400,-27.0000,-120.0000,-5.6875,-0.2036,0.1492,-0.9295,-0.2690,
2025-03-06 20:20:04.902,5.0800,-1.6600,7.6500,-30.9375,-115.1250,-7.1250,-0.2120,0.1541,-0.9269,-0.2685,
2025-03-06 20:20:04.912,5.1800,-1.8900,7.7800,-28.0625,-116.1875,-7.8125,-0.2205,0.1588,-0.9243,-0.2681,
2025-03-06 20:20:04.930,5.3100,-2.1500,7.9600,-21.0625,-118.3125,-5.0625,-0.2294,0.1630,-0.9216,-0.2673,
2025-03-06 20:20:04.949,5.1600,-2.1500,8.3700,-16.3750,-118.5000,-2.8125,-0.2383,0.1669,-0.9190,-0.2661,
2025-03-06 20:20:04.949,5.1600,-2.1000,8.6000,-16.3125,-121.3125,-0.7500,-0.2473,0.1708,-0.9163,-0.2648,
2025-03-06 20:20:04.960,6.0500,-1.9700,8.6100,-16.1875,-128.3750,0.8750,-0.2568,0.1750,-0.9132,-0.2634,
2025-03-06 20:20:04.969,6.9700,-2.2700,7.5600,-19.3750,-127.1250,-0.3125,-0.2662,0.1794,-0.9102,-0.2619,
2025-03-06 20:20:04.979,6.2300,-2.8100,6.7200,-24.1250,-116.5625,-2.6250,-0.2746,0.1837,-0.9071,-0.2609,
2025-03-06 20:20:05.019,6.5100,-2.8500,6.6800,-14.1875,-117.4375,-4.0000,-0.2834,0.1873,-0.9040,-0.2597,
2025-03-06 20:20:05.019,7.2100,-3.1100,6.8100,3.3750,-121.7500,-2.9375,-0.2928,0.1896,-0.9010,-0.2579,
2025-03-06 20:20:05.019,7.4200,-3.1800,7.5400,18.8750,-120.8125,0.9375,-0.3025,0.1906,-0.8985,-0.2548,
2025-03-06 20:20:05.019,7.1400,-2.6200,7.6500,30.1875,-119.3125,5.1875,-0.3121,0.1910,-0.8960,-0.2517,
2025-03-06 20:20:05.026,7.0100,-2.0600,7.5700,34.1250,-121.4375,8.3750,-0.3218,0.1912,-0.8935,-0.2482,
2025-03-06 20:20:05.036,7.2700,-1.3700,7.5900,32.3750,-127.5000,12.0000,-0.3319,0.1918,-0.8907,-0.2443,
2025-03-06 20:20:05.049,8.3900,-0.6700,6.3200,23.5625,-129.6875,13.1250,-0.3419,0.1931,-0.8877,-0.2405,
2025-03-06 20:20:05.049,8.0600,-0.7400,5.9700,10.3750,-120.4375,8.8125,-0.3511,0.1947,-0.8847,-0.2369,
2025-03-06 20:20:05.072,7.7400,-0.8900,5.8700,2.3125,-117.6875,5.2500,-0.3599,0.1970,-0.8813,-0.2346,
2025-03-06 20:20:05.072,7.9700,-1.2100,5.8500,0.8750,-119.9375,4.6875,-0.3688,0.1995,-0.8777,-0.2322,
2025-03-06 20:20:05.088,8.6300,-2.0600,6.4100,1.0000,-120.1875,6.4375,-0.3776,0.2020,-0.8740,-0.2296,
2025-03-06 20:20:05.090,8.6100,-2.2800,6.6200,3.9375,-119.2500,8.5000,-0.3863,0.2042,-0.8704,-0.2268,
2025-03-06 20:20:05.101,8.3600,-2.3000,6.7100,7.3125,-118.6875,9.2500,-0.3952,0.2059,-0.8670,-0.2230,
2025-03-06 20:20:05.110,9.0500,-1.8200,6.2600,8.6250,-122.4375,11.0000,-0.4041,0.2080,-0.8632,-0.2198,
2025-03-06 20:20:05.120,9.5800,-1.8300,5.5700,6.3125,-125.2500,12.0000,-0.4131,0.2102,-0.8592,-0.2165,
2025-03-06 20:20:05.131,9.4200,-1.8300,5.1100,0.8750,-119.9375,7.8750,-0.4216,0.2126,-0.8552,-0.2137,
2025-03-06 20:20:05.140,8.8000,-1.9000,5.0800,-1.2500,-114.2500,3.1250,-0.4298,0.2148,-0.8511,-0.2115,
2025-03-06 20:20:05.151,8.2000,-2.2200,5.0500,5.4375,-113.5625,2.1875,-0.4386,0.2153,-0.8477,-0.2067,
2025-03-06 20:20:05.160,8.3600,-2.6400,5.0400,13.6250,-114.3125,3.5625,-0.4470,0.2164,-0.8437,-0.2038,
2025-03-06 20:20:05.179,8.5500,-2.9500,5.0900,20.6875,-113.0625,4.3750,-0.4553,0.2170,-0.8399,-0.2006,
2025-03-06 20:20:05.180,8.6300,-2.7200,5.3900,27.2500,-109.8750,4.1875,-0.4634,0.2172,-0.8362,-0.1973,
2025-03-06 20:20:05.190,8.4900,-2.2800,5.4000,32.7500,-108.3125,4.9375,-0.4715,0.2168,-0.8326,-0.1936,
2025-03-06 20:20:05.210,8.6400,-1.7000,5.3700,32.4375,-109.5625,6.3750,-0.4799,0.2160,-0.8291,-0.1888,
2025-03-06 20:20:05.210,9.1800,-1.6300,5.0600,28.5625,-112.5625,8.8125,-0.4880,0.2161,-0.8252,-0.1850,
2025-03-06 20:20:05.229,10.2700,-1.3700,4.1200,23.3750,-112.5000,8.5625,-0.4960,0.2166,-0.8210,-0.1814,
2025-03-06 20:20:05.229,10.2900,-1.4600,3.8900,17.2500,-108.1250,7.2500,-0.5037,0.2173,-0.8169,-0.1782,
2025-03-06 20:20:05.250,10.0700,-1.5900,3.8600,11.6250,-105.0625,4.8125,-0.5110,0.2183,-0.8127,-0.1754,
2025-03-06 20:20:05.250,10.1100,-1.8700,3.8600,12.5000,-104.8125,3.6250,-0.5188,0.2179,-0.8088,-0.1707,
2025-03-06 20:20:05.260,10.1900,-1.9900,3.9100,17.8750,-104.9375,3.2500,-0.5261,0.2183,-0.8046,-0.1678,
2025-03-06 20:20:05.319,10.2200,-2.0700,3.8600,25.9375,-103.2500,3.6250,-0.5335,0.2182,-0.8005,-0.1644,
2025-03-06 20:20:05.319,10.3400,-2.1500,3.7700,33.0000,-100.6250,4.0000,-0.5406,0.2175,-0.7966,-0.1608,
2025-03-06 20:20:05.349,10.2800,-1.3600,3.7700,35.0625,-99.0625,4.8125,-0.5477,0.2167,-0.7927,-0.1571,
2025-03-06 20:20:05.349,10.7100,-1.0100,3.6000,29.3125,-100.7500,5.8750,-0.5547,0.2164,-0.7887,-0.1534,
2025-03-06 20:20:05.349,10.5400,-0.8000,3.3100,25.0000,-99.4375,6.6875,-0.5614,0.2163,-0.7845,-0.1500,
2025-03-06 20:20:05.349,9.9300,-1.2300,3.0900,19.9375,-93.1875,4.3125,-0.5678,0.2163,-0.7805,-0.1471,
2025-03-06 20:20:05.349,9.8900,-1.4300,3.0600,15.4375,-92.3750,0.9375,-0.5741,0.2165,-0.7763,-0.1446,
2025-03-06 20:20:05.349,10.1800,-1.5300,3.0000,16.8125,-91.8750,0.1875,-0.5803,0.2165,-0.7722,-0.1421,
2025-03-06 20:20:05.349,10.3800,-1.5300,3.0800,20.4375,-88.1875,1.8125,-0.5864,0.2159,-0.7683,-0.1387,
2025-03-06 20:20:05.361,10.4400,-1.2900,3.3100,24.1250,-82.0625,4.5625,-0.5919,0.2155,-0.7647,-0.1357,
2025-03-06 20:20:05.373,10.3800,-1.1100,3.3500,26.9375,-75.2500,5.8125,-0.5969,0.2149,-0.7615,-0.1326,
2025-03-06 20:20:05.384,10.3300,-1.0100,3.3500,25.4375,-70.0000,5.3125,-0.6016,0.2143,-0.7585,-0.1298,
2025-03-06 20:20:05.390,10.2900,-0.8300,2.9000,18.8750,-66.3750,3.9375,-0.6060,0.2140,-0.7555,-0.1273,
2025-03-06 20:20:05.399,10.2300,-0.9800,2.5300,10.7500,-62.3750,2.3750,-0.6100,0.2142,-0.7525,-0.1255,
2025-03-06 20:20:05.411,10.1600,-1.1800,2.1300,4.5625,-57.4375,1.8750,-0.6136,0.2146,-0.7496,-0.1242,
2025-03-06 20:20:05.439,10.0100,-1.2600,1.8300,0.2500,-52.3125,2.1250,-0.6169,0.2153,-0.7469,-0.1231,
2025-03-06 20:20:05.439,10.2000,-1.6300,1.6000,-2.1875,-47.4375,2.1250,-0.6199,0.2160,-0.7444,-0.1222,
2025-03-06 20:20:05.439,10.2100,-1.5900,1.5800,-1.9375,-42.0625,1.5000,-0.6225,0.2166,-0.7422,-0.1215,
2025-03-06 20:20:05.452,10.3100,-1.6400,1.6800,-0.1250,-35.9375,1.1875,-0.6247,0.2170,-0.7403,-0.1207,
2025-03-06 20:20:05.459,10.5000,-1.5000,1.8300,2.1875,-30.7500,0.2500,-0.6267,0.2172,-0.7387,-0.1201,
2025-03-06 20:20:05.473,10.5200,-1.4400,1.8000,4.9375,-26.2500,-1.0625,-0.6283,0.2172,-0.7374,-0.1193,
2025-03-06 20:20:05.481,10.3400,-1.4600,1.6600,6.9375,-21.0000,-3.1875,-0.6298,0.2167,-0.7364,-0.1188,
2025-03-06 20:20:05.490,10.0000,-1.5100,1.3900,7.4375,-16.5000,-4.7500,-0.6310,0.2162,-0.7356,-0.1184,
2025-03-06 20:20:05.510,9.5700,-1.4400,1.0800,5.9375,-14.8750,-5.1875,-0.6320,0.2160,-0.7348,-0.1185,
2025-03-06 20:20:05.510,9.6300,-1.3600,1.0400,3.5000,-15.3750,-5.2500,-0.6330,0.2156,-0.7340,-0.1183,
2025-03-06 20:20:05.521,9.7400,-1.4200,1.1200,1.2500,-15.3750,-5.5000,-0.6341,0.2155,-0.7331,-0.1183,
2025-03-06 20:20:05.540,9.8400,-1.6000,1.3700,2.0625,-11.9375,-6.3125,-0.6350,0.2151,-0.7325,-0.1184,
2025-03-06 20:20:05.540,9.7400,-1.7600,1.2800,4.9375,-7.4375,-7.1875,-0.6356,0.2145,-0.7321,-0.1185,
2025-03-06 20:20:05.560,9.6200,-1.7700,1.0300,7.6875,-4.2500,-7.9375,-0.6364,0.2127,-0.7321,-0.1174,
2025-03-06 20:20:05.560,9.4700,-1.7700,0.7800,9.0625,-4.1250,-7.9375,-0.6369,0.2117,-0.7319,-0.1174,
2025-03-06 20:20:05.573,9.3700,-1.7400,0.3500,8.0625,-5.7500,-6.9375,-0.6375,0.2109,-0.7317,-0.1173,
2025-03-06 20:20:05.612,9.4200,-1.7000,0.3700,6.3750,-7.8125,-6.0625,-0.6381,0.2103,-0.7313,-0.1171,
2025-03-06 20:20:05.630,9.4900,-1.7000,0.4600,3.9375,-8.4375,-5.2500,-0.6388,0.2098,-0.7309,-0.1171,
2025-03-06 20:20:05.630,9.5100,-1.6800,0.6000,0.9375,-6.6875,-4.4375,-0.6392,0.2097,-0.7305,-0.1174,
2025-03-06 20:20:05.630,9.4600,-1.7000,0.7100,-1.6875,-4.8125,-3.7500,-0.6396,0.2097,-0.7302,-0.1176,
2025-03-06 20:20:05.630,9.4700,-1.6300,0.7000,-2.8750,-4.5000,-2.6875,-0.6399,0.2098,-0.7298,-0.1179,
2025-03-06 20:20:05.630,9.4900,-1.5900,0.6700,-3.0000,-5.3125,-2.0625,-0.6403,0.2100,-0.7294,-0.1180,
2025-03-06 20:20:05.641,9.6400,-1.5700,0.7400,-3.0000,-6.6875,-1.7500,-0.6407,0.2101,-0.7289,-0.1181,
2025-03-06 20:20:05.650,9.7100,-1.5500,0.7500,-3.0625,-7.0625,-1.5625,-0.6412,0.2104,-0.7285,-0.1182,
2025-03-06 20:20:05.680,9.7700,-1.5000,0.7900,-2.7500,-6.6250,-1.3750,-0.6416,0.2106,-0.7280,-0.1183,
2025-03-06 20:20:05.690,9.7900,-1.4200,0.7700,-2.5625,-6.1250,-1.5000,-0.6420,0.2107,-0.7276,-0.1185,
2025-03-06 20:20:05.690,9.7900,-1.2900,0.8200,-3.0625,-5.6875,-1.5000,-0.6424,0.2108,-0.7272,-0.1186,
2025-03-06 20:20:05.700,9.7500,-1.3100,0.8000,-3.8750,-5.1250,-2.0625,-0.6427,0.2110,-0.7268,-0.1189,
2025-03-06 20:20:05.700,9.7300,-1.3100,0.8100,-4.5000,-4.5000,-2.3750,-0.6431,0.2108,-0.7265,-0.1188,
2025-03-06 20:20:05.711,9.7000,-1.4600,0.8200,-5.0000,-3.9375,-2.5625,-0.6434,0.2110,-0.7262,-0.1193,
2025-03-06 20:20:05.719,9.6900,-1.5800,0.8100,-5.1875,-3.1875,-2.7500,-0.6436,0.2112,-0.7259,-0.1196,
2025-03-06 20:20:05.739,9.7100,-1.6500,0.8100,-5.1250,-2.7500,-2.8125,-0.6437,0.2114,-0.7256,-0.1201,
2025-03-06 20:20:05.740,9.7200,-1.7100,0.8300,-4.8750,-2.2500,-2.7500,-0.6439,0.2115,-0.7254,-0.1204,
2025-03-06 20:20:05.759,9.7500,-1.6700,0.8600,-3.5625,-2.0000,-2.6875,-0.6438,0.2123,-0.7251,-0.1215,
2025-03-06 20:20:05.759,9.7600,-1.6100,0.8600,-1.6875,-2.1875,-2.6250,-0.6440,0.2122,-0.7249,-0.1217,
2025-03-06 20:20:05.773,9.7500,-1.5700,0.7800,-0.2500,-2.1250,-2.5625,-0.6441,0.2121,-0.7248,-0.1218,
2025-03-06 20:20:05.789,9.6500,-1.5600,0.7100,0.6875,-2.1875,-2.1875,-0.6443,0.2120,-0.7246,-0.1218,
2025-03-06 20:20:05.790,9.6400,-1.5500,0.6600,0.7500,-2.1875,-1.6875,-0.6445,0.2119,-0.7245,-0.1219,
2025-03-06 20:20:05.806,9.6300,-1.5800,0.6900,-0.3125,-1.8750,-1.0625,-0.6446,0.2117,-0.7244,-0.1217,
2025-03-06 20:20:05.821,9.6100,-1.5600,0.7300,-1.6250,-1.3750,-0.4375,-0.6448,0.2118,-0.7243,-0.1218,
2025-03-06 20:20:05.830,9.7200,-1.5600,0.8200,-2.1875,-0.6875,-0.2500,-0.6448,0.2120,-0.7242,-0.1219,
2025-03-06 20:20:05.831,9.7500,-1.5200,0.8400,-1.8125,0.1250,0.0000,-0.6447,0.2121,-0.7242,-0.1220,
2025-03-06 20:20:05.839,9.7500,-1.5400,0.8700,-0.8750,0.6250,0.0625,-0.6447,0.2122,-0.7242,-0.1220,
2025-03-06 20:20:05.859,9.7000,-1.4900,0.8500,0.0625,1.3750,-0.2500,-0.6446,0.2122,-0.7243,-0.1221,
2025-03-06 20:20:05.864,9.6400,-1.4400,0.8000,0.6250,1.6250,-0.4375,-0.6445,0.2122,-0.7244,-0.1221,
2025-03-06 20:20:05.874,9.6300,-1.4700,0.7500,0.8125,1.6250,-0.5000,-0.6444,0.2120,-0.7245,-0.1220,
2025-03-06 20:20:05.929,9.6100,-1.4600,0.7400,0.3750,1.8125,-0.8125,-0.6443,0.2120,-0.7246,-0.1221,
2025-03-06 20:20:05.929,9.6000,-1.4800,0.7200,-0.3125,1.8750,-0.9375,-0.6442,0.2119,-0.7247,-0.1222,
2025-03-06 20:20:05.930,9.6200,-1.5200,0.6900,-0.6875,1.9375,-0.8125,-0.6439,0.2124,-0.7247,-0.1229,
2025-03-06 20:20:05.930,9.6200,-1.5400,0.6600,-0.8125,1.6250,-0.6875,-0.6438,0.2124,-0.7247,-0.1230,
2025-03-06 20:20:05.930,9.6500,-1.5700,0.6700,-1.0000,1.5000,-0.6875,-0.6438,0.2124,-0.7248,-0.1230,
2025-03-06 20:20:05.930,9.6600,-1.5900,0.6800,-1.3125,1.1250,-0.7500,-0.6437,0.2125,-0.7248,-0.1232,
2025-03-06 20:20:05.950,9.6400,-1.5700,0.6900,-1.6875,0.7500,-0.6875,-0.6437,0.2125,-0.7248,-0.1234,
2025-03-06 20:20:05.950,9.6300,-1.5700,0.7100,-1.8750,0.2500,-0.6250,-0.6437,0.2126,-0.7247,-0.1234,
2025-03-06 20:20:05.974,9.6300,-1.5400,0.7200,-2.0000,0.0625,-0.8125,-0.6437,0.2127,-0.7247,-0.1235,
2025-03-06 20:20:05.974,9.6300,-1.5400,0.7400,-1.8125,-0.1875,-0.7500,-0.6437,0.2128,-0.7246,-0.1237,
2025-03-06 20:20:05.995,9.6400,-1.5500,0.7400,-1.8750,-0.1250,-0.7500,-0.6437,0.2129,-0.7246,-0.1238,
2025-03-06 20:20:05.995,9.6300,-1.5400,0.7200,-1.8750,-0.1875,-0.8750,-0.6437,0.2130,-0.7245,-0.1240,
2025-03-06 20:20:05.999,9.6600,-1.5300,0.7100,-2.1875,-0.6875,-0.8750,-0.6438,0.2129,-0.7245,-0.1240,
2025-03-06 20:20:06.012,9.6900,-1.5900,0.7300,-2.4375,-0.9375,-0.6875,-0.6438,0.2131,-0.7244,-0.1241,
2025-03-06 20:20:06.028,9.7000,-1.5700,0.7300,-2.4375,-0.6875,-0.7500,-0.6439,0.2132,-0.7243,-0.1243,
2025-03-06 20:20:06.045,9.7500,-1.5900,0.7600,-2.0625,-0.5625,-0.7500,-0.6438,0.2133,-0.7242,-0.1244,
2025-03-06 20:20:06.045,9.7600,-1.6300,0.8100,-1.0625,-0.2500,-0.8750,-0.6439,0.2133,-0.7242,-0.1245,
2025-03-06 20:20:06.069,9.7500,-1.6500,0.7900,-0.3125,-0.2500,-1.0625,-0.6442,0.2124,-0.7244,-0.1235,
2025-03-06 20:20:06.069,9.7500,-1.6300,0.7800,0.0625,-0.0625,-1.3750,-0.6442,0.2124,-0.7243,-0.1236,
2025-03-06 20:20:06.074,9.6900,-1.6100,0.7500,0.3750,-0.1250,-1.3125,-0.6442,0.2123,-0.7244,-0.1237,
2025-03-06 20:20:06.089,9.6600,-1.5600,0.7400,0.9375,-0.2500,-1.2500,-0.6442,0.2122,-0.7243,-0.1237,
2025-03-06 20:20:06.101,9.6000,-1.5300,0.7000,1.6250,-0.3125,-0.9375,-0.6442,0.2121,-0.7244,-0.1236,
2025-03-06 20:20:06.119,9.5900,-1.4500,0.6400,2.0625,-0.6250,-0.6875,-0.6443,0.2122,-0.7243,-0.1237,
2025-03-06 20:20:06.140,9.6100,-1.4700,0.6300,1.5000,-0.8750,-0.3750,-0.6444,0.2121,-0.7243,-0.1236,
2025-03-06 20:20:06.149,9.6400,-1.4400,0.6100,0.6875,-0.5625,-0.3125,-0.6444,0.2120,-0.7243,-0.1235,
2025-03-06 20:20:06.149,9.6600,-1.4600,0.7100,0.0625,-0.3125,0.1875,-0.6444,0.2120,-0.7242,-0.1235,
2025-03-06 20:20:06.149,9.6400,-1.4400,0.7000,-0.3125,0.3750,0.1250,-0.6444,0.2120,-0.7242,-0.1235,
2025-03-06 20:20:06.159,9.6300,-1.4700,0.7300,-0.3125,0.4375,0.1250,-0.6445,0.2117,-0.7243,-0.1232,
2025-03-06 20:20:06.160,9.6200,-1.4900,0.7200,-0.3750,0.3125,0.0000,-0.6445,0.2118,-0.7243,-0.1232,
2025-03-06 20:20:06.174,9.6400,-1.4500,0.6800,-0.5000,-0.0625,0.3125,-0.6445,0.2118,-0.7243,-0.1232,
2025-03-06 20:20:06.210,9.6600,-1.4400,0.6800,-0.4375,-0.5625,0.3750,-0.6445,0.2118,-0.7242,-0.1232,
2025-03-06 20:20:06.210,9.6700,-1.4400,0.6800,-0.5625,-0.6875,0.6250,-0.6446,0.2118,-0.7242,-0.1232,
2025-03-06 20:20:06.210,9.7000,-1.4100,0.6600,-0.7500,-0.5625,0.6250,-0.6447,0.2115,-0.7243,-0.1227,
2025-03-06 20:20:06.221,9.6800,-1.4100,0.6500,-0.7500,-0.3125,0.4375,-0.6447,0.2115,-0.7242,-0.1227,
2025-03-06 20:20:06.274,9.6800,-1.4400,0.6800,-1.3125,-0.1875,0.5625,-0.6447,0.2116,-0.7242,-0.1228,
2025-03-06 20:20:06.274,9.6800,-1.4800,0.6600,-1.7500,0.0625,0.5000,-0.6447,0.2117,-0.7242,-0.1229,
2025-03-06 20:20:06.274,9.7000,-1.5500,0.7300,-2.1875,-0.1250,0.5625,-0.6447,0.2119,-0.7241,-0.1230,
2025-03-06 20:20:06.274,9.7000,-1.5800,0.7300,-2.3125,-0.0625,0.3125,-0.6446,0.2123,-0.7240,-0.1234,
2025-03-06 20:20:06.274,9.7000,-1.6100,0.7100,-2.4375,-0.1250,0.4375,-0.6445,0.2125,-0.7240,-0.1235,
2025-03-06 20:20:06.274,9.7000,-1.6100,0.7100,-2.3125,-0.3750,0.3125,-0.6445,0.2126,-0.7239,-0.1237,
2025-03-06 20:20:06.280,9.7300,-1.5900,0.7300,-2.0000,-0.6875,0.2500,-0.6445,0.2128,-0.7239,-0.1237,
2025-03-06 20:20:06.299,9.7200,-1.5500,0.7200,-1.5625,-0.5625,0.5000,-0.6445,0.2129,-0.7238,-0.1238,
2025-03-06 20:20:06.300,9.6800,-1.5300,0.7300,-1.0000,-0.5000,0.1250,-0.6445,0.2130,-0.7238,-0.1238,
2025-03-06 20:20:06.319,9.6600,-1.5700,0.7100,-0.6875,-0.2500,0.3125,-0.6445,0.2130,-0.7238,-0.1238,
2025-03-06 20:20:06.319,9.6400,-1.6000,0.6800,-0.5000,-0.1250,0.2500,-0.6445,0.2130,-0.7238,-0.1238,
2025-03-06 20:20:06.331,9.6400,-1.5900,0.6300,-0.6250,-0.1250,0.5000,-0.6445,0.2131,-0.7238,-0.1238,
2025-03-06 20:20:06.339,9.6700,-1.6200,0.6300,-0.6250,0.1250,0.6250,-0.6445,0.2132,-0.7237,-0.1238,
2025-03-06 20:20:06.359,9.7300,-1.5800,0.6600,-0.5625,-0.1875,0.6875,-0.6445,0.2133,-0.7237,-0.1238,
2025-03-06 20:20:06.361,9.7100,-1.5600,0.6800,-0.4375,-0.1250,0.8750,-0.6445,0.2133,-0.7237,-0.1237,
2025-03-06 20:20:06.374,9.7100,-1.5400,0.7000,-0.2500,-0.3125,0.8750,-0.6445,0.2134,-0.7237,-0.1236,
2025-03-06 20:20:06.381,9.7500,-1.4700,0.7100,-0.3125,-0.3125,0.9375,-0.6445,0.2134,-0.7238,-0.1235,
2025-03-06 20:20:06.390,9.7400,-1.4500,0.6900,-0.3750,0.0000,0.8125,-0.6445,0.2135,-0.7238,-0.1235,
2025-03-06 20:20:06.409,9.7200,-1.4800,0.6800,-0.4375,0.1250,0.8750,-0.6443,0.2142,-0.7236,-0.1241,
2025-03-06 20:20:06.409,9.7100,-1.4900,0.7000,-0.6250,0.6250,0.6875,-0.6442,0.2142,-0.7236,-0.1241,
2025-03-06 20:20:06.419,9.6800,-1.5400,0.6500,-0.7500,1.0000,0.6250,-0.6442,0.2143,-0.7237,-0.1241,
2025-03-06 20:20:06.431,9.7000,-1.5800,0.6700,-0.9375,0.9375,0.6250,-0.6441,0.2144,-0.7237,-0.1241,
2025-03-06 20:20:06.439,9.6900,-1.5700,0.6600,-1.0000,0.7500,0.5625,-0.6440,0.2145,-0.7237,-0.1242,
2025-03-06 20:20:06.452,9.6900,-1.5600,0.6900,-0.8750,0.6250,0.5000,-0.6440,0.2145,-0.7238,-0.1243,
2025-03-06 20:20:06.459,9.6700,-1.5500,0.7000,-0.6875,0.6250,0.5000,-0.6440,0.2146,-0.7237,-0.1243,
2025-03-06 20:20:06.480,9.6800,-1.5400,0.6800,-0.3750,0.6250,0.2500,-0.6439,0.2146,-0.7238,-0.1243,
2025-03-06 20:20:06.529,9.6800,-1.5200,0.6600,-0.3125,0.3750,0.4375,-0.6439,0.2146,-0.7238,-0.1243,
2025-03-06 20:20:06.530,9.6600,-1.5100,0.6800,-0.2500,0.6250,0.1250,-0.6439,0.2146,-0.7238,-0.1243,
2025-03-06 20:20:06.530,9.6900,-1.5400,0.6800,-0.0625,0.6875,0.3125,-0.6441,0.2140,-0.7239,-0.1236,
2025-03-06 20:20:06.530,9.6500,-1.5400,0.6800,-0.1250,0.7500,0.2500,-0.6440,0.2141,-0.7239,-0.1237,
2025-03-06 20:20:06.530,9.6600,-1.6000,0.7100,-0.2500,0.9375,0.1250,-0.6440,0.2141,-0.7240,-0.1237,
2025-03-06 20:20:06.530,9.7100,-1.6000,0.7300,-0.4375,0.6875,0.1875,-0.6440,0.2140,-0.7240,-0.1237,
2025-03-06 20:20:06.549,9.7000,-1.6200,0.7500,-0.3750,0.5625,0.3125,-0.6440,0.2140,-0.7240,-0.1236,
2025-03-06 20:20:06.560,9.6900,-1.5900,0.7500,0.3125,0.6250,0.3750,-0.6439,0.2141,-0.7241,-0.1236,
2025-03-06 20:20:06.560,9.6400,-1.5300,0.7100,1.0625,0.6250,0.1875,-0.6439,0.2140,-0.7241,-0.1236,
2025-03-06 20:20:06.580,9.6200,-1.5100,0.7000,1.8125,0.6875,0.4375,-0.6439,0.2139,-0.7242,-0.1235,
2025-03-06 20:20:06.580,9.6200,-1.4800,0.7000,2.2500,0.4375,0.5000,-0.6439,0.2137,-0.7242,-0.1233,
2025-03-06 20:20:06.625,9.6800,-1.5000,0.7000,1.7500,0.4375,0.3125,-0.6439,0.2137,-0.7242,-0.1232,
2025-03-06 20:20:06.625,9.6600,-1.5000,0.7100,1.1250,0.6250,0.0625,-0.6435,0.2148,-0.7241,-0.1246,
2025-03-06 20:20:06.625,9.6900,-1.4800,0.7100,0.9375,0.8750,-0.0625,-0.6434,0.2148,-0.7241,-0.1246,
2025-03-06 20:20:06.625,9.6800,-1.4900,0.6900,1.0000,0.3750,-0.2500,-0.6435,0.2147,-0.7241,-0.1245,
2025-03-06 20:20:06.629,9.6500,-1.4900,0.7200,1.4375,0.1250,-0.3125,-0.6435,0.2146,-0.7241,-0.1244,
2025-03-06 20:20:06.649,9.6600,-1.4700,0.7000,2.0000,-0.3750,-0.3125,-0.6435,0.2145,-0.7242,-0.1243,
2025-03-06 20:20:06.661,9.6600,-1.4700,0.7300,2.1250,-0.6250,-0.1875,-0.6437,0.2141,-0.7242,-0.1238,
2025-03-06 20:20:06.661,9.6600,-1.4100,0.6800,1.8750,-0.5625,-0.1875,-0.6437,0.2139,-0.7242,-0.1237,
2025-03-06 20:20:06.674,9.6800,-1.4100,0.6500,1.6875,-0.1875,-0.2500,-0.6437,0.2138,-0.7243,-0.1236,
2025-03-06 20:20:06.689,9.6600,-1.4100,0.6900,1.2500,-0.1875,-0.1875,-0.6438,0.2137,-0.7243,-0.1235,
2025-03-06 20:20:06.690,9.6700,-1.4100,0.7200,0.6875,-0.1250,-0.3750,-0.6438,0.2137,-0.7243,-0.1235,
2025-03-06 20:20:06.701,9.6400,-1.4400,0.7000,0.0625,-0.0625,-0.1875,-0.6439,0.2134,-0.7244,-0.1232,
2025-03-06 20:20:06.711,9.6300,-1.4600,0.7000,-0.3750,-0.1250,-0.3125,-0.6439,0.2134,-0.7244,-0.1232,
2025-03-06 20:20:06.719,9.6400,-1.4500,0.7000,-0.6875,-0.3125,-0.0625,-0.6439,0.2134,-0.7244,-0.1232,
2025-03-06 20:20:06.740,9.6400,-1.4800,0.7200,-0.7500,-0.3125,0.0625,-0.6439,0.2135,-0.7244,-0.1232,
2025-03-06 20:20:06.740,9.6400,-1.4600,0.7500,-0.6875,-0.3750,0.2500,-0.6438,0.2136,-0.7243,-0.1233,
2025-03-06 20:20:06.751,9.6500,-1.4600,0.7400,-0.6875,-0.3750,0.4375,-0.6438,0.2136,-0.7243,-0.1234,
2025-03-06 20:20:06.760,9.6600,-1.4400,0.7200,-0.8750,-0.3750,0.3125,-0.6438,0.2137,-0.7243,-0.1234,
2025-03-06 20:20:06.821,9.7000,-1.4800,0.7200,-1.0625,-0.3125,0.2500,-0.6438,0.2137,-0.7243,-0.1235,
2025-03-06 20:20:06.830,9.7000,-1.5400,0.6900,-1.2500,-0.2500,0.1250,-0.6438,0.2138,-0.7243,-0.1235,
2025-03-06 20:20:06.830,9.6600,-1.5800,0.6900,-1.3750,-0.0625,0.1250,-0.6438,0.2139,-0.7242,-0.1236,
2025-03-06 20:20:06.830,9.6400,-1.5500,0.7000,-1.6250,-0.2500,0.2500,-0.6437,0.2141,-0.7242,-0.1238,
2025-03-06 20:20:06.830,9.6600,-1.5300,0.7200,-1.4375,-0.6250,0.1875,-0.6437,0.2142,-0.7241,-0.1239,
2025-03-06 20:20:06.830,9.7100,-1.4800,0.7100,-1.2500,-0.8125,0.1875,-0.6438,0.2143,-0.7240,-0.1240,
2025-03-06 20:20:06.840,9.7300,-1.4500,0.7100,-1.0625,-1.0000,0.2500,-0.6438,0.2144,-0.7240,-0.1240,
2025-03-06 20:20:06.840,9.7700,-1.3800,0.7300,-1.3750,-0.6250,0.0625,-0.6438,0.2145,-0.7239,-0.1241,
2025-03-06 20:20:06.860,9.7800,-1.4100,0.7300,-1.7500,-0.1875,-0.0625,-0.6437,0.2150,-0.7238,-0.1246,
2025-03-06 20:20:06.864,9.7900,-1.4400,0.7200,-1.8750,0.0625,-0.1875,-0.6437,0.2151,-0.7238,-0.1247,
2025-03-06 20:20:06.875,9.7100,-1.5100,0.7100,-2.0625,0.1875,-0.1875,-0.6437,0.2152,-0.7237,-0.1248,
2025-03-06 20:20:06.891,9.6700,-1.5400,0.7500,-1.9375,0.2500,-0.1875,-0.6436,0.2153,-0.7237,-0.1249,
2025-03-06 20:20:06.900,9.6800,-1.5300,0.7400,-1.7500,0.1875,-0.4375,-0.6436,0.2155,-0.7237,-0.1250,
2025-03-06 20:20:06.900,9.6500,-1.5000,0.7300,-1.2500,0.0625,-0.5000,-0.6436,0.2155,-0.7236,-0.1251,
2025-03-06 20:20:06.916,9.6400,-1.4800,0.7000,-0.7500,-0.0625,-0.5625,-0.6436,0.2156,-0.7236,-0.1251,
2025-03-06 20:20:06.929,9.6400,-1.5000,0.6800,-0.6250,0.0000,-0.7500,-0.6436,0.2156,-0.7236,-0.1252,
2025-03-06 20:20:06.929,9.6400,-1.5400,0.7100,-1.0625,0.0000,-1.0000,-0.6436,0.2156,-0.7236,-0.1254,
2025-03-06 20:20:06.950,9.6200,-1.6200,0.7000,-1.3125,0.2500,-0.8125,-0.6436,0.2156,-0.7236,-0.1255,
2025-03-06 20:20:06.950,9.6500,-1.6400,0.6900,-1.4375,0.4375,-1.0000,-0.6436,0.2156,-0.7235,-0.1256,
2025-03-06 20:20:06.969,9.6700,-1.6300,0.7200,-1.3750,0.3125,-0.9375,-0.6436,0.2157,-0.7235,-0.1257,
2025-03-06 20:20:06.973,9.7000,-1.6000,0.7200,-1.0000,-0.0625,-0.8125,-0.6436,0.2157,-0.7235,-0.1259,
2025-03-06 20:20:06.989,9.7200,-1.5100,0.7200,-0.3125,-0.3125,-0.6875,-0.6436,0.2157,-0.7235,-0.1259,
2025-03-06 20:20:07.000,9.7200,-1.5000,0.7100,0.0000,-0.3750,-0.6250,-0.6437,0.2156,-0.7234,-0.1259,
2025-03-06 20:20:07.000,9.7200,-1.4800,0.7200,0.0000,-0.3125,-0.8125,-0.6437,0.2156,-0.7234,-0.1260,
2025-03-06 20:20:07.020,9.6600,-1.5300,0.7100,-0.0625,-0.3125,-0.7500,-0.6437,0.2156,-0.7234,-0.1260,
2025-03-06 20:20:07.020,9.6400,-1.5500,0.7200,-0.3750,0.0625,-0.8750,-0.6437,0.2155,-0.7234,-0.1261,
2025-03-06 20:20:07.031,9.6400,-1.5200,0.7100,-0.4375,0.2500,-0.9375,-0.6437,0.2155,-0.7234,-0.1261,
2025-03-06 20:20:07.040,9.6500,-1.5300,0.7300,-0.2500,0.0000,-0.8750,-0.6437,0.2154,-0.7234,-0.1262,
2025-03-06 20:20:07.060,9.6600,-1.4700,0.6600,0.0000,-0.1875,-0.7500,-0.6437,0.2153,-0.7234,-0.1262,
2025-03-06 20:20:07.060,9.7000,-1.4500,0.6700,-0.0625,-0.4375,-0.8125,-0.6437,0.2153,-0.7234,-0.1263,
2025-03-06 20:20:07.075,9.7000,-1.4700,0.6500,0.0625,-0.5625,-0.8750,-0.6438,0.2153,-0.7234,-0.1263,
2025-03-06 20:20:07.129,9.6500,-1.4800,0.7100,-0.3125,-0.5000,-0.8750,-0.6438,0.2152,-0.7234,-0.1264,
2025-03-06 20:20:07.129,9.6300,-1.5200,0.6900,-0.5000,-0.3125,-0.9375,-0.6438,0.2152,-0.7233,-0.1265,
2025-03-06 20:20:07.129,9.6200,-1.5300,0.6800,-0.6875,-0.3750,-0.5625,-0.6438,0.2152,-0.7233,-0.1265,
2025-03-06 20:20:07.129,9.6200,-1.5700,0.7000,-0.3125,-0.3125,-0.6250,-0.6438,0.2152,-0.7233,-0.1265,
2025-03-06 20:20:07.129,9.6900,-1.5300,0.6300,-0.1250,-0.3750,-0.5625,-0.6438,0.2152,-0.7233,-0.1265,
2025-03-06 20:20:07.129,9.7000,-1.4800,0.6600,-0.0625,-0.5000,-0.6250,-0.6438,0.2151,-0.7233,-0.1266,
2025-03-06 20:20:07.144,9.7000,-1.4200,0.6800,0.0000,-0.5625,-0.6875,-0.6438,0.2151,-0.7233,-0.1266,
2025-03-06 20:20:07.151,9.7000,-1.3900,0.7000,0.1250,-0.5000,-0.9375,-0.6438,0.2150,-0.7233,-0.1266,
2025-03-06 20:20:07.180,9.7000,-1.3800,0.7000,-0.3750,-0.5625,-1.1250,-0.6439,0.2150,-0.7233,-0.1267,
2025-03-06 20:20:07.180,9.6900,-1.4100,0.6900,-0.8125,-0.5000,-1.1875,-0.6439,0.2150,-0.7233,-0.1268,
2025-03-06 20:20:07.180,9.6700,-1.4300,0.6700,-1.5000,-0.5000,-1.1875,-0.6439,0.2150,-0.7232,-0.1270,
2025-03-06 20:20:07.191,9.6700,-1.4900,0.6800,-2.0000,-0.3125,-1.2500,-0.6439,0.2151,-0.7232,-0.1272,
2025-03-06 20:20:07.199,9.6900,-1.5100,0.7000,-2.3125,-0.3125,-1.3750,-0.6439,0.2151,-0.7231,-0.1274,
2025-03-06 20:20:07.215,9.6800,-1.5000,0.7000,-2.1875,-0.5625,-1.2500,-0.6439,0.2152,-0.7231,-0.1276,
2025-03-06 20:20:07.229,9.7200,-1.4900,0.6600,-1.8125,-0.5625,-1.3125,-0.6439,0.2152,-0.7230,-0.1278,
2025-03-06 20:20:07.239,9.7200,-1.4500,0.6800,-1.4375,-0.6875,-1.3750,-0.6439,0.2153,-0.7230,-0.1279,
2025-03-06 20:20:07.241,9.7300,-1.4300,0.7100,-1.1875,-0.5000,-1.3750,-0.6440,0.2153,-0.7229,-0.1280,
2025-03-06 20:20:07.275,9.6800,-1.4200,0.6800,-1.1875,-0.1250,-1.3750,-0.6440,0.2153,-0.7228,-0.1282,
2025-03-06 20:20:07.275,9.7100,-1.4900,0.6500,-1.8125,0.0000,-1.4375,-0.6440,0.2153,-0.7228,-0.1284,
2025-03-06 20:20:07.275,9.7200,-1.4900,0.6700,-2.1250,-0.0625,-1.6250,-0.6440,0.2153,-0.7228,-0.1287,
2025-03-06 20:20:07.279,9.7600,-1.5100,0.6700,-2.3750,-0.1250,-1.3750,-0.6440,0.2154,-0.7227,-0.1288,
2025-03-06 20:20:07.304,9.7500,-1.5000,0.6900,-2.6250,-0.4375,-1.5625,-0.6440,0.2155,-0.7226,-0.1291,
2025-03-06 20:20:07.304,9.7300,-1.4100,0.6900,-2.3750,-0.5000,-1.3125,-0.6440,0.2155,-0.7226,-0.1293,
2025-03-06 20:20:07.319,9.6800,-1.3800,0.6800,-1.8125,-0.4375,-1.3750,-0.6440,0.2156,-0.7225,-0.1295,
2025-03-06 20:20:07.324,9.6400,-1.3400,0.6700,-1.3750,-0.2500,-1.2500,-0.6440,0.2156,-0.7225,-0.1296,
2025-03-06 20:20:07.339,9.5700,-1.4000,0.6900,-1.2500,-0.0625,-1.3125,-0.6440,0.2156,-0.7225,-0.1298,
2025-03-06 20:20:07.339,9.5500,-1.4900,0.7100,-1.6875,-0.0625,-1.5000,-0.6440,0.2156,-0.7224,-0.1299,
2025-03-06 20:20:07.349,9.5800,-1.5300,0.6700,-1.5625,-0.1250,-1.5625,-0.6440,0.2156,-0.7223,-0.1301,
2025-03-06 20:20:07.440,9.5800,-1.5900,0.6700,-1.7500,-0.3750,-1.6875,-0.6440,0.2156,-0.7223,-0.1304,
2025-03-06 20:20:07.440,9.7800,-1.5300,0.6000,-2.0625,-1.0625,-1.6875,-0.6441,0.2157,-0.7222,-0.1306,
2025-03-06 20:20:07.440,9.8400,-1.4900,0.6000,-2.0625,-1.4375,-1.6875,-0.6442,0.2158,-0.7220,-0.1307,
2025-03-06 20:20:07.440,9.8600,-1.4400,0.5800,-2.0000,-1.6250,-1.8125,-0.6443,0.2158,-0.7219,-0.1309,
2025-03-06 20:20:07.440,9.7900,-1.3400,0.6300,-1.5625,-1.3125,-1.6875,-0.6444,0.2158,-0.7218,-0.1311,
2025-03-06 20:20:07.440,9.7400,-1.3200,0.6300,-1.6875,-1.0000,-1.8750,-0.6445,0.2158,-0.7217,-0.1313,
2025-03-06 20:20:07.440,9.7200,-1.3100,0.6300,-2.1250,-0.8125,-1.8125,-0.6445,0.2159,-0.7216,-0.1315,
2025-03-06 20:20:07.440,9.6800,-1.3300,0.6200,-2.8125,-0.4375,-1.6250,-0.6445,0.2159,-0.7215,-0.1318,
2025-03-06 20:20:07.440,9.7300,-1.3100,0.6300,-3.6875,-0.2500,-1.7500,-0.6445,0.2161,-0.7214,-0.1321,
2025-03-06 20:20:07.469,9.7500,-1.3200,0.6300,-4.6250,0.0625,-1.8750,-0.6445,0.2162,-0.7213,-0.1324,
2025-03-06 20:20:07.469,9.7700,-1.3200,0.6000,-5.0625,0.3125,-1.6875,-0.6445,0.2165,-0.7212,-0.1328,
2025-03-06 20:20:07.479,9.7500,-1.3900,0.6000,-5.2500,0.7500,-1.8125,-0.6444,0.2167,-0.7211,-0.1332,
2025-03-06 20:20:07.479,9.6900,-1.4500,0.6300,-5.2500,1.0625,-1.8125,-0.6443,0.2169,-0.7211,-0.1337,
2025-03-06 20:20:07.499,9.6700,-1.4700,0.6300,-5.0000,1.1875,-1.8750,-0.6442,0.2171,-0.7210,-0.1340,
2025-03-06 20:20:07.502,9.7000,-1.4500,0.6500,-5.2500,1.0000,-1.8750,-0.6442,0.2173,-0.7209,-0.1345,
2025-03-06 20:20:07.509,9.7300,-1.4300,0.6100,-5.5625,0.6250,-1.6250,-0.6440,0.2175,-0.7209,-0.1349,
2025-03-06 20:20:07.521,9.7500,-1.4000,0.6000,-5.6250,0.2500,-1.4375,-0.6440,0.2178,-0.7207,-0.1353,
2025-03-06 20:20:07.530,9.7500,-1.3700,0.5900,-5.3750,0.4375,-1.2500,-0.6440,0.2181,-0.7206,-0.1357,
2025-03-06 20:20:07.541,9.6400,-1.3500,0.6300,-5.0000,0.8125,-1.0625,-0.6439,0.2183,-0.7206,-0.1360,
2025-03-06 20:20:07.554,9.6400,-1.3600,0.6600,-4.5000,1.0000,-0.8750,-0.6438,0.2185,-0.7205,-0.1364,
2025-03-06 20:20:07.572,9.6400,-1.3600,0.6900,-4.3750,1.0000,-0.6875,-0.6437,0.2187,-0.7205,-0.1367,
2025-03-06 20:20:07.572,9.6400,-1.4200,0.6800,-4.5000,1.1250,-0.6250,-0.6436,0.2190,-0.7205,-0.1370,
2025-03-06 20:20:07.580,9.7000,-1.4500,0.6600,-4.9375,1.3125,-0.6875,-0.6435,0.2192,-0.7204,-0.1373,
2025-03-06 20:20:07.592,9.7500,-1.4400,0.6600,-5.3125,1.3125,-0.6250,-0.6434,0.2195,-0.7204,-0.1376,
2025-03-06 20:20:07.600,9.7600,-1.4100,0.6200,-5.2500,1.2500,-0.3750,-0.6432,0.2198,-0.7204,-0.1379,
2025-03-06 20:20:07.619,9.7500,-1.4100,0.6300,-4.9375,1.1875,-0.0625,-0.6431,0.2201,-0.7203,-0.1382,
2025-03-06 20:20:07.620,9.7700,-1.4400,0.6600,-4.5625,1.3125,0.1875,-0.6429,0.2203,-0.7203,-0.1385,
2025-03-06 20:20:07.631,9.7400,-1.4200,0.7000,-3.9375,1.5625,0.3750,-0.6428,0.2206,-0.7203,-0.1388,
2025-03-06 20:20:07.639,9.6800,-1.4400,0.7400,-3.8125,1.8125,-0.0625,-0.6426,0.2208,-0.7204,-0.1390,
2025-03-06 20:20:07.649,9.6100,-1.5400,0.7800,-3.9375,2.0000,-0.5625,-0.6425,0.2210,-0.7204,-0.1393,
2025-03-06 20:20:07.661,9.6300,-1.5400,0.7300,-4.0625,1.8750,-0.9375,-0.6423,0.2212,-0.7204,-0.1396,
2025-03-06 20:20:07.676,9.6500,-1.5600,0.7100,-3.9375,1.4375,-1.0000,-0.6422,0.2214,-0.7204,-0.1399,
2025-03-06 20:20:07.720,9.7100,-1.5100,0.6700,-3.1250,1.0000,-0.9375,-0.6421,0.2215,-0.7204,-0.1401,
2025-03-06 20:20:07.720,9.7000,-1.4900,0.6400,-2.8125,0.9375,-0.6250,-0.6420,0.2216,-0.7204,-0.1403,
2025-03-06 20:20:07.729,9.6700,-1.4400,0.6500,-2.0000,0.9375,-0.5625,-0.6420,0.2217,-0.7204,-0.1404,
2025-03-06 20:20:07.729,9.6200,-1.4900,0.7000,-1.5000,0.7500,-0.4375,-0.6419,0.2218,-0.7204,-0.1406,
2025-03-06 20:20:07.729,9.6100,-1.5300,0.7200,-1.3750,0.5625,-0.2500,-0.6419,0.2219,-0.7204,-0.1406,
2025-03-06 20:20:07.731,9.6300,-1.5300,0.7200,-1.5625,0.3750,-0.3125,-0.6419,0.2220,-0.7204,-0.1408,
2025-03-06 20:20:07.739,9.6900,-1.5400,0.6900,-1.6875,0.2500,-0.1250,-0.6418,0.2221,-0.7203,-0.1408,
2025-03-06 20:20:07.752,9.6800,-1.4800,0.6500,-1.5625,0.1875,0.0000,-0.6419,0.2222,-0.7203,-0.1409,
2025-03-06 20:20:07.769,9.6900,-1.4300,0.6900,-1.4375,0.0000,0.4375,-0.6418,0.2223,-0.7203,-0.1410,
2025-03-06 20:20:07.776,9.6500,-1.4400,0.7000,-0.8125,0.0000,0.6250,-0.6418,0.2224,-0.7203,-0.1410,
2025-03-06 20:20:07.780,9.6300,-1.4500,0.6900,-0.2500,0.0625,0.6875,-0.6418,0.2224,-0.7203,-0.1409,
2025-03-06 20:20:07.789,9.6200,-1.5500,0.7400,-0.1250,-0.1250,0.7500,-0.6418,0.2224,-0.7203,-0.1409,
2025-03-06 20:20:07.802,9.6200,-1.5700,0.7400,-0.1875,0.0000,0.6250,-0.6417,0.2225,-0.7203,-0.1409,
2025-03-06 20:20:07.810,9.6400,-1.6300,0.7200,0.1250,-0.1250,1.0000,-0.6417,0.2226,-0.7203,-0.1407,
2025-03-06 20:20:07.822,9.6500,-1.5800,0.6700,1.0000,-0.2500,1.0000,-0.6417,0.2227,-0.7203,-0.1406,
2025-03-06 20:20:07.830,9.6600,-1.5500,0.6600,1.9375,-0.5000,1.1875,-0.6417,0.2226,-0.7204,-0.1404,
2025-03-06 20:20:07.851,9.6600,-1.4800,0.6500,3.1250,-1.0000,1.1875,-0.6418,0.2225,-0.7204,-0.1401,
2025-03-06 20:20:07.851,9.6400,-1.4400,0.6500,3.9375,-1.1875,1.0625,-0.6419,0.2224,-0.7204,-0.1398,
2025-03-06 20:20:07.871,9.6800,-1.4100,0.6300,4.3750,-1.6875,1.1875,-0.6420,0.2222,-0.7204,-0.1394,
2025-03-06 20:20:07.892,9.6800,-1.4200,0.6200,4.2500,-1.6250,1.3125,-0.6422,0.2220,-0.7204,-0.1390,
2025-03-06 20:20:07.892,9.6300,-1.4100,0.6500,4.0625,-1.6250,1.1250,-0.6423,0.2219,-0.7204,-0.1387,
2025-03-06 20:20:07.895,9.6400,-1.4000,0.6400,3.8750,-1.5000,1.0625,-0.6425,0.2217,-0.7204,-0.1384,
2025-03-06 20:20:07.923,9.6600,-1.4100,0.6400,3.6875,-1.6250,1.2500,-0.6426,0.2216,-0.7203,-0.1381,
2025-03-06 20:20:07.923,9.6700,-1.4300,0.6300,3.5625,-1.7500,1.2500,-0.6427,0.2215,-0.7203,-0.1378,
2025-03-06 20:20:07.923,9.7100,-1.4000,0.6000,3.9375,-1.8125,1.2500,-0.6429,0.2214,-0.7203,-0.1375,
2025-03-06 20:20:07.934,9.7600,-1.3700,0.6000,3.8125,-1.8750,1.2500,-0.6430,0.2213,-0.7203,-0.1371,
2025-03-06 20:20:07.950,9.7300,-1.3900,0.6300,3.8125,-1.7500,1.0000,-0.6432,0.2211,-0.7202,-0.1368,
2025-03-06 20:20:07.954,9.7300,-1.4100,0.6300,3.5625,-1.5625,0.7500,-0.6433,0.2209,-0.7202,-0.1365,
2025-03-06 20:20:07.965,9.7200,-1.4500,0.6600,3.6875,-1.9375,0.3125,-0.6435,0.2207,-0.7202,-0.1363,
2025-03-06 20:20:07.981,9.7100,-1.4600,0.6800,3.6875,-1.8750,0.0000,-0.6437,0.2205,-0.7201,-0.1360,
2025-03-06 20:20:08.020,9.6800,-1.4600,0.6500,3.7500,-1.6875,0.0000,-0.6438,0.2203,-0.7201,-0.1358,
2025-03-06 20:20:08.020,9.6900,-1.4500,0.6200,4.1875,-1.6250,-0.1875,-0.6440,0.2201,-0.7201,-0.1355,
2025-03-06 20:20:08.020,9.7100,-1.3700,0.5900,4.3125,-1.8750,-0.2500,-0.6441,0.2199,-0.7201,-0.1353,
2025-03-06 20:20:08.020,9.7100,-1.3200,0.5700,4.3125,-2.1875,-0.3125,-0.6444,0.2196,-0.7200,-0.1350,
2025-03-06 20:20:08.020,9.7600,-1.3200,0.5200,4.3125,-2.1250,-0.3125,-0.6445,0.2194,-0.7199,-0.1347,
2025-03-06 20:20:08.040,9.7500,-1.3600,0.5500,3.8750,-1.8750,-0.5625,-0.6447,0.2192,-0.7199,-0.1345,
2025-03-06 20:20:08.040,9.7400,-1.3800,0.5900,2.9375,-1.6250,-0.7500,-0.6449,0.2190,-0.7198,-0.1343,
2025-03-06 20:20:08.052,9.7300,-1.4200,0.6200,1.9375,-1.3125,-0.9375,-0.6450,0.2188,-0.7197,-0.1342,
2025-03-06 20:20:08.065,9.7100,-1.4200,0.6500,1.1875,-1.1875,-0.9375,-0.6452,0.2187,-0.7197,-0.1342,
2025-03-06 20:20:08.070,9.6500,-1.4200,0.6200,1.6250,-1.1875,-0.8125,-0.6453,0.2186,-0.7196,-0.1342,
2025-03-06 20:20:08.081,9.6400,-1.4100,0.6300,2.5625,-1.0625,-0.6875,-0.6454,0.2184,-0.7196,-0.1340,
2025-03-06 20:20:08.090,9.6700,-1.4200,0.6400,3.2500,-1.2500,-0.4375,-0.6455,0.2182,-0.7196,-0.1338,
2025-03-06 20:20:08.101,9.7400,-1.4600,0.6100,3.8750,-1.3125,-0.2500,-0.6456,0.2180,-0.7196,-0.1335,
2025-03-06 20:20:08.110,9.7400,-1.4900,0.5900,4.6250,-1.3750,-0.2500,-0.6458,0.2178,-0.7196,-0.1332,
2025-03-06 20:20:08.129,9.7600,-1.5400,0.5900,4.4375,-1.1250,-0.5625,-0.6459,0.2175,-0.7196,-0.1330,
2025-03-06 20:20:08.129,9.7600,-1.5700,0.6300,4.1250,-1.0625,-0.5625,-0.6460,0.2173,-0.7196,-0.1327,
2025-03-06 20:20:08.139,9.7500,-1.5500,0.7000,4.3125,-1.1250,-0.3750,-0.6461,0.2171,-0.7196,-0.1324,
2025-03-06 20:20:08.151,9.7300,-1.5200,0.7000,4.9375,-1.1875,-0.2500,-0.6462,0.2168,-0.7197,-0.1321,
2025-03-06 20:20:08.160,9.6900,-1.4600,0.6600,6.3750,-1.4375,0.1875,-0.6464,0.2164,-0.7197,-0.1317,
2025-03-06 20:20:08.177,9.7000,-1.4100,0.6100,7.8750,-1.5000,0.3125,-0.6466,0.2160,-0.7197,-0.1313,
2025-03-06 20:20:08.180,9.6600,-1.3000,0.5300,8.8750,-1.8125,0.3125,-0.6468,0.2155,-0.7198,-0.1307,
2025-03-06 20:20:08.200,9.6600,-1.3200,0.5200,8.7500,-1.7500,0.2500,-0.6470,0.2150,-0.7198,-0.1302,
2025-03-06 20:20:08.200,9.6900,-1.3400,0.5200,8.0000,-1.8125,0.2500,-0.6473,0.2145,-0.7199,-0.1298,
2025-03-06 20:20:08.219,9.6800,-1.3400,0.5400,6.5000,-1.5000,0.1875,-0.6475,0.2141,-0.7199,-0.1294,
2025-03-06 20:20:08.221,9.6900,-1.3800,0.5400,5.3125,-1.0000,0.1875,-0.6476,0.2138,-0.7199,-0.1291,
2025-03-06 20:20:08.233,9.7300,-1.3800,0.6100,5.0000,-1.0625,0.4375,-0.6477,0.2135,-0.7199,-0.1288,
2025-03-06 20:20:08.249,9.6900,-1.3700,0.6000,5.0625,-1.1250,0.5625,-0.6479,0.2133,-0.7199,-0.1285,
2025-03-06 20:20:08.250,9.6700,-1.4600,0.6700,5.4375,-1.3750,0.5625,-0.6480,0.2129,-0.7200,-0.1281,
2025-03-06 20:20:08.261,9.6700,-1.5200,0.7000,5.4375,-1.1875,0.3750,-0.6481,0.2126,-0.7200,-0.1278,
2025-03-06 20:20:08.270,9.6800,-1.6000,0.7100,5.2500,-1.2500,0.3125,-0.6483,0.2123,-0.7200,-0.1274,
2025-03-06 20:20:08.300,9.5800,-1.6500,0.6800,5.6875,-0.9375,-0.1250,-0.6484,0.2120,-0.7201,-0.1271,
2025-03-06 20:20:08.300,9.6200,-1.6200,0.6700,7.0625,-0.9375,-0.3750,-0.6485,0.2117,-0.7202,-0.1266,
2025-03-06 20:20:08.319,9.7100,-1.5500,0.5900,8.8125,-1.7500,-0.5625,-0.6487,0.2112,-0.7202,-0.1260,
2025-03-06 20:20:08.319,9.8000,-1.4400,0.6000,10.3125,-2.5000,-0.6875,-0.6489,0.2106,-0.7203,-0.1255,
2025-03-06 20:20:08.319,9.8900,-1.2800,0.4900,10.7500,-2.8125,-0.6250,-0.6493,0.2100,-0.7203,-0.1249,
2025-03-06 20:20:08.332,9.8800,-1.2400,0.5200,10.1250,-2.5625,-0.6875,-0.6496,0.2093,-0.7203,-0.1243,
2025-03-06 20:20:08.340,9.8100,-1.2400,0.5800,8.6875,-1.8750,-0.6250,-0.6498,0.2088,-0.7203,-0.1238,
2025-03-06 20:20:08.351,9.7400,-1.3300,0.6500,7.2500,-1.2500,-0.5000,-0.6499,0.2084,-0.7204,-0.1234,
2025-03-06 20:20:08.360,9.7200,-1.3700,0.7300,5.7500,-1.0000,-0.6875,-0.6500,0.2079,-0.7205,-0.1231,
2025-03-06 20:20:08.370,9.7100,-1.3800,0.7200,4.5000,-0.7500,-0.8125,-0.6502,0.2076,-0.7205,-0.1229,
2025-03-06 20:20:08.382,9.7400,-1.3500,0.7000,4.3750,-0.8750,-0.7500,-0.6503,0.2073,-0.7205,-0.1227,
2025-03-06 20:20:08.409,9.7300,-1.3600,0.6700,5.1875,-1.0000,-1.0000,-0.6504,0.2070,-0.7205,-0.1224,
2025-03-06 20:20:08.409,9.7200,-1.3400,0.6400,6.4375,-1.2500,-1.1875,-0.6506,0.2065,-0.7206,-0.1221,
2025-03-06 20:20:08.410,9.6600,-1.3600,0.6300,6.4375,-1.2500,-1.1875,-0.6507,0.2061,-0.7206,-0.1218,
2025-03-06 20:20:08.430,9.6300,-1.3900,0.6100,6.5000,-1.2500,-1.6875,-0.6509,0.2056,-0.7206,-0.1215,
2025-03-06 20:20:08.440,9.6400,-1.4400,0.6000,6.8750,-0.6875,-2.1250,-0.6511,0.2051,-0.7207,-0.1213,
2025-03-06 20:20:08.440,9.6200,-1.4800,0.6100,7.0625,-0.8750,-2.3125,-0.6512,0.2045,-0.7207,-0.1210,
2025-03-06 20:20:08.451,9.6400,-1.5000,0.5800,7.3750,-1.1250,-2.3125,-0.6514,0.2040,-0.7207,-0.1207,
2025-03-06 20:20:08.459,9.6500,-1.4900,0.5900,7.3750,-1.1250,-2.3125,-0.6516,0.2035,-0.7208,-0.1204,
2025-03-06 20:20:08.471,9.6600,-1.4800,0.6200,8.1250,-1.9375,-2.1875,-0.6519,0.2029,-0.7208,-0.1200,
2025-03-06 20:20:08.479,9.7200,-1.4300,0.5900,8.2500,-2.3125,-2.0625,-0.6521,0.2023,-0.7208,-0.1196,
2025-03-06 20:20:08.492,9.7300,-1.3500,0.6200,8.8750,-2.2500,-1.8125,-0.6524,0.2017,-0.7208,-0.1192,
2025-03-06 20:20:08.499,9.7300,-1.3500,0.5400,9.1875,-2.1250,-1.6250,-0.6526,0.2011,-0.7208,-0.1188,
2025-03-06 20:20:08.509,9.7300,-1.3400,0.5400,9.3750,-1.9375,-1.5625,-0.6529,0.2004,-0.7208,-0.1183,
2025-03-06 20:20:08.522,9.7300,-1.3400,0.5200,8.9375,-1.6875,-1.5000,-0.6531,0.1998,-0.7209,-0.1179,
2025-03-06 20:20:08.529,9.7600,-1.3900,0.4900,8.0625,-1.5625,-1.6875,-0.6533,0.1993,-0.7209,-0.1175,
2025-03-06 20:20:08.541,9.7800,-1.4000,0.5200,6.9375,-1.5000,-1.6250,-0.6536,0.1989,-0.7208,-0.1171,
2025-03-06 20:20:08.550,9.8200,-1.3500,0.5600,6.3750,-1.3125,-1.8750,-0.6538,0.1984,-0.7208,-0.1169,
2025-03-06 20:20:08.562,9.7500,-1.3600,0.5700,6.2500,-1.1875,-1.6250,-0.6539,0.1979,-0.7209,-0.1166,
2025-03-06 20:20:08.570,9.6800,-1.3500,0.6100,6.1250,-1.0625,-1.8125,-0.6541,0.1975,-0.7209,-0.1163,
2025-03-06 20:20:08.629,9.6500,-1.3800,0.5900,6.0625,-1.1875,-1.7500,-0.6542,0.1970,-0.7209,-0.1161,
2025-03-06 20:20:08.632,9.6400,-1.3700,0.5900,6.0625,-1.3750,-1.7500,-0.6544,0.1965,-0.7209,-0.1158,
2025-03-06 20:20:08.632,9.6900,-1.3600,0.5800,6.0000,-1.3750,-2.1250,-0.6546,0.1961,-0.7209,-0.1156,
2025-03-06 20:20:08.632,9.7100,-1.3300,0.5700,5.8125,-1.4375,-2.2500,-0.6548,0.1956,-0.7209,-0.1154,
2025-03-06 20:20:08.632,9.7500,-1.2600,0.5500,5.4375,-1.6250,-2.4375,-0.6550,0.1952,-0.7208,-0.1152,
2025-03-06 20:20:08.632,9.7800,-1.1800,0.5800,4.9375,-1.6875,-2.6250,-0.6552,0.1948,-0.7208,-0.1150,
2025-03-06 20:20:08.640,9.7300,-1.1600,0.5900,4.5625,-1.3125,-2.5625,-0.6554,0.1943,-0.7208,-0.1149,
2025-03-06 20:20:08.649,9.7200,-1.2000,0.6300,4.3750,-0.8125,-2.6250,-0.6555,0.1939,-0.7208,-0.1148,
2025-03-06 20:20:08.677,9.7400,-1.2200,0.6100,4.0000,-0.6875,-2.5625,-0.6556,0.1935,-0.7208,-0.1147,
2025-03-06 20:20:08.677,9.7200,-1.2500,0.6100,3.2500,-0.5625,-2.7500,-0.6557,0.1932,-0.7208,-0.1147,
2025-03-06 20:20:08.701,9.7500,-1.2300,0.5900,2.6250,-0.6875,-2.7500,-0.6558,0.1929,-0.7208,-0.1147,
2025-03-06 20:20:08.701,9.7700,-1.1800,0.5700,2.2500,-0.7500,-2.7500,-0.6559,0.1926,-0.7208,-0.1148,
2025-03-06 20:20:08.701,9.7400,-1.1600,0.5200,2.1875,-0.5625,-2.5000,-0.6560,0.1923,-0.7208,-0.1148,
2025-03-06 20:20:08.730,9.7000,-1.2100,0.5200,1.7500,-0.4375,-2.3125,-0.6561,0.1921,-0.7208,-0.1149,
2025-03-06 20:20:08.730,9.6600,-1.2800,0.5200,0.9375,-0.1875,-2.2500,-0.6561,0.1919,-0.7207,-0.1149,
2025-03-06 20:20:08.732,9.6600,-1.3100,0.5500,0.6250,-0.1250,-2.1875,-0.6562,0.1918,-0.7207,-0.1151,
2025-03-06 20:20:08.739,9.6800,-1.3100,0.6300,0.4375,-0.1875,-2.1875,-0.6562,0.1916,-0.7207,-0.1152,
2025-03-06 20:20:08.751,9.7500,-1.3500,0.6400,0.8125,-0.4375,-2.2500,-0.6563,0.1915,-0.7207,-0.1152,
2025-03-06 20:20:08.770,9.7600,-1.3100,0.6400,1.1875,-0.4375,-2.0000,-0.6563,0.1913,-0.7207,-0.1153,
2025-03-06 20:20:08.779,9.7900,-1.2100,0.5500,1.7500,-0.6250,-1.8750,-0.6564,0.1911,-0.7206,-0.1153,
2025-03-06 20:20:08.779,9.7300,-1.1700,0.4900,2.3125,-0.5000,-1.5000,-0.6565,0.1909,-0.7206,-0.1152,
2025-03-06 20:20:08.789,9.6600,-1.1700,0.4800,2.6875,-0.4375,-1.1875,-0.6566,0.1906,-0.7206,-0.1152,
2025-03-06 20:20:08.810,9.6600,-1.2100,0.4700,2.3125,-0.3750,-0.8750,-0.6566,0.1904,-0.7206,-0.1151,
2025-03-06 20:20:08.810,9.7300,-1.2500,0.6000,1.0625,-0.3125,-0.6875,-0.6566,0.1904,-0.7207,-0.1151,
2025-03-06 20:20:08.830,9.7600,-1.2500,0.6000,0.1875,-0.1250,-0.5625,-0.6566,0.1904,-0.7207,-0.1151,
2025-03-06 20:20:08.830,9.8100,-1.2300,0.6300,0.1250,-0.1875,-0.3750,-0.6566,0.1904,-0.7207,-0.1151,
2025-03-06 20:20:08.841,9.8200,-1.1700,0.5900,0.9375,-0.2500,-0.5000,-0.6566,0.1903,-0.7207,-0.1151,
2025-03-06 20:20:08.849,9.7600,-1.1600,0.5500,1.7500,-0.3125,-0.6875,-0.6567,0.1902,-0.7207,-0.1150,
2025-03-06 20:20:08.859,9.7400,-1.1800,0.5400,1.8750,-0.2500,-0.6250,-0.6567,0.1900,-0.7207,-0.1149,
2025-03-06 20:20:08.871,9.6900,-1.2000,0.5100,1.3750,-0.3125,-0.6875,-0.6567,0.1899,-0.7207,-0.1149,
2025-03-06 20:20:08.880,9.6500,-1.2100,0.5700,0.8750,-0.1250,-0.8125,-0.6568,0.1898,-0.7207,-0.1149,
2025-03-06 20:20:08.920,9.6400,-1.2300,0.5500,0.5625,0.1250,-0.6875,-0.6568,0.1898,-0.7207,-0.1149,
2025-03-06 20:20:08.920,9.6600,-1.2100,0.5900,0.2500,0.1875,-0.9375,-0.6568,0.1897,-0.7207,-0.1150,
2025-03-06 20:20:08.920,9.7500,-1.1900,0.5200,0.5000,-0.1250,-0.8750,-0.6569,0.1896,-0.7207,-0.1150,
2025-03-06 20:20:08.920,9.7600,-1.1400,0.4900,0.8125,0.0000,-0.9375,-0.6569,0.1896,-0.7207,-0.1151,
2025-03-06 20:20:08.930,9.7500,-1.0900,0.5200,0.6875,0.1250,-0.9375,-0.6569,0.1895,-0.7206,-0.1151,
2025-03-06 20:20:08.941,9.7800,-1.0600,0.5000,0.1250,-0.1250,-1.0625,-0.6570,0.1894,-0.7206,-0.1151,
2025-03-06 20:20:08.950,9.7600,-1.0900,0.5300,-0.5000,0.0000,-1.0000,-0.6570,0.1893,-0.7206,-0.1152,
2025-03-06 20:20:08.970,9.7500,-1.1200,0.5600,-1.1250,0.0000,-1.2500,-0.6570,0.1893,-0.7205,-0.1154,
2025-03-06 20:20:08.977,9.7900,-1.1500,0.6000,-1.6250,0.3750,-1.1875,-0.6571,0.1893,-0.7205,-0.1155,
2025-03-06 20:20:08.989,9.8000,-1.1500,0.6100,-1.8125,0.2500,-1.1250,-0.6570,0.1894,-0.7204,-0.1157,
2025-03-06 20:20:09.009,9.7700,-1.1400,0.5900,-1.3750,0.3125,-1.0000,-0.6570,0.1895,-0.7204,-0.1158,
2025-03-06 20:20:09.009,9.7700,-1.1300,0.5400,-0.6250,0.5625,-0.8750,-0.6570,0.1894,-0.7204,-0.1159,
2025-03-06 20:20:09.010,9.7400,-1.1300,0.5000,-0.5625,0.5000,-0.8750,-0.6571,0.1893,-0.7203,-0.1160,
2025-03-06 20:20:09.029,9.7100,-1.1300,0.5300,-1.2500,0.7500,-0.8750,-0.6571,0.1894,-0.7204,-0.1162,
2025-03-06 20:20:09.040,9.6900,-1.1400,0.6000,-2.2500,0.8125,-0.9375,-0.6570,0.1895,-0.7204,-0.1163,
2025-03-06 20:20:09.040,9.6800,-1.2200,0.6100,-2.8750,0.7500,-0.7500,-0.6569,0.1896,-0.7204,-0.1165,
2025-03-06 20:20:09.051,9.6700,-1.2800,0.6400,-2.7500,0.8125,-0.6875,-0.6569,0.1897,-0.7203,-0.1168,
2025-03-06 20:20:09.060,9.7100,-1.3100,0.6100,-2.3125,0.5000,-0.6250,-0.6569,0.1898,-0.7203,-0.1169,
2025-03-06 20:20:09.071,9.7100,-1.2800,0.6000,-1.6250,0.1250,-0.6250,-0.6569,0.1899,-0.7203,-0.1170,
2025-03-06 20:20:09.079,9.7400,-1.2500,0.6000,-1.0000,-0.0625,-0.6250,-0.6569,0.1899,-0.7202,-0.1171,
2025-03-06 20:20:09.090,9.7400,-1.1900,0.5800,-0.5625,-0.2500,-0.5000,-0.6569,0.1899,-0.7202,-0.1171,
2025-03-06 20:20:09.110,9.7000,-1.2100,0.6100,-0.5000,0.1875,-0.6875,-0.6569,0.1899,-0.7202,-0.1171,
2025-03-06 20:20:09.121,9.6800,-1.2500,0.6200,-0.8750,0.3750,-0.6250,-0.6569,0.1899,-0.7202,-0.1172,
2025-03-06 20:20:09.121,9.6700,-1.3100,0.6200,-1.0625,0.0625,-0.7500,-0.6569,0.1899,-0.7202,-0.1173,
2025-03-06 20:20:09.134,9.6900,-1.3500,0.6000,-0.7500,0.0625,-0.5625,-0.6569,0.1901,-0.7202,-0.1174,
2025-03-06 20:20:09.171,9.7100,-1.3000,0.6300,-0.1875,-0.1250,-0.5000,-0.6569,0.1901,-0.7202,-0.1173,
2025-03-06 20:20:09.171,9.7100,-1.2400,0.5800,0.4375,-0.4375,-0.1875,-0.6569,0.1901,-0.7202,-0.1173,
2025-03-06 20:20:09.171,9.7200,-1.1800,0.5600,0.6875,-0.5625,-0.2500,-0.6569,0.1901,-0.7202,-0.1173,
2025-03-06 20:20:09.179,9.7300,-1.1700,0.5300,0.6875,-0.3750,-0.1250,-0.6569,0.1900,-0.7202,-0.1172,
2025-03-06 20:20:09.210,9.6900,-1.1800,0.5900,0.5625,-0.1875,-0.1250,-0.6569,0.1900,-0.7202,-0.1172,
2025-03-06 20:20:09.219,9.6700,-1.2300,0.5800,0.0625,-0.1250,0.0000,-0.6569,0.1900,-0.7202,-0.1172,
2025-03-06 20:20:09.219,9.7200,-1.2600,0.6000,0.1875,-0.3750,-0.1250,-0.6569,0.1900,-0.7202,-0.1172,
2025-03-06 20:20:09.219,9.7500,-1.2600,0.5700,0.6250,-0.4375,0.0625,-0.6569,0.1900,-0.7202,-0.1172,
2025-03-06 20:20:09.224,9.7600,-1.2200,0.5400,0.9375,-0.6875,0.1875,-0.6570,0.1899,-0.7201,-0.1171,
2025-03-06 20:20:09.234,9.7900,-1.1400,0.5100,1.1250,-0.8750,0.3750,-0.6570,0.1899,-0.7201,-0.1170,
2025-03-06 20:20:09.249,9.7500,-1.1200,0.4800,0.8750,-0.6875,0.1250,-0.6571,0.1898,-0.7201,-0.1169,
2025-03-06 20:20:09.256,9.7500,-1.1200,0.5200,0.4375,-0.3750,0.1250,-0.6571,0.1898,-0.7201,-0.1169,
2025-03-06 20:20:09.275,9.7200,-1.1600,0.5800,0.0000,0.0625,-0.1875,-0.6571,0.1898,-0.7201,-0.1169,
2025-03-06 20:20:09.275,9.6900,-1.3000,0.6000,-0.4375,0.0000,-0.3125,-0.6571,0.1899,-0.7200,-0.1169,
2025-03-06 20:20:09.285,9.7100,-1.3100,0.6200,-0.6250,-0.0625,-0.1250,-0.6571,0.1899,-0.7200,-0.1170,
2025-03-06 20:20:09.297,9.7100,-1.3000,0.5900,-0.1250,-0.3750,-0.1250,-0.6571,0.1899,-0.7200,-0.1169,
2025-03-06 20:20:09.305,9.7500,-1.2300,0.5600,0.6875,-0.4375,0.0625,-0.6572,0.1899,-0.7200,-0.1169,
2025-03-06 20:20:09.314,9.7500,-1.1800,0.4900,1.1250,-0.5625,0.1250,-0.6572,0.1898,-0.7200,-0.1168,
2025-03-06 20:20:09.324,9.7800,-1.1500,0.4900,1.1875,-0.5000,0.1250,-0.6572,0.1898,-0.7200,-0.1168,
2025-03-06 20:20:09.334,9.7700,-1.1300,0.5100,0.7500,-0.0625,0.0625,-0.6572,0.1897,-0.7200,-0.1167,
2025-03-06 20:20:09.344,9.7400,-1.2500,0.5700,-0.0625,0.0000,-0.1875,-0.6572,0.1897,-0.7200,-0.1167,
2025-03-06 20:20:09.353,9.7300,-1.3000,0.6000,-0.3125,0.1250,-0.1875,-0.6572,0.1897,-0.7200,-0.1167,
2025-03-06 20:20:09.365,9.7400,-1.3100,0.6100,0.0000,-0.1875,-0.1250,-0.6572,0.1897,-0.7200,-0.1167,
2025-03-06 20:20:09.374,9.7600,-1.2400,0.5800,0.6250,-0.5000,-0.1875,-0.6572,0.1897,-0.7200,-0.1167,
2025-03-06 20:20:09.384,9.7500,-1.1500,0.5700,1.0000,-0.6250,-0.2500,-0.6573,0.1896,-0.7200,-0.1166,
2025-03-06 20:20:09.397,9.7800,-1.1300,0.5300,0.9375,-0.6875,-0.0625,-0.6574,0.1896,-0.7200,-0.1166,
2025-03-06 20:20:09.415,9.7900,-1.0700,0.5000,0.7500,-0.2500,-0.1875,-0.6573,0.1895,-0.7200,-0.1165,
2025-03-06 20:20:09.415,9.7400,-1.1400,0.4800,0.3750,0.3125,-0.2500,-0.6573,0.1895,-0.7200,-0.1165,
2025-03-06 20:20:09.423,9.7000,-1.1400,0.4400,-0.0625,0.5000,-0.0625,-0.6573,0.1895,-0.7200,-0.1165,
2025-03-06 20:20:09.435,9.7000,-1.2100,0.5000,-0.6875,0.5000,-0.1250,-0.6573,0.1896,-0.7200,-0.1166,
2025-03-06 20:20:09.452,9.7500,-1.2700,0.5700,-1.3750,0.4375,-0.1250,-0.6573,0.1896,-0.7200,-0.1166,
2025-03-06 20:20:09.457,9.7600,-1.2600,0.5800,-1.5000,0.0625,-0.2500,-0.6573,0.1896,-0.7200,-0.1166,
2025-03-06 20:20:09.462,9.7500,-1.2500,0.6300,-1.5625,-0.1250,-0.1875,-0.6573,0.1898,-0.7200,-0.1167,
2025-03-06 20:20:09.509,9.7600,-1.2300,0.5800,-1.2500,-0.2500,-0.2500,-0.6573,0.1899,-0.7199,-0.1169,
2025-03-06 20:20:09.509,9.6800,-1.1600,0.5400,-0.3750,-0.2500,-0.2500,-0.6573,0.1899,-0.7199,-0.1169,
2025-03-06 20:20:09.509,9.6500,-1.1400,0.5600,0.0625,-0.2500,-0.1250,-0.6573,0.1899,-0.7199,-0.1169,
2025-03-06 20:20:09.520,9.7100,-1.1300,0.5500,0.1250,-0.3125,0.0000,-0.6573,0.1899,-0.7199,-0.1169,
2025-03-06 20:20:09.520,9.7500,-1.1500,0.5500,-0.4375,-0.1875,0.0000,-0.6573,0.1899,-0.7199,-0.1169,
2025-03-06 20:20:09.521,9.7800,-1.1600,0.5300,-0.8750,0.1250,-0.0625,-0.6573,0.1899,-0.7199,-0.1169,
2025-03-06 20:20:09.534,9.7600,-1.2100,0.5200,-1.1250,0.4375,-0.0625,-0.6572,0.1901,-0.7199,-0.1170,
2025-03-06 20:20:09.549,9.7500,-1.2400,0.5200,-1.0625,0.6250,-0.1875,-0.6572,0.1901,-0.7199,-0.1171,
2025-03-06 20:20:09.549,9.7500,-1.3400,0.5600,-0.6250,0.4375,-0.3125,-0.6572,0.1901,-0.7199,-0.1171,
2025-03-06 20:20:09.569,9.7100,-1.3000,0.5800,-0.3750,0.0000,-0.3750,-0.6572,0.1901,-0.7199,-0.1171,
2025-03-06 20:20:09.569,9.7300,-1.2500,0.5600,-0.3125,-0.4375,-0.3125,-0.6572,0.1901,-0.7199,-0.1171,
2025-03-06 20:20:09.580,9.7400,-1.1900,0.5600,-0.5000,-0.6250,-0.3750,-0.6572,0.1901,-0.7199,-0.1171,
2025-03-06 20:20:09.591,9.7000,-1.1900,0.5600,-0.5000,-0.6250,-0.3750,-0.6573,0.1901,-0.7198,-0.1171,
2025-03-06 20:20:09.600,9.7100,-1.2100,0.5600,-0.4375,-0.1875,-0.6250,-0.6573,0.1901,-0.7198,-0.1171,
2025-03-06 20:20:09.620,9.7100,-1.2100,0.5400,-0.6875,-0.2500,-0.5625,-0.6573,0.1902,-0.7198,-0.1171,
2025-03-06 20:20:09.620,9.7300,-1.1800,0.5600,-0.5625,-0.2500,-0.3125,-0.6573,0.1902,-0.7198,-0.1171,
2025-03-06 20:20:09.636,9.7500,-1.1600,0.5700,-0.3750,-0.1875,-0.5000,-0.6573,0.1902,-0.7198,-0.1171,
2025-03-06 20:20:09.640,9.7900,-1.1400,0.5700,-0.1875,-0.1875,-0.6250,-0.6573,0.1901,-0.7198,-0.1172,
2025-03-06 20:20:09.652,9.8200,-1.1300,0.5600,0.0000,-0.1250,-0.7500,-0.6573,0.1901,-0.7198,-0.1172,
2025-03-06 20:20:09.659,9.8000,-1.1200,0.5600,0.3125,0.1875,-0.9375,-0.6573,0.1900,-0.7198,-0.1173,
2025-03-06 20:20:09.669,9.7700,-1.1700,0.5300,0.0000,0.4375,-0.8750,-0.6573,0.1900,-0.7198,-0.1174,
2025-03-06 20:20:09.681,9.7800,-1.2000,0.5400,-0.0625,0.3125,-1.1250,-0.6574,0.1899,-0.7197,-0.1174,
2025-03-06 20:20:09.694,9.7800,-1.2300,0.5500,-0.2500,0.1250,-1.0625,-0.6574,0.1899,-0.7197,-0.1175,
2025-03-06 20:20:09.703,9.7900,-1.2000,0.5600,-0.0625,0.0625,-1.1875,-0.6574,0.1898,-0.7197,-0.1176,
2025-03-06 20:20:09.715,9.7700,-1.1700,0.5200,0.3125,-0.0625,-1.2500,-0.6574,0.1897,-0.7197,-0.1176,
2025-03-06 20:20:09.721,9.7900,-1.1400,0.5200,0.6875,-0.1875,-1.4375,-0.6574,0.1896,-0.7197,-0.1177,
2025-03-06 20:20:09.730,9.7500,-1.1300,0.5600,0.5000,-0.2500,-1.4375,-0.6575,0.1895,-0.7197,-0.1177,
2025-03-06 20:20:09.740,9.7500,-1.1200,0.5600,-0.1875,-0.1250,-1.4375,-0.6575,0.1895,-0.7197,-0.1179,
2025-03-06 20:20:09.759,9.7400,-1.1500,0.5900,-0.6875,0.3125,-1.4375,-0.6575,0.1895,-0.7197,-0.1179,
2025-03-06 20:20:09.764,9.7300,-1.1900,0.5600,-0.5000,0.6250,-1.6250,-0.6575,0.1893,-0.7197,-0.1181,
2025-03-06 20:20:09.779,9.7700,-1.1900,0.5200,-0.1250,0.6875,-1.6875,-0.6575,0.1892,-0.7197,-0.1182,
2025-03-06 20:20:09.829,9.7600,-1.1600,0.5500,0.3125,0.3125,-1.6875,-0.6575,0.1891,-0.7197,-0.1183,
2025-03-06 20:20:09.829,9.7700,-1.1400,0.5400,0.7500,0.1250,-1.6250,-0.6575,0.1890,-0.7197,-0.1183,
2025-03-06 20:20:09.829,9.7400,-1.0600,0.5600,1.0000,0.0000,-1.5625,-0.6575,0.1890,-0.7197,-0.1183,
2025-03-06 20:20:09.829,9.7500,-1.0700,0.5700,1.1250,0.0625,-1.7500,-0.6576,0.1887,-0.7197,-0.1185,
2025-03-06 20:20:09.829,9.7400,-1.0900,0.5500,0.8125,0.3125,-1.6875,-0.6577,0.1885,-0.7197,-0.1185,
2025-03-06 20:20:09.829,9.7400,-1.1400,0.5100,0.6875,0.3750,-1.9375,-0.6577,0.1884,-0.7197,-0.1186,
2025-03-06 20:20:09.857,9.7300,-1.1300,0.5500,0.6250,0.7500,-2.0000,-0.6576,0.1882,-0.7197,-0.1187,
2025-03-06 20:20:09.861,9.7500,-1.1400,0.5400,0.6250,0.5625,-2.0000,-0.6577,0.1881,-0.7197,-0.1188,
2025-03-06 20:20:09.861,9.7500,-1.1200,0.5400,0.6250,0.4375,-2.0000,-0.6577,0.1879,-0.7197,-0.1188,
2025-03-06 20:20:09.874,9.7300,-1.1000,0.5000,0.9375,0.5625,-2.0000,-0.6578,0.1877,-0.7197,-0.1190,
2025-03-06 20:20:09.896,9.7300,-1.1200,0.5300,0.8750,0.5000,-1.8750,-0.6578,0.1876,-0.7197,-0.1190,
2025-03-06 20:20:09.897,9.7300,-1.1600,0.5500,0.6250,0.4375,-1.9375,-0.6578,0.1874,-0.7197,-0.1191,
2025-03-06 20:20:09.909,9.7900,-1.1700,0.5800,0.2500,0.5000,-1.9375,-0.6579,0.1873,-0.7196,-0.1192,
2025-03-06 20:20:09.911,9.7700,-1.1400,0.5800,-0.1250,0.5625,-1.8125,-0.6579,0.1872,-0.7196,-0.1193,
2025-03-06 20:20:09.920,9.7900,-1.1200,0.5900,-0.1875,0.6875,-1.8125,-0.6579,0.1871,-0.7197,-0.1194,
2025-03-06 20:20:09.940,9.8100,-1.0900,0.5700,0.0625,0.6250,-1.5625,-0.6579,0.1870,-0.7197,-0.1196,
2025-03-06 20:20:09.940,9.7800,-1.0100,0.5700,0.1875,0.7500,-1.6875,-0.6579,0.1869,-0.7197,-0.1196,
2025-03-06 20:20:09.970,9.7500,-0.9900,0.5600,0.1875,0.8125,-1.7500,-0.6578,0.1868,-0.7197,-0.1198,
2025-03-06 20:20:09.970,9.7100,-1.0300,0.5800,-0.2500,0.8125,-1.7500,-0.6578,0.1867,-0.7197,-0.1199,
2025-03-06 20:20:09.981,9.6600,-1.1100,0.5700,-1.0000,1.0625,-1.6875,-0.6578,0.1866,-0.7198,-0.1201,
2025-03-06 20:20:09.981,9.6400,-1.1400,0.5800,-1.3750,1.0625,-1.5625,-0.6577,0.1866,-0.7198,-0.1202,
2025-03-06 20:20:09.990,9.6500,-1.1800,0.5800,-1.5625,0.8750,-1.1875,-0.6577,0.1867,-0.7198,-0.1204,
2025-03-06 20:20:10.005,9.6600,-1.2100,0.5900,-1.4375,0.6250,-1.2500,-0.6577,0.1866,-0.7198,-0.1206,
2025-03-06 20:20:10.010,9.7100,-1.1800,0.6000,-1.2500,0.4375,-0.9375,-0.6576,0.1867,-0.7198,-0.1207,
2025-03-06 20:20:10.024,9.7300,-1.1800,0.5400,-1.0625,0.0000,-0.8125,-0.6577,0.1867,-0.7197,-0.1209,
2025-03-06 20:20:10.032,9.7400,-1.1600,0.5700,-0.8125,0.0000,-0.6250,-0.6577,0.1867,-0.7197,-0.1209,
2025-03-06 20:20:10.045,9.7200,-1.1400,0.6700,-0.7500,-0.0625,-0.5625,-0.6576,0.1868,-0.7197,-0.1210,
2025-03-06 20:20:10.053,9.7400,-1.1400,0.6500,-0.8125,-0.0625,-0.6250,-0.6577,0.1868,-0.7197,-0.1210,
2025-03-06 20:20:10.070,9.7200,-1.1400,0.6600,-0.8750,0.1250,-0.4375,-0.6577,0.1868,-0.7197,-0.1211,
2025-03-06 20:20:10.074,9.7300,-1.1400,0.6400,-0.6250,0.1250,-0.1875,-0.6576,0.1869,-0.7197,-0.1212,
2025-03-06 20:20:10.123,9.7300,-1.1500,0.6500,-0.4375,0.3125,-0.1875,-0.6576,0.1869,-0.7197,-0.1212,
2025-03-06 20:20:10.123,9.7200,-1.1400,0.6400,-0.1250,0.1875,0.0625,-0.6576,0.1869,-0.7197,-0.1212,
2025-03-06 20:20:10.123,9.7400,-1.1700,0.6200,0.3125,0.1250,0.0625,-0.6576,0.1869,-0.7197,-0.1212,
2025-03-06 20:20:10.123,9.7500,-1.1500,0.5800,0.5625,0.0625,0.4375,-0.6576,0.1869,-0.7197,-0.1212,
2025-03-06 20:20:10.125,9.7400,-1.1500,0.5900,0.5000,0.1875,0.4375,-0.6576,0.1869,-0.7197,-0.1212,
2025-03-06 20:20:10.134,9.7300,-1.1700,0.5700,0.3750,0.1875,0.3125,-0.6576,0.1869,-0.7197,-0.1212,
2025-03-06 20:20:10.146,9.7000,-1.1700,0.5500,0.3125,-0.0625,0.5000,-0.6576,0.1869,-0.7197,-0.1212,
