A1,,,,,,,,,,,
time,accx,accy,accz,gyrox,gyroy,gyroz,w1,w2,w3,w4,
2025-03-06 20:43:32.395,9.6800,-0.3600,1.4000,-0.0625,0.3125,-0.3750,-0.6263,0.1813,-0.7359,-0.1828,
2025-03-06 20:43:32.406,9.6400,-0.3600,1.3900,0.5000,0.3125,-0.1250,-0.6263,0.1813,-0.7359,-0.1828,
2025-03-06 20:43:32.413,9.6500,-0.3600,1.4400,0.8750,0.1250,-0.0625,-0.6263,0.1813,-0.7359,-0.1828,
2025-03-06 20:43:32.423,9.7200,-0.3500,1.4700,0.3750,-0.0625,-0.1875,-0.6263,0.1812,-0.7359,-0.1827,
2025-03-06 20:43:32.434,9.7600,-0.3900,1.5000,-0.2500,-0.0625,-0.1875,-0.6263,0.1812,-0.7359,-0.1827,
2025-03-06 20:43:32.447,9.7800,-0.4000,1.4300,-0.4375,0.0625,-0.5000,-0.6263,0.1812,-0.7359,-0.1827,
2025-03-06 20:43:32.453,9.7400,-0.4200,1.4100,-0.5000,0.2500,-0.3125,-0.6263,0.1812,-0.7359,-0.1827,
2025-03-06 20:43:32.463,9.7300,-0.4400,1.3900,-0.1875,0.0625,-0.3125,-0.6263,0.1812,-0.7359,-0.1827,
2025-03-06 20:43:32.478,9.7100,-0.4400,1.4400,0.0625,-0.2500,-0.1875,-0.6263,0.1812,-0.7359,-0.1827,
2025-03-06 20:43:32.486,9.6900,-0.4000,1.4600,-0.0625,-0.4375,-0.1875,-0.6263,0.1812,-0.7359,-0.1827,
2025-03-06 20:43:32.493,9.6900,-0.3900,1.4700,0.5000,-0.3750,-0.1250,-0.6263,0.1812,-0.7359,-0.1827,
2025-03-06 20:43:32.523,9.6600,-0.3900,1.4700,0.9375,-0.3750,-0.1250,-0.6263,0.1812,-0.7359,-0.1827,
2025-03-06 20:43:32.523,9.6600,-0.3600,1.4900,0.8750,-0.5000,-0.1250,-0.6263,0.1812,-0.7359,-0.1827,
2025-03-06 20:43:32.525,9.6500,-0.3900,1.4900,0.9375,-0.4375,-0.1875,-0.6263,0.1811,-0.7359,-0.1827,
2025-03-06 20:43:32.533,9.6500,-0.4100,1.4900,0.6875,-0.4375,-0.2500,-0.6263,0.1810,-0.7359,-0.1826,
2025-03-06 20:43:32.545,9.6800,-0.4100,1.4300,0.6875,-0.5000,-0.0625,-0.6263,0.1810,-0.7360,-0.1826,
2025-03-06 20:43:32.554,9.7200,-0.3800,1.4500,1.0000,-0.5000,0.1875,-0.6263,0.1810,-0.7360,-0.1826,
2025-03-06 20:43:32.564,9.7700,-0.3400,1.4700,1.4375,-0.5625,0.1875,-0.6263,0.1809,-0.7360,-0.1825,
2025-03-06 20:43:32.572,9.7700,-0.3400,1.4700,1.6250,-0.6250,0.2500,-0.6264,0.1808,-0.7360,-0.1824,
2025-03-06 20:43:32.582,9.7900,-0.3300,1.4400,1.3125,-0.5625,0.1250,-0.6265,0.1807,-0.7360,-0.1823,
2025-03-06 20:43:32.595,9.7500,-0.3600,1.5000,1.0000,-0.3750,0.1250,-0.6265,0.1806,-0.7360,-0.1822,
2025-03-06 20:43:32.603,9.7100,-0.4200,1.5400,0.8750,-0.2500,-0.2500,-0.6265,0.1805,-0.7360,-0.1822,
2025-03-06 20:43:32.616,9.6700,-0.4700,1.5700,0.9375,-0.1875,-0.1875,-0.6265,0.1805,-0.7360,-0.1821,
2025-03-06 20:43:32.624,9.6700,-0.4700,1.5700,1.6875,-0.1250,-0.3125,-0.6265,0.1804,-0.7361,-0.1821,
2025-03-06 20:43:32.634,9.6300,-0.5400,1.5400,2.6250,-0.3750,-0.3125,-0.6265,0.1804,-0.7361,-0.1820,
2025-03-06 20:43:32.646,9.7100,-0.5000,1.4700,3.2500,-0.6250,-0.4375,-0.6266,0.1802,-0.7361,-0.1818,
2025-03-06 20:43:32.653,9.7400,-0.4200,1.4900,3.6250,-1.0000,-0.3750,-0.6267,0.1800,-0.7361,-0.1816,
2025-03-06 20:43:32.663,9.7200,-0.2900,1.4600,4.0000,-0.9375,-0.3750,-0.6268,0.1797,-0.7361,-0.1815,
2025-03-06 20:43:32.672,9.7200,-0.2900,1.4600,4.3750,-1.0625,-0.2500,-0.6269,0.1795,-0.7362,-0.1812,
2025-03-06 20:43:32.685,9.7600,-0.2700,1.4300,4.3750,-0.7500,-0.3750,-0.6270,0.1793,-0.7362,-0.1810,
2025-03-06 20:43:32.692,9.7300,-0.3000,1.3900,3.8750,-0.3750,-0.6250,-0.6271,0.1790,-0.7362,-0.1807,
2025-03-06 20:43:32.703,9.6900,-0.3000,1.4200,3.4375,-0.3125,-0.6250,-0.6272,0.1787,-0.7362,-0.1806,
2025-03-06 20:43:32.714,9.6600,-0.3400,1.4100,3.1875,-0.2500,-0.6250,-0.6273,0.1785,-0.7363,-0.1804,
2025-03-06 20:43:32.722,9.6600,-0.3400,1.4100,3.0625,-0.5000,-0.6250,-0.6273,0.1782,-0.7363,-0.1803,
2025-03-06 20:43:32.732,9.6500,-0.4000,1.4300,2.9375,-0.5625,-0.8125,-0.6274,0.1780,-0.7363,-0.1802,
2025-03-06 20:43:32.747,9.6500,-0.4600,1.4500,3.0625,-0.7500,-0.7500,-0.6274,0.1778,-0.7364,-0.1801,
2025-03-06 20:43:32.756,9.6300,-0.4600,1.4200,2.9375,-0.9375,-0.6250,-0.6276,0.1776,-0.7364,-0.1799,
2025-03-06 20:43:32.763,9.6700,-0.4100,1.3800,3.1875,-0.8750,-0.5000,-0.6277,0.1774,-0.7364,-0.1798,
2025-03-06 20:43:32.772,9.6700,-0.4100,1.3800,3.1250,-1.0625,-0.3125,-0.6278,0.1772,-0.7364,-0.1796,
2025-03-06 20:43:32.787,9.7100,-0.3700,1.3500,3.2500,-1.0000,-0.0625,-0.6279,0.1770,-0.7364,-0.1794,
2025-03-06 20:43:32.793,9.6800,-0.2900,1.3800,2.9375,-1.0625,0.1875,-0.6280,0.1768,-0.7363,-0.1793,
2025-03-06 20:43:32.815,9.6900,-0.2500,1.4500,2.3125,-1.2500,0.5000,-0.6281,0.1766,-0.7363,-0.1791,
2025-03-06 20:43:32.825,9.7000,-0.2700,1.4500,1.5000,-1.2500,0.7500,-0.6282,0.1765,-0.7363,-0.1790,
2025-03-06 20:43:32.825,9.7000,-0.2900,1.4600,0.8750,-1.0625,0.8125,-0.6283,0.1765,-0.7363,-0.1788,
2025-03-06 20:43:32.833,9.7300,-0.3300,1.3400,0.1875,-0.8750,1.0000,-0.6284,0.1765,-0.7362,-0.1786,
2025-03-06 20:43:32.843,9.7400,-0.3000,1.3200,0.1875,-0.5000,0.9375,-0.6284,0.1766,-0.7362,-0.1786,
2025-03-06 20:43:32.885,9.7300,-0.3000,1.2900,0.1875,-0.6875,1.3125,-0.6284,0.1766,-0.7362,-0.1785,
2025-03-06 20:43:32.898,9.7700,-0.3000,1.2700,0.3125,-0.8125,1.5000,-0.6284,0.1767,-0.7362,-0.1785,
2025-03-06 20:43:32.898,9.7700,-0.3000,1.2700,0.1875,-0.9375,1.4375,-0.6285,0.1768,-0.7362,-0.1783,
2025-03-06 20:43:32.898,9.7400,-0.2800,1.3900,-0.5000,-1.1250,1.3125,-0.6285,0.1769,-0.7362,-0.1782,
2025-03-06 20:43:32.898,9.6800,-0.3900,1.4300,-0.9375,-1.0625,1.0625,-0.6285,0.1769,-0.7361,-0.1781,
2025-03-06 20:43:32.903,9.6900,-0.4500,1.4200,-1.3750,-1.0000,0.6875,-0.6286,0.1771,-0.7361,-0.1781,
2025-03-06 20:43:32.913,9.7000,-0.5000,1.4100,-1.6875,-0.9375,0.7500,-0.6286,0.1772,-0.7360,-0.1781,
2025-03-06 20:43:32.925,9.7000,-0.5000,1.4100,-1.7500,-0.8125,0.7500,-0.6286,0.1774,-0.7359,-0.1782,
2025-03-06 20:43:32.932,9.7000,-0.4900,1.3700,-1.1250,-0.9375,0.6875,-0.6287,0.1775,-0.7359,-0.1782,
2025-03-06 20:43:32.945,9.7800,-0.3200,1.3400,-0.4375,-1.1250,1.0000,-0.6287,0.1777,-0.7358,-0.1782,
2025-03-06 20:43:32.976,9.7700,-0.3200,1.3700,-0.2500,-1.3125,0.8750,-0.6287,0.1777,-0.7358,-0.1781,
2025-03-06 20:43:32.977,9.7700,-0.3000,1.3800,-0.5625,-1.1875,0.6875,-0.6288,0.1778,-0.7357,-0.1780,
2025-03-06 20:43:32.981,9.7700,-0.3000,1.3800,-1.6250,-0.9375,0.4375,-0.6289,0.1779,-0.7356,-0.1780,
2025-03-06 20:43:32.982,9.7500,-0.3200,1.3800,-2.2500,-0.7500,0.4375,-0.6289,0.1780,-0.7356,-0.1780,
2025-03-06 20:43:32.993,9.7200,-0.4300,1.3600,-2.3750,-0.5000,0.1875,-0.6289,0.1782,-0.7355,-0.1782,
2025-03-06 20:43:33.014,9.7400,-0.4800,1.3400,-2.1875,-0.4375,0.2500,-0.6289,0.1783,-0.7355,-0.1783,
2025-03-06 20:43:33.014,9.7400,-0.5600,1.4000,-1.6875,-0.2500,0.2500,-0.6288,0.1784,-0.7355,-0.1784,
2025-03-06 20:43:33.024,9.7400,-0.5900,1.3800,-1.0625,-0.3125,0.0625,-0.6288,0.1785,-0.7354,-0.1785,
2025-03-06 20:43:33.045,9.7100,-0.6200,1.3800,-0.5000,-0.5625,0.0000,-0.6288,0.1786,-0.7354,-0.1785,
2025-03-06 20:43:33.045,9.6800,-0.6300,1.3800,-0.1875,-0.5625,-0.2500,-0.6288,0.1787,-0.7354,-0.1785,
2025-03-06 20:43:33.054,9.7000,-0.6400,1.4000,0.3125,-0.8750,-0.5000,-0.6288,0.1787,-0.7354,-0.1784,
2025-03-06 20:43:33.075,9.7200,-0.6100,1.4400,0.6875,-0.9375,-0.6875,-0.6289,0.1788,-0.7354,-0.1783,
2025-03-06 20:43:33.081,9.7200,-0.6100,1.4400,1.6250,-0.6250,-0.5000,-0.6289,0.1788,-0.7353,-0.1783,
2025-03-06 20:43:33.091,9.7100,-0.6300,1.4300,2.7500,-0.5000,-0.5000,-0.6290,0.1788,-0.7353,-0.1781,
2025-03-06 20:43:33.093,9.6600,-0.6400,1.3700,3.5000,-0.6250,-0.3125,-0.6290,0.1787,-0.7354,-0.1779,
2025-03-06 20:43:33.122,9.6800,-0.6000,1.3600,4.6875,-1.2500,0.0000,-0.6290,0.1786,-0.7354,-0.1776,
2025-03-06 20:43:33.123,9.7000,-0.5500,1.3900,5.5000,-1.3125,0.0000,-0.6292,0.1784,-0.7354,-0.1773,
2025-03-06 20:43:33.123,9.7000,-0.5500,1.3900,6.3750,-1.5625,0.0000,-0.6293,0.1781,-0.7355,-0.1769,
2025-03-06 20:43:33.133,9.7300,-0.5900,1.4500,7.3750,-1.5000,-0.1250,-0.6295,0.1778,-0.7355,-0.1765,
2025-03-06 20:43:33.143,9.7300,-0.6300,1.4000,8.0625,-1.5000,-0.2500,-0.6297,0.1774,-0.7355,-0.1760,
2025-03-06 20:43:33.156,9.7800,-0.6100,1.3400,9.0625,-1.8750,-0.1875,-0.6299,0.1770,-0.7356,-0.1755,
2025-03-06 20:43:33.170,9.7700,-0.5800,1.3000,10.4375,-2.2500,-0.3750,-0.6301,0.1765,-0.7356,-0.1750,
2025-03-06 20:43:33.175,9.7700,-0.5800,1.3000,12.0625,-2.3125,-0.0625,-0.6304,0.1760,-0.7357,-0.1743,
2025-03-06 20:43:33.183,9.7400,-0.5400,1.2800,13.2500,-2.5625,0.0625,-0.6307,0.1753,-0.7357,-0.1736,
2025-03-06 20:43:33.197,9.7300,-0.3700,1.3400,13.5625,-2.9375,0.4375,-0.6311,0.1746,-0.7358,-0.1729,
2025-03-06 20:43:33.210,9.7300,-0.3300,1.3300,13.3125,-2.9375,0.5000,-0.6315,0.1738,-0.7358,-0.1721,
2025-03-06 20:43:33.214,9.7500,-0.2700,1.3300,12.9375,-2.6875,0.5625,-0.6319,0.1730,-0.7358,-0.1713,
2025-03-06 20:43:33.223,9.7500,-0.2700,1.3300,13.0000,-2.6250,1.0000,-0.6323,0.1722,-0.7359,-0.1706,
2025-03-06 20:43:33.233,9.7500,-0.2700,1.2600,12.8750,-2.7500,1.4375,-0.6326,0.1714,-0.7359,-0.1698,
2025-03-06 20:43:33.244,9.7500,-0.2400,1.2500,12.8125,-2.7500,1.6875,-0.6330,0.1708,-0.7360,-0.1689,
2025-03-06 20:43:33.257,9.7400,-0.2300,1.2800,12.5625,-2.8125,1.8125,-0.6333,0.1701,-0.7360,-0.1682,
2025-03-06 20:43:33.266,9.7400,-0.1900,1.2400,12.2500,-2.6875,1.9375,-0.6337,0.1694,-0.7360,-0.1673,
2025-03-06 20:43:33.272,9.7400,-0.1900,1.2400,12.0625,-2.4375,1.9375,-0.6340,0.1688,-0.7361,-0.1665,
2025-03-06 20:43:33.286,9.7900,-0.1300,1.2300,11.6250,-2.2500,2.0000,-0.6344,0.1682,-0.7361,-0.1658,
2025-03-06 20:43:33.299,9.8400,0.0100,1.1400,10.8750,-1.5625,1.9375,-0.6347,0.1675,-0.7361,-0.1650,
2025-03-06 20:43:33.303,9.8300,-0.0200,1.1400,9.6875,-0.6250,2.0625,-0.6350,0.1668,-0.7361,-0.1644,
2025-03-06 20:43:33.314,9.8500,-0.0200,1.0900,8.2500,-0.0625,2.0625,-0.6353,0.1662,-0.7361,-0.1639,
2025-03-06 20:43:33.332,9.8500,-0.0200,1.0900,6.6875,0.2500,1.8750,-0.6356,0.1657,-0.7362,-0.1634,
2025-03-06 20:43:33.335,9.8400,-0.0400,1.0400,5.0000,0.6250,2.0000,-0.6358,0.1652,-0.7361,-0.1630,
2025-03-06 20:43:33.353,9.8200,-0.0700,1.0800,3.3750,0.6250,1.7500,-0.6360,0.1649,-0.7361,-0.1628,
2025-03-06 20:43:33.372,9.8300,-0.1100,1.1700,2.1875,0.3750,1.7500,-0.6361,0.1647,-0.7361,-0.1626,
2025-03-06 20:43:33.372,9.7900,-0.2100,1.3100,1.3750,0.3750,1.4375,-0.6362,0.1646,-0.7360,-0.1624,
2025-03-06 20:43:33.374,9.7900,-0.2100,1.3100,1.1875,0.3750,0.8750,-0.6363,0.1645,-0.7360,-0.1623,
2025-03-06 20:43:33.383,9.8300,-0.2700,1.3300,1.4375,0.2500,0.6875,-0.6363,0.1644,-0.7360,-0.1622,
2025-03-06 20:43:33.399,9.8000,-0.2600,1.2600,1.8125,0.2500,0.5625,-0.6364,0.1644,-0.7360,-0.1621,
2025-03-06 20:43:33.422,9.8100,-0.2700,1.2900,2.0000,0.1250,0.4375,-0.6364,0.1642,-0.7361,-0.1620,
2025-03-06 20:43:33.422,9.8100,-0.2400,1.3200,1.8750,0.1250,0.0625,-0.6364,0.1641,-0.7361,-0.1619,
2025-03-06 20:43:33.424,9.7900,-0.2500,1.3500,1.1875,0.2500,-0.3125,-0.6365,0.1639,-0.7361,-0.1619,
2025-03-06 20:43:33.436,9.7400,-0.3500,1.3300,0.3750,0.3125,-0.7500,-0.6365,0.1639,-0.7361,-0.1618,
2025-03-06 20:43:33.445,9.7200,-0.3300,1.3500,0.2500,0.4375,-1.1875,-0.6365,0.1638,-0.7361,-0.1618,
2025-03-06 20:43:33.458,9.6800,-0.3800,1.3300,0.3125,0.3125,-1.3750,-0.6365,0.1638,-0.7361,-0.1619,
2025-03-06 20:43:33.464,9.6700,-0.3700,1.3500,0.6250,0.3750,-1.4375,-0.6365,0.1637,-0.7361,-0.1620,
2025-03-06 20:43:33.472,9.6700,-0.3700,1.3500,1.0000,0.3125,-1.5000,-0.6366,0.1636,-0.7360,-0.1620,
2025-03-06 20:43:33.486,9.6400,-0.4000,1.3500,1.5625,0.2500,-1.3125,-0.6366,0.1635,-0.7360,-0.1621,
2025-03-06 20:43:33.502,9.6500,-0.4400,1.3300,1.8125,0.1875,-1.4375,-0.6367,0.1633,-0.7360,-0.1621,
2025-03-06 20:43:33.504,9.7000,-0.4900,1.3500,1.9375,-0.0625,-1.3125,-0.6367,0.1631,-0.7361,-0.1621,
2025-03-06 20:43:33.514,9.7400,-0.5100,1.3500,2.0000,-0.1250,-1.2500,-0.6367,0.1629,-0.7361,-0.1620,
2025-03-06 20:43:33.523,9.7400,-0.5100,1.3500,2.1250,-0.1250,-1.3125,-0.6368,0.1627,-0.7361,-0.1620,
2025-03-06 20:43:33.532,9.7500,-0.5200,1.3400,2.3750,-0.2500,-1.1875,-0.6368,0.1626,-0.7361,-0.1619,
2025-03-06 20:43:33.543,9.7400,-0.4400,1.3500,2.8125,-0.2500,-1.0625,-0.6368,0.1624,-0.7361,-0.1618,
2025-03-06 20:43:33.553,9.7500,-0.3900,1.4100,3.0000,-0.3750,-0.6875,-0.6369,0.1622,-0.7362,-0.1617,
2025-03-06 20:43:33.565,9.7400,-0.3900,1.4400,3.1875,-0.6250,-0.5625,-0.6369,0.1620,-0.7362,-0.1616,
2025-03-06 20:43:33.574,9.7400,-0.3900,1.4400,3.1875,-0.6250,-0.5625,-0.6370,0.1618,-0.7362,-0.1614,
2025-03-06 20:43:33.585,9.8100,-0.4500,1.4800,3.0625,-0.5625,-0.3750,-0.6370,0.1616,-0.7363,-0.1612,
2025-03-06 20:43:33.594,9.9200,-0.5700,1.4300,2.5625,0.0625,-1.1250,-0.6370,0.1614,-0.7363,-0.1611,
2025-03-06 20:43:33.603,9.9100,-0.6500,1.3800,2.6875,0.4375,-1.4375,-0.6370,0.1613,-0.7364,-0.1610,
2025-03-06 20:43:33.616,9.8500,-0.6500,1.3700,3.0000,0.7500,-1.6875,-0.6370,0.1611,-0.7365,-0.1608,
2025-03-06 20:43:33.623,9.8500,-0.6500,1.3700,3.7500,0.3750,-1.2500,-0.6370,0.1610,-0.7365,-0.1606,
2025-03-06 20:43:33.636,9.7800,-0.5800,1.4000,4.8750,-0.2500,-0.5625,-0.6370,0.1607,-0.7366,-0.1605,
2025-03-06 20:43:33.649,9.5400,-0.2800,1.4500,6.1875,-0.4375,0.1250,-0.6371,0.1605,-0.7367,-0.1602,
2025-03-06 20:43:33.653,9.5100,-0.2200,1.4600,7.1875,-0.5000,0.7500,-0.6371,0.1601,-0.7368,-0.1598,
2025-03-06 20:43:33.666,9.5100,-0.1800,1.4600,8.0625,-0.1875,1.1250,-0.6372,0.1597,-0.7369,-0.1594,
2025-03-06 20:43:33.675,9.5100,-0.1800,1.4600,8.5625,0.1875,1.3125,-0.6373,0.1593,-0.7370,-0.1589,
2025-03-06 20:43:33.682,9.5000,-0.2300,1.3700,8.5625,0.1875,1.3125,-0.6374,0.1588,-0.7372,-0.1583,
2025-03-06 20:43:33.695,9.5400,-0.3500,1.3900,8.8125,0.2500,1.3125,-0.6375,0.1583,-0.7373,-0.1578,
2025-03-06 20:43:33.725,9.5900,-0.3800,1.3800,9.4375,0.0000,1.3750,-0.6376,0.1578,-0.7374,-0.1572,
2025-03-06 20:43:33.730,9.6400,-0.4300,1.3800,9.8750,-0.5000,1.5000,-0.6377,0.1573,-0.7376,-0.1566,
2025-03-06 20:43:33.730,9.6400,-0.4300,1.3800,10.0000,-0.8750,1.5625,-0.6378,0.1568,-0.7377,-0.1559,
2025-03-06 20:43:33.731,9.6800,-0.4300,1.3700,10.4375,-1.2500,1.7500,-0.6380,0.1563,-0.7378,-0.1553,
2025-03-06 20:43:33.744,9.7500,-0.3700,1.3600,10.4375,-1.6250,1.8125,-0.6382,0.1558,-0.7380,-0.1546,
2025-03-06 20:43:33.774,9.7700,-0.3800,1.3900,10.0625,-1.8125,1.7500,-0.6384,0.1552,-0.7380,-0.1539,
2025-03-06 20:43:33.779,9.7500,-0.4200,1.4500,9.6875,-1.8125,1.5000,-0.6386,0.1547,-0.7381,-0.1532,
2025-03-06 20:43:33.779,9.7500,-0.4200,1.4500,9.5000,-1.5625,1.3125,-0.6388,0.1542,-0.7382,-0.1526,
2025-03-06 20:43:33.782,9.7400,-0.4400,1.4900,9.3750,-1.5000,1.3750,-0.6390,0.1537,-0.7382,-0.1519,
2025-03-06 20:43:33.804,9.7000,-0.6300,1.5200,9.7500,-1.6250,1.0000,-0.6391,0.1533,-0.7383,-0.1513,
2025-03-06 20:43:33.804,9.7200,-0.6200,1.5900,10.1250,-1.9375,1.0000,-0.6392,0.1528,-0.7385,-0.1506,
2025-03-06 20:43:33.813,9.8000,-0.6700,1.5900,10.8750,-2.1250,0.8125,-0.6394,0.1524,-0.7386,-0.1499,
2025-03-06 20:43:33.827,9.8000,-0.6700,1.5900,10.8750,-2.1250,0.8125,-0.6395,0.1519,-0.7388,-0.1491,
2025-03-06 20:43:33.835,9.8400,-0.7900,1.6400,12.0625,-2.2500,0.7500,-0.6396,0.1514,-0.7389,-0.1483,
2025-03-06 20:43:33.845,9.7800,-0.8800,1.6000,13.8125,-2.2500,0.3125,-0.6396,0.1508,-0.7392,-0.1473,
2025-03-06 20:43:33.854,9.6800,-0.9400,1.6500,15.3125,-2.1875,0.3125,-0.6397,0.1503,-0.7395,-0.1462,
2025-03-06 20:43:33.864,9.6300,-0.9600,1.6600,17.2500,-2.0625,0.3125,-0.6400,0.1494,-0.7396,-0.1454,
2025-03-06 20:43:33.887,9.6300,-0.9600,1.6600,19.4375,-2.3750,0.5000,-0.6403,0.1483,-0.7397,-0.1444,
2025-03-06 20:43:33.887,9.6300,-1.0100,1.6700,21.6875,-2.7500,0.9375,-0.6407,0.1471,-0.7398,-0.1433,
2025-03-06 20:43:33.904,9.6500,-1.0600,1.6400,23.7500,-2.8750,1.1250,-0.6407,0.1464,-0.7403,-0.1415,
2025-03-06 20:43:33.904,9.6300,-1.0500,1.6100,25.9375,-3.0625,1.6250,-0.6407,0.1456,-0.7408,-0.1396,
2025-03-06 20:43:33.913,9.5900,-1.0500,1.5200,28.4375,-2.9375,1.8750,-0.6407,0.1447,-0.7414,-0.1376,
2025-03-06 20:43:33.922,9.5900,-1.0500,1.5200,28.4375,-2.9375,1.8750,-0.6408,0.1436,-0.7419,-0.1354,
2025-03-06 20:43:33.932,9.5300,-1.0900,1.4700,31.1250,-2.9375,2.5000,-0.6410,0.1424,-0.7424,-0.1330,
2025-03-06 20:43:33.944,9.5800,-1.1300,1.4600,35.8750,-3.1875,3.5625,-0.6412,0.1411,-0.7429,-0.1304,
2025-03-06 20:43:33.955,9.6300,-1.1500,1.4300,38.2500,-3.1875,4.1875,-0.6415,0.1396,-0.7434,-0.1277,
2025-03-06 20:43:33.964,9.6800,-1.1400,1.3300,41.1875,-3.0000,4.8125,-0.6419,0.1380,-0.7439,-0.1248,
2025-03-06 20:43:33.973,9.6800,-1.1400,1.3300,44.3750,-3.3750,5.6250,-0.6423,0.1362,-0.7444,-0.1218,
2025-03-06 20:43:33.986,9.7100,-1.1200,1.2700,47.3125,-3.5625,6.3750,-0.6428,0.1340,-0.7449,-0.1183,
2025-03-06 20:43:33.994,9.7100,-1.0900,1.2700,49.4375,-4.0625,7.0625,-0.6434,0.1318,-0.7453,-0.1149,
2025-03-06 20:43:34.025,9.7000,-1.0600,1.2400,51.0000,-4.3750,7.4375,-0.6440,0.1296,-0.7457,-0.1114,
2025-03-06 20:43:34.025,9.6800,-1.0300,1.2300,52.4375,-4.3125,7.5000,-0.6446,0.1271,-0.7461,-0.1078,
2025-03-06 20:43:34.025,9.6800,-1.0300,1.2300,53.9375,-4.4375,7.8750,-0.6453,0.1246,-0.7465,-0.1042,
2025-03-06 20:43:34.033,9.6800,-1.0000,1.1800,55.6875,-4.7500,8.1250,-0.6460,0.1218,-0.7469,-0.1005,
2025-03-06 20:43:34.043,9.6600,-0.9000,1.0600,57.3125,-4.8125,8.3750,-0.6467,0.1190,-0.7472,-0.0967,
2025-03-06 20:43:34.053,9.6900,-0.9200,1.0500,58.4375,-5.1250,8.5625,-0.6474,0.1160,-0.7475,-0.0929,
2025-03-06 20:43:34.063,9.6700,-0.9600,1.0600,59.3125,-5.1250,8.5625,-0.6481,0.1130,-0.7478,-0.0889,
2025-03-06 20:43:34.078,9.6700,-0.9600,1.0600,59.3125,-5.1250,8.5625,-0.6489,0.1100,-0.7481,-0.0850,
2025-03-06 20:43:34.086,9.6900,-1.0000,1.0900,60.3125,-5.3125,8.5625,-0.6497,0.1067,-0.7484,-0.0807,
2025-03-06 20:43:34.093,9.7100,-1.0900,1.0800,62.8125,-5.5000,8.5000,-0.6504,0.1035,-0.7486,-0.0766,
2025-03-06 20:43:34.106,9.7800,-1.0700,1.0100,65.0000,-5.6875,8.5625,-0.6511,0.1002,-0.7488,-0.0724,
2025-03-06 20:43:34.113,9.7800,-1.0000,0.9900,67.5000,-5.9375,8.8750,-0.6518,0.0969,-0.7491,-0.0681,
2025-03-06 20:43:34.123,9.7800,-1.0000,0.9900,69.8125,-6.5625,9.1250,-0.6526,0.0933,-0.7493,-0.0635,
2025-03-06 20:43:34.131,9.8100,-0.9300,0.9200,71.6250,-6.8750,9.2500,-0.6534,0.0897,-0.7494,-0.0589,
2025-03-06 20:43:34.144,9.8100,-0.7700,0.8900,72.9375,-7.1875,9.4375,-0.6542,0.0858,-0.7495,-0.0542,
2025-03-06 20:43:34.155,9.8000,-0.7500,0.9500,74.0625,-7.2500,9.4375,-0.6550,0.0818,-0.7495,-0.0494,
2025-03-06 20:43:34.163,9.8300,-0.7600,0.9300,74.5000,-7.3125,9.3125,-0.6558,0.0778,-0.7496,-0.0446,
2025-03-06 20:43:34.173,9.8300,-0.7600,0.9300,74.5000,-7.3125,9.3125,-0.6565,0.0737,-0.7496,-0.0398,
2025-03-06 20:43:34.187,9.8800,-0.8200,0.9100,74.8125,-7.3125,9.3125,-0.6573,0.0692,-0.7496,-0.0346,
2025-03-06 20:43:34.193,9.9500,-0.7500,0.8000,77.4375,-6.7500,9.1875,-0.6580,0.0650,-0.7496,-0.0297,
2025-03-06 20:43:34.203,9.9600,-0.6300,0.8100,78.8125,-7.1250,9.3125,-0.6587,0.0607,-0.7496,-0.0247,
2025-03-06 20:43:34.214,9.9400,-0.5800,0.8600,79.7500,-7.1875,9.2500,-0.6594,0.0563,-0.7495,-0.0197,
2025-03-06 20:43:34.223,9.9400,-0.5800,0.8600,80.2500,-6.8750,9.5000,-0.6600,0.0518,-0.7494,-0.0146,
2025-03-06 20:43:34.232,9.9300,-0.5200,0.9300,80.4375,-6.2500,9.5000,-0.6605,0.0472,-0.7493,-0.0094,
2025-03-06 20:43:34.243,9.7000,-0.5400,1.0900,79.9375,-5.1250,9.4375,-0.6610,0.0426,-0.7492,-0.0043,
2025-03-06 20:43:34.255,9.6200,-0.6100,1.1200,79.0625,-4.2500,9.4375,-0.6613,0.0381,-0.7492,0.0008,
2025-03-06 20:43:34.264,9.5800,-0.6900,1.1700,77.8125,-3.1250,9.2500,-0.6615,0.0336,-0.7492,0.0059,
2025-03-06 20:43:34.272,9.5800,-0.6900,1.1700,77.2500,-2.3125,9.1875,-0.6616,0.0292,-0.7492,0.0108,
2025-03-06 20:43:34.289,9.6300,-0.7900,1.0700,77.2500,-2.3125,9.1875,-0.6617,0.0248,-0.7492,0.0157,
2025-03-06 20:43:34.295,9.8800,-0.8100,0.9000,78.8750,-0.5000,9.6875,-0.6616,0.0204,-0.7493,0.0206,
2025-03-06 20:43:34.319,10.0100,-0.7600,0.8700,80.3125,-0.7500,10.0000,-0.6614,0.0159,-0.7494,0.0256,
2025-03-06 20:43:34.323,10.1100,-0.6400,1.0300,81.3750,-1.3750,10.3750,-0.6614,0.0115,-0.7493,0.0308,
2025-03-06 20:43:34.323,10.1100,-0.6400,1.0300,81.3750,-1.3750,10.3750,-0.6612,0.0069,-0.7493,0.0360,
2025-03-06 20:43:34.333,10.1400,-0.5200,1.1300,83.1875,-3.0625,10.9375,-0.6611,0.0022,-0.7492,0.0414,
2025-03-06 20:43:34.344,10.0700,-0.1200,1.1800,85.8125,-3.3750,11.1875,-0.6610,-0.0024,-0.7489,0.0467,
2025-03-06 20:43:34.353,10.0400,0.0000,1.1700,88.4375,-3.5625,11.3125,-0.6608,-0.0073,-0.7487,0.0522,
2025-03-06 20:43:34.365,10.0000,0.0600,1.1400,90.8125,-3.3750,11.5000,-0.6607,-0.0123,-0.7484,0.0579,
2025-03-06 20:43:34.374,10.0000,0.0600,1.1400,93.0625,-2.8750,11.4375,-0.6604,-0.0174,-0.7480,0.0637,
2025-03-06 20:43:34.386,9.8900,0.1200,1.1000,94.9375,-2.5625,11.8750,-0.6601,-0.0226,-0.7476,0.0696,
2025-03-06 20:43:34.393,9.7000,0.3400,1.0500,96.0625,-2.9375,11.8750,-0.6597,-0.0280,-0.7472,0.0756,
2025-03-06 20:43:34.404,9.6100,0.4300,1.0800,96.9375,-2.7500,12.0625,-0.6593,-0.0334,-0.7467,0.0817,
2025-03-06 20:43:34.413,9.5200,0.5900,1.1300,97.6875,-2.1250,12.4375,-0.6588,-0.0389,-0.7461,0.0879,
2025-03-06 20:43:34.423,9.5200,0.5900,1.1300,97.6875,-2.1250,12.4375,-0.6582,-0.0443,-0.7456,0.0941,
2025-03-06 20:43:34.432,9.4900,0.6200,1.1700,97.8125,-1.8750,12.6875,-0.6575,-0.0515,-0.7447,0.1022,
2025-03-06 20:43:34.446,9.3900,0.6300,1.0800,96.7500,-1.5000,13.2500,-0.6568,-0.0569,-0.7441,0.1085,
2025-03-06 20:43:34.458,9.3800,0.5600,0.9400,95.6250,-1.9375,13.3125,-0.6560,-0.0623,-0.7434,0.1146,
2025-03-06 20:43:34.464,9.3700,0.5400,0.9000,93.6250,-2.5625,13.0000,-0.6553,-0.0675,-0.7426,0.1208,
2025-03-06 20:43:34.473,9.3700,0.5400,0.9000,90.2500,-3.8125,12.2500,-0.6545,-0.0727,-0.7418,0.1268,
2025-03-06 20:43:34.483,9.3400,0.4600,0.9800,85.5000,-5.0625,11.1250,-0.6539,-0.0781,-0.7408,0.1321,
2025-03-06 20:43:34.496,9.3200,-0.3100,1.1000,80.7500,-6.2500,9.7500,-0.6533,-0.0829,-0.7399,0.1375,
2025-03-06 20:43:34.504,9.3300,-0.6100,1.0800,78.5000,-6.5625,8.3125,-0.6528,-0.0875,-0.7388,0.1425,
2025-03-06 20:43:34.514,9.3800,-0.9200,1.0500,78.8750,-6.6250,7.5625,-0.6524,-0.0920,-0.7377,0.1473,
2025-03-06 20:43:34.523,9.3800,-0.9200,1.0500,78.8750,-6.6250,7.5625,-0.6519,-0.0966,-0.7366,0.1521,
2025-03-06 20:43:34.533,9.7000,-1.5500,0.9500,80.7500,-8.2500,7.2500,-0.6513,-0.1016,-0.7354,0.1572,
2025-03-06 20:43:34.544,9.9500,-1.5200,0.9900,89.3125,-12.3125,9.0000,-0.6509,-0.1065,-0.7339,0.1623,
2025-03-06 20:43:34.553,9.9900,-1.0700,1.0600,95.6250,-13.8125,8.6250,-0.6505,-0.1118,-0.7323,0.1676,
2025-03-06 20:43:34.566,9.8700,-0.7600,1.0700,101.7500,-15.0625,7.5000,-0.6501,-0.1174,-0.7305,0.1733,
2025-03-06 20:43:34.572,9.8700,-0.7600,1.0700,101.7500,-15.0625,7.5000,-0.6495,-0.1235,-0.7285,0.1791,
2025-03-06 20:43:34.585,9.7300,-0.4100,1.0200,106.8750,-15.3125,6.2500,-0.6489,-0.1299,-0.7264,0.1852,
2025-03-06 20:43:34.593,9.6200,0.2300,0.4100,113.3125,-14.9375,3.9375,-0.6482,-0.1367,-0.7243,0.1914,
2025-03-06 20:43:34.628,9.6500,0.2900,0.0900,114.6875,-14.1875,2.5625,-0.6473,-0.1436,-0.7220,0.1977,
2025-03-06 20:43:34.641,9.7400,0.3000,-0.1300,114.2500,-13.8750,0.8750,-0.6462,-0.1506,-0.7198,0.2039,
2025-03-06 20:43:34.642,9.7400,0.3000,-0.1300,111.5625,-14.4375,-0.3750,-0.6451,-0.1578,-0.7175,0.2100,
2025-03-06 20:43:34.642,9.7400,0.2800,-0.6500,107.7500,-15.0625,-1.6875,-0.6439,-0.1649,-0.7152,0.2161,
2025-03-06 20:43:34.644,9.7600,0.1300,-0.7300,102.1875,-15.8750,-2.3750,-0.6428,-0.1718,-0.7129,0.2216,
2025-03-06 20:43:34.653,9.7900,0.0700,-0.5900,95.6875,-16.8750,-3.0000,-0.6418,-0.1784,-0.7106,0.2267,
2025-03-06 20:43:34.665,9.7600,0.0100,-0.2700,89.0625,-17.7500,-3.3125,-0.6409,-0.1846,-0.7082,0.2315,
2025-03-06 20:43:34.674,9.7600,0.0100,-0.2700,89.0625,-17.7500,-3.3125,-0.6401,-0.1905,-0.7059,0.2358,
2025-03-06 20:43:34.682,9.7200,-0.1000,-0.1400,83.1875,-17.4375,-3.6250,-0.6395,-0.1959,-0.7037,0.2397,
2025-03-06 20:43:34.694,9.8100,-0.4200,0.1100,75.8750,-15.3750,-3.8125,-0.6388,-0.2011,-0.7016,0.2435,
2025-03-06 20:43:34.708,9.9000,-0.5200,0.1600,75.0625,-14.9375,-3.5000,-0.6381,-0.2061,-0.6995,0.2471,
2025-03-06 20:43:34.717,9.9900,-0.6400,0.1500,75.8750,-14.4375,-3.2500,-0.6373,-0.2111,-0.6974,0.2507,
2025-03-06 20:43:34.723,9.9900,-0.6400,0.1500,77.6250,-14.6875,-2.6250,-0.6365,-0.2160,-0.6954,0.2543,
2025-03-06 20:43:34.736,10.0800,-0.7100,0.1200,79.8750,-14.3125,-1.8750,-0.6356,-0.2210,-0.6932,0.2580,
2025-03-06 20:43:34.745,10.1600,-0.6000,-0.0800,81.6875,-14.1875,-1.1250,-0.6347,-0.2261,-0.6910,0.2619,
2025-03-06 20:43:34.757,10.1600,-0.5000,-0.0500,81.9375,-14.1875,-0.1875,-0.6337,-0.2312,-0.6887,0.2660,
2025-03-06 20:43:34.766,10.2100,-0.4100,-0.0300,80.4375,-13.3750,0.5625,-0.6326,-0.2363,-0.6863,0.2701,
2025-03-06 20:43:34.775,10.2100,-0.4100,-0.0300,80.4375,-13.3750,0.5625,-0.6315,-0.2413,-0.6840,0.2741,
2025-03-06 20:43:34.783,10.2500,-0.4000,0.0000,78.0000,-12.1250,0.8125,-0.6311,-0.2455,-0.6815,0.2775,
2025-03-06 20:43:34.796,10.2400,-0.4400,0.0000,73.1250,-8.5625,1.1250,-0.6304,-0.2501,-0.6789,0.2813,
2025-03-06 20:43:34.804,10.1800,-0.5600,0.0800,71.5000,-7.0625,1.3125,-0.6297,-0.2544,-0.6764,0.2850,
2025-03-06 20:43:34.816,10.1200,-0.6200,0.0100,70.5625,-5.6875,1.5625,-0.6288,-0.2585,-0.6740,0.2888,
2025-03-06 20:43:34.822,10.1200,-0.6200,0.0100,70.1875,-4.7500,1.8750,-0.6279,-0.2626,-0.6718,0.2925,
2025-03-06 20:43:34.832,10.0800,-0.7000,-0.0200,70.1250,-4.6250,2.4375,-0.6269,-0.2665,-0.6694,0.2964,
2025-03-06 20:43:34.844,10.0100,-0.5500,-0.1300,70.3750,-4.5625,2.9375,-0.6260,-0.2704,-0.6670,0.3002,
2025-03-06 20:43:34.855,10.0400,-0.4400,-0.0800,70.0625,-4.4375,3.1250,-0.6251,-0.2742,-0.6646,0.3040,
2025-03-06 20:43:34.863,10.0600,-0.3300,0.0300,69.2500,-4.8750,3.4375,-0.6241,-0.2781,-0.6621,0.3078,
2025-03-06 20:43:34.873,10.0600,-0.3300,0.0300,66.0000,-4.3750,3.1875,-0.6230,-0.2819,-0.6598,0.3115,
2025-03-06 20:43:34.883,10.0700,-0.2700,0.2000,66.0000,-4.3750,3.1875,-0.6216,-0.2856,-0.6578,0.3151,
2025-03-06 20:43:34.893,9.9800,-0.3600,0.3200,64.0625,-3.8750,2.6875,-0.6202,-0.2892,-0.6560,0.3185,
2025-03-06 20:43:34.927,9.8100,-0.5400,0.3800,62.4375,-3.3125,2.1875,-0.6187,-0.2927,-0.6541,0.3220,
2025-03-06 20:43:34.927,9.7200,-0.6100,0.3300,60.8125,-1.8750,1.3125,-0.6173,-0.2961,-0.6523,0.3253,
2025-03-06 20:43:34.927,9.7200,-0.6100,0.3300,60.8125,-1.8750,1.3125,-0.6157,-0.2994,-0.6506,0.3285,
2025-03-06 20:43:34.934,9.7000,-0.7300,0.3300,61.0625,-1.2500,1.0625,-0.6142,-0.3026,-0.6491,0.3314,
2025-03-06 20:43:34.944,9.7700,-0.8900,0.1900,63.6875,-0.6875,1.0625,-0.6126,-0.3058,-0.6475,0.3346,
2025-03-06 20:43:34.954,9.8100,-0.8600,0.1900,65.1250,-0.4375,1.1875,-0.6108,-0.3093,-0.6457,0.3379,
2025-03-06 20:43:34.964,9.8400,-0.8000,0.1800,66.1875,-0.7500,1.4375,-0.6090,-0.3128,-0.6440,0.3414,
2025-03-06 20:43:34.973,9.8400,-0.8000,0.1800,67.1250,-0.9375,1.4375,-0.6072,-0.3163,-0.6421,0.3448,
2025-03-06 20:43:34.982,9.8900,-0.7600,0.1600,67.9375,-0.8125,1.3750,-0.6053,-0.3199,-0.6403,0.3483,
2025-03-06 20:43:35.000,9.8600,-0.6800,0.0600,68.5625,-0.7500,1.6250,-0.6037,-0.3234,-0.6380,0.3520,
2025-03-06 20:43:35.006,9.8900,-0.6100,0.0300,68.4375,-0.9375,1.8750,-0.6021,-0.3268,-0.6357,0.3557,
2025-03-06 20:43:35.014,9.8900,-0.5100,0.0000,68.1250,-0.9375,2.1250,-0.6005,-0.3304,-0.6334,0.3594,
2025-03-06 20:43:35.023,9.8900,-0.5100,0.0000,68.1250,-0.9375,2.1250,-0.5989,-0.3339,-0.6310,0.3630,
2025-03-06 20:43:35.032,9.8600,-0.4500,-0.0900,67.8125,-0.7500,2.6250,-0.5973,-0.3373,-0.6285,0.3666,
2025-03-06 20:43:35.043,9.8000,-0.3000,-0.1700,66.7500,-0.9375,3.4375,-0.5953,-0.3408,-0.6265,0.3701,
2025-03-06 20:43:35.053,9.7300,-0.1600,-0.1800,65.9375,-0.4375,4.0000,-0.5934,-0.3442,-0.6244,0.3736,
2025-03-06 20:43:35.063,9.7000,-0.1700,-0.1300,64.8125,0.1875,4.0625,-0.5914,-0.3475,-0.6223,0.3771,
2025-03-06 20:43:35.074,9.7000,-0.1700,-0.1300,64.8125,0.1875,4.0625,-0.5895,-0.3507,-0.6203,0.3806,
2025-03-06 20:43:35.083,9.7200,-0.1500,-0.1500,63.4375,1.0625,4.0625,-0.5875,-0.3538,-0.6183,0.3840,
2025-03-06 20:43:35.095,9.8700,-0.2000,-0.1900,60.6875,2.0625,3.5625,-0.5855,-0.3567,-0.6164,0.3873,
2025-03-06 20:43:35.103,9.9600,-0.2200,-0.2000,60.3125,2.4375,3.3750,-0.5835,-0.3596,-0.6146,0.3905,
2025-03-06 20:43:35.114,10.0400,-0.1800,-0.1200,60.0625,2.6250,3.2500,-0.5820,-0.3627,-0.6122,0.3935,
2025-03-06 20:43:35.121,10.0400,-0.1800,-0.1200,60.0625,2.6250,3.2500,-0.5804,-0.3659,-0.6100,0.3964,
2025-03-06 20:43:35.132,10.0300,-0.1200,-0.0700,60.2500,3.0625,3.5625,-0.5785,-0.3691,-0.6077,0.3997,
2025-03-06 20:43:35.145,9.9500,0.0600,-0.0500,60.1250,3.8750,3.7500,-0.5768,-0.3721,-0.6055,0.4027,
2025-03-06 20:43:35.154,9.9500,0.2300,-0.0400,59.5625,4.0625,4.0625,-0.5749,-0.3751,-0.6035,0.4057,
2025-03-06 20:43:35.164,10.0100,0.3600,0.0100,57.7500,4.5000,4.1250,-0.5728,-0.3778,-0.6016,0.4089,
2025-03-06 20:43:35.177,10.0100,0.3600,0.0100,57.7500,4.5000,4.1250,-0.5707,-0.3804,-0.5998,0.4121,
2025-03-06 20:43:35.184,10.1100,0.4500,0.0900,55.0000,5.0625,4.1875,-0.5685,-0.3830,-0.5980,0.4153,
2025-03-06 20:43:35.194,10.2600,0.3900,0.2200,48.7500,7.5625,3.7500,-0.5665,-0.3852,-0.5965,0.4182,
2025-03-06 20:43:35.224,10.2700,0.3000,0.2300,46.5000,8.3750,3.3750,-0.5645,-0.3872,-0.5951,0.4210,
2025-03-06 20:43:35.224,10.2100,0.2200,0.2500,44.8125,8.9375,3.1250,-0.5625,-0.3891,-0.5939,0.4237,
2025-03-06 20:43:35.224,10.2100,0.2200,0.2500,44.8125,8.9375,3.1250,-0.5605,-0.3909,-0.5927,0.4263,
2025-03-06 20:43:35.233,10.0100,0.0600,0.2400,43.6250,9.0625,3.0625,-0.5587,-0.3929,-0.5915,0.4285,
2025-03-06 20:43:35.243,9.7200,-0.0500,0.2300,41.8750,8.7500,3.8750,-0.5568,-0.3945,-0.5904,0.4310,
2025-03-06 20:43:35.254,9.6000,-0.0900,0.2600,41.5000,8.1875,4.5625,-0.5550,-0.3961,-0.5893,0.4334,
2025-03-06 20:43:35.264,9.5000,-0.1200,0.3300,40.8125,7.5625,5.6250,-0.5532,-0.3976,-0.5881,0.4359,
2025-03-06 20:43:35.274,9.5000,-0.1200,0.3300,40.8125,7.5625,5.6250,-0.5515,-0.3991,-0.5869,0.4383,
2025-03-06 20:43:35.282,9.5600,-0.1000,0.3700,39.8125,7.0625,6.7500,-0.5499,-0.4006,-0.5855,0.4408,
2025-03-06 20:43:35.299,9.7600,-0.1100,0.6500,36.7500,7.1875,8.4375,-0.5483,-0.4019,-0.5842,0.4432,
2025-03-06 20:43:35.305,9.7700,-0.1600,0.7800,35.0625,7.1875,9.2500,-0.5469,-0.4031,-0.5830,0.4456,
2025-03-06 20:43:35.314,9.7600,-0.2100,0.8200,34.0625,7.5625,9.5000,-0.5455,-0.4041,-0.5818,0.4479,
2025-03-06 20:43:35.326,9.7600,-0.2100,0.8200,34.6250,7.7500,10.0000,-0.5442,-0.4050,-0.5806,0.4502,
2025-03-06 20:43:35.334,9.7300,-0.2400,0.8600,36.3750,7.9375,10.4375,-0.5428,-0.4060,-0.5793,0.4527,
2025-03-06 20:43:35.343,9.6500,-0.2300,0.8800,38.1875,7.8750,10.7500,-0.5413,-0.4070,-0.5781,0.4551,
2025-03-06 20:43:35.354,9.6700,-0.2300,0.8800,39.9375,7.6250,10.8750,-0.5399,-0.4081,-0.5767,0.4577,
2025-03-06 20:43:35.364,9.6900,-0.3600,0.9100,42.5625,7.6250,11.0000,-0.5383,-0.4092,-0.5752,0.4603,
2025-03-06 20:43:35.372,9.6900,-0.3600,0.9100,42.5625,7.6250,11.0000,-0.5367,-0.4105,-0.5737,0.4630,
2025-03-06 20:43:35.383,9.6300,-0.4000,0.8700,44.6875,7.3750,11.1875,-0.5349,-0.4120,-0.5719,0.4659,
2025-03-06 20:43:35.396,9.5900,-0.4300,0.8200,47.8750,6.3125,12.0000,-0.5332,-0.4134,-0.5701,0.4688,
2025-03-06 20:43:35.413,9.5400,-0.2500,0.7500,49.0625,6.2500,12.4375,-0.5314,-0.4149,-0.5682,0.4718,
2025-03-06 20:43:35.415,9.5100,-0.2000,0.7500,49.8750,5.9375,12.8125,-0.5296,-0.4165,-0.5663,0.4748,
2025-03-06 20:43:35.423,9.5100,-0.2000,0.7500,50.5000,5.7500,13.0625,-0.5277,-0.4180,-0.5643,0.4779,
2025-03-06 20:43:35.433,9.4800,-0.1500,0.7400,50.8750,4.9375,13.1875,-0.5258,-0.4197,-0.5622,0.4810,
2025-03-06 20:43:35.444,9.5100,0.0000,0.6700,50.5000,3.9375,13.1250,-0.5240,-0.4214,-0.5601,0.4839,
2025-03-06 20:43:35.455,9.5100,0.0500,0.7100,49.8125,3.3125,13.0000,-0.5222,-0.4230,-0.5579,0.4869,
2025-03-06 20:43:35.464,9.5300,0.0400,0.6500,48.6875,2.7500,12.5000,-0.5204,-0.4247,-0.5557,0.4899,
2025-03-06 20:43:35.474,9.5300,0.0400,0.6500,48.6875,2.7500,12.5000,-0.5187,-0.4263,-0.5536,0.4927,
2025-03-06 20:43:35.485,9.6100,0.0000,0.5900,47.1875,2.0000,12.2500,-0.5171,-0.4279,-0.5514,0.4954,
2025-03-06 20:43:35.494,9.7300,0.0600,0.5300,45.0000,0.4375,11.9375,-0.5156,-0.4298,-0.5493,0.4977,
2025-03-06 20:43:35.533,9.8700,0.2100,0.5400,44.1875,0.2500,11.6250,-0.5141,-0.4318,-0.5471,0.4999,
2025-03-06 20:43:35.533,9.9100,0.3100,0.5300,42.7500,0.5625,11.5625,-0.5126,-0.4338,-0.5451,0.5019,
2025-03-06 20:43:35.534,9.9100,0.3100,0.5300,42.7500,0.5625,11.5625,-0.5112,-0.4353,-0.5430,0.5043,
2025-03-06 20:43:35.534,9.9400,0.3100,0.6200,41.3125,0.8750,11.0625,-0.5098,-0.4366,-0.5411,0.5066,
2025-03-06 20:43:35.544,9.9600,0.2200,0.7300,39.7500,1.8125,10.3125,-0.5085,-0.4380,-0.5392,0.5088,
2025-03-06 20:43:35.553,9.9600,0.1900,0.7500,39.5000,2.5625,9.6875,-0.5070,-0.4393,-0.5374,0.5111,
2025-03-06 20:43:35.563,9.9400,0.1600,0.6900,39.5625,3.0000,9.3125,-0.5056,-0.4406,-0.5356,0.5133,
2025-03-06 20:43:35.572,9.9400,0.1600,0.6900,39.5625,3.0000,9.3125,-0.5039,-0.4424,-0.5340,0.5150,
2025-03-06 20:43:35.582,9.9900,0.2700,0.5700,39.0000,1.8750,8.0625,-0.5022,-0.4443,-0.5324,0.5166,
2025-03-06 20:43:35.595,10.0500,0.3100,0.5600,37.6875,1.8125,7.1875,-0.5005,-0.4464,-0.5309,0.5180,
2025-03-06 20:43:35.604,10.0200,0.3600,0.5000,36.0625,2.0625,6.1875,-0.4989,-0.4486,-0.5294,0.5192,
2025-03-06 20:43:35.615,9.9000,0.2300,0.4800,34.3750,1.8750,5.5000,-0.4973,-0.4508,-0.5281,0.5203,
2025-03-06 20:43:35.623,9.9000,0.2300,0.4800,34.3750,1.8750,5.5000,-0.4958,-0.4528,-0.5267,0.5213,
2025-03-06 20:43:35.633,9.8500,0.1900,0.5000,32.3125,1.3750,4.9375,-0.4943,-0.4548,-0.5253,0.5223,
2025-03-06 20:43:35.643,9.7900,0.3500,0.5000,26.9375,0.6250,4.4375,-0.4930,-0.4567,-0.5241,0.5231,
2025-03-06 20:43:35.655,9.7800,0.4000,0.5300,24.5000,0.6875,4.1250,-0.4918,-0.4584,-0.5230,0.5238,
2025-03-06 20:43:35.664,9.7800,0.3700,0.5600,22.3750,0.8750,4.0000,-0.4907,-0.4601,-0.5221,0.5243,
2025-03-06 20:43:35.672,9.7800,0.3700,0.5600,22.3750,0.8750,4.0000,-0.4897,-0.4617,-0.5212,0.5247,
2025-03-06 20:43:35.683,9.7900,0.3000,0.6300,20.0625,1.0000,3.6875,-0.4888,-0.4630,-0.5207,0.5250,
2025-03-06 20:43:35.693,9.7900,0.0900,0.7200,16.9375,1.0000,3.5625,-0.4879,-0.4641,-0.5200,0.5256,
2025-03-06 20:43:35.704,9.8300,0.0000,0.7500,15.8750,0.6875,3.6250,-0.4872,-0.4649,-0.5193,0.5262,
2025-03-06 20:43:35.714,9.8700,0.0500,0.7800,14.8750,0.1875,3.6250,-0.4866,-0.4654,-0.5185,0.5271,
2025-03-06 20:43:35.723,9.8700,0.0500,0.7800,14.3125,-0.4375,3.7500,-0.4861,-0.4659,-0.5178,0.5278,
2025-03-06 20:43:35.735,9.9600,0.0900,0.8000,14.0625,-0.6250,3.2500,-0.4855,-0.4664,-0.5170,0.5286,
2025-03-06 20:43:35.744,9.9700,0.1600,0.7800,13.6250,-0.6875,3.0625,-0.4851,-0.4669,-0.5163,0.5293,
2025-03-06 20:43:35.755,9.9300,0.1000,0.8000,13.0625,-1.1250,2.4375,-0.4845,-0.4676,-0.5157,0.5298,
2025-03-06 20:43:35.763,9.9000,0.0500,0.8300,11.8125,-1.3125,2.1250,-0.4839,-0.4684,-0.5151,0.5302,
2025-03-06 20:43:35.772,9.9000,0.0500,0.8300,11.8125,-1.3125,2.1250,-0.4835,-0.4691,-0.5145,0.5306,
2025-03-06 20:43:35.782,9.8900,-0.0200,0.8200,11.0625,-1.0000,1.6250,-0.4830,-0.4697,-0.5140,0.5309,
2025-03-06 20:43:35.793,9.8200,-0.1800,0.7800,10.4375,-0.6250,1.5000,-0.4825,-0.4702,-0.5136,0.5314,
2025-03-06 20:43:35.820,9.7400,-0.1300,0.7400,10.2500,-1.1875,1.5000,-0.4822,-0.4706,-0.5131,0.5318,
2025-03-06 20:43:35.824,9.7400,-0.1200,0.7200,9.9375,-1.6250,1.4375,-0.4818,-0.4711,-0.5125,0.5322,
2025-03-06 20:43:35.824,9.7400,-0.1200,0.7200,9.9375,-1.6250,1.4375,-0.4815,-0.4717,-0.5120,0.5325,
2025-03-06 20:43:35.840,9.6900,0.0000,0.7900,8.4375,-1.5000,1.1250,-0.4811,-0.4722,-0.5115,0.5328,
2025-03-06 20:43:35.846,9.6700,-0.0500,0.7800,7.6250,-1.4375,1.0000,-0.4808,-0.4727,-0.5111,0.5331,
2025-03-06 20:43:35.853,9.6900,-0.1600,0.7100,6.5000,-1.1250,0.8750,-0.4806,-0.4731,-0.5107,0.5333,
2025-03-06 20:43:35.863,9.7300,-0.1500,0.6700,5.8750,-1.1250,0.9375,-0.4803,-0.4734,-0.5104,0.5335,
2025-03-06 20:43:35.872,9.7300,-0.1500,0.6700,5.8750,-1.1250,0.9375,-0.4802,-0.4738,-0.5100,0.5337,
2025-03-06 20:43:35.882,9.7800,-0.1500,0.6300,5.0000,-1.1875,0.8125,-0.4799,-0.4743,-0.5095,0.5340,
2025-03-06 20:43:35.901,9.8700,-0.0900,0.6700,3.3125,-1.2500,0.5625,-0.4798,-0.4746,-0.5092,0.5341,
2025-03-06 20:43:35.905,9.9000,-0.1400,0.7200,2.3750,-1.0000,0.5000,-0.4797,-0.4749,-0.5090,0.5341,
2025-03-06 20:43:35.933,9.9000,-0.2200,0.7500,1.9375,-0.7500,0.1875,-0.4796,-0.4752,-0.5089,0.5341,
2025-03-06 20:43:35.933,9.9000,-0.2200,0.7500,1.9375,-0.7500,0.1875,-0.4796,-0.4753,-0.5088,0.5341,
2025-03-06 20:43:35.933,9.9400,-0.3700,0.8300,1.3125,-0.3750,0.1250,-0.4795,-0.4754,-0.5087,0.5341,
2025-03-06 20:43:35.955,9.9500,-0.4300,0.8300,0.9375,0.0000,0.0625,-0.4795,-0.4754,-0.5087,0.5341,
2025-03-06 20:43:35.955,9.9400,-0.3900,0.8000,1.4375,-0.0625,0.2500,-0.4794,-0.4755,-0.5087,0.5342,
2025-03-06 20:43:35.965,9.9800,-0.3100,0.8000,1.8125,0.0000,0.1250,-0.4794,-0.4755,-0.5086,0.5342,
2025-03-06 20:43:35.972,9.9800,-0.3100,0.8000,2.3125,-0.0625,0.0625,-0.4793,-0.4756,-0.5085,0.5343,
2025-03-06 20:43:35.983,9.9700,-0.2800,0.7900,2.1250,-0.1250,-0.1875,-0.4787,-0.4762,-0.5078,0.5350,
2025-03-06 20:43:35.996,9.8500,-0.2500,0.9100,1.3750,0.3125,-0.4375,-0.4786,-0.4763,-0.5078,0.5350,
2025-03-06 20:43:36.006,9.8100,-0.2700,0.9100,0.7500,0.8125,-0.7500,-0.4785,-0.4764,-0.5077,0.5351,
2025-03-06 20:43:36.015,9.8000,-0.2700,0.8700,0.6875,1.1875,-0.8125,-0.4784,-0.4764,-0.5077,0.5351,
2025-03-06 20:43:36.022,9.8000,-0.2700,0.8700,0.6875,1.1875,-0.8125,-0.4783,-0.4764,-0.5078,0.5352,
2025-03-06 20:43:36.032,9.7500,-0.2800,0.7800,0.8750,1.6250,-0.6250,-0.4782,-0.4764,-0.5079,0.5352,
2025-03-06 20:43:36.045,9.7700,-0.2700,0.7000,-0.3750,1.3750,-0.9375,-0.4781,-0.4764,-0.5079,0.5353,
2025-03-06 20:43:36.053,9.7700,-0.3100,0.7700,-2.0625,1.3125,-1.3125,-0.4780,-0.4764,-0.5080,0.5353,
2025-03-06 20:43:36.064,9.7700,-0.4400,0.8200,-3.0000,1.1250,-1.6250,-0.4780,-0.4763,-0.5082,0.5352,
2025-03-06 20:43:36.073,9.7700,-0.4400,0.8200,-3.0000,1.1250,-1.6250,-0.4780,-0.4761,-0.5084,0.5350,
2025-03-06 20:43:36.082,9.7600,-0.4300,0.8400,-3.8125,1.0625,-1.8125,-0.4782,-0.4760,-0.5087,0.5348,
2025-03-06 20:43:36.093,9.7900,-0.4100,0.8900,-4.1875,0.3750,-2.0000,-0.4783,-0.4758,-0.5090,0.5346,
2025-03-06 20:43:36.124,9.7900,-0.3300,0.9500,-3.6875,0.3750,-2.0625,-0.4784,-0.4757,-0.5092,0.5344,
2025-03-06 20:43:36.125,9.7700,-0.3100,0.9900,-2.9375,0.4375,-2.2500,-0.4785,-0.4756,-0.5095,0.5341,
2025-03-06 20:43:36.125,9.7700,-0.3100,0.9900,-2.1875,0.3750,-2.3125,-0.4785,-0.4756,-0.5097,0.5339,
2025-03-06 20:43:36.135,9.7600,-0.3100,0.9900,-1.9375,0.5000,-2.5000,-0.4785,-0.4756,-0.5098,0.5338,
2025-03-06 20:43:36.143,9.7800,-0.3600,0.9900,-1.6875,0.5000,-2.6875,-0.4785,-0.4756,-0.5100,0.5336,
2025-03-06 20:43:36.154,9.7900,-0.3900,0.9600,-1.6875,0.5625,-2.7500,-0.4784,-0.4756,-0.5102,0.5335,
2025-03-06 20:43:36.164,9.8000,-0.4400,0.9400,-1.5625,1.0000,-2.5625,-0.4784,-0.4756,-0.5104,0.5333,
2025-03-06 20:43:36.172,9.8000,-0.4400,0.9400,-1.5625,1.0000,-2.5625,-0.4783,-0.4756,-0.5106,0.5332,
2025-03-06 20:43:36.182,9.8100,-0.4100,0.8800,-1.4375,1.0000,-2.3750,-0.4780,-0.4759,-0.5104,0.5334,
2025-03-06 20:43:36.193,9.7800,-0.4100,0.8900,-1.0625,0.5000,-2.0000,-0.4779,-0.4758,-0.5106,0.5334,
2025-03-06 20:43:36.204,9.8100,-0.3900,0.8900,-1.1875,0.5000,-2.1250,-0.4779,-0.4758,-0.5107,0.5333,
2025-03-06 20:43:36.214,9.7700,-0.4300,0.9200,-1.1875,0.6250,-2.1875,-0.4779,-0.4759,-0.5108,0.5331,
2025-03-06 20:43:36.224,9.7700,-0.4300,0.9200,-1.1875,0.6250,-2.1875,-0.4778,-0.4758,-0.5110,0.5331,
2025-03-06 20:43:36.235,9.7500,-0.5000,0.9100,-1.3125,0.3125,-2.0625,-0.4778,-0.4758,-0.5111,0.5330,
2025-03-06 20:43:36.248,9.7100,-0.5300,0.8800,-0.3125,0.0000,-1.8750,-0.4778,-0.4758,-0.5112,0.5329,
2025-03-06 20:43:36.254,9.7400,-0.5100,0.8800,0.0000,-0.3125,-1.6875,-0.4778,-0.4758,-0.5112,0.5328,
2025-03-06 20:43:36.263,9.7400,-0.5300,0.8800,0.6250,-0.8750,-1.6250,-0.4778,-0.4758,-0.5112,0.5328,
2025-03-06 20:43:36.272,9.7400,-0.5300,0.8800,0.6875,-0.8125,-1.4375,-0.4778,-0.4759,-0.5112,0.5328,
2025-03-06 20:43:36.283,9.7400,-0.5100,0.9500,0.8750,-0.7500,-1.5625,-0.4778,-0.4760,-0.5111,0.5328,
2025-03-06 20:43:36.293,9.7400,-0.5900,0.9700,1.6875,-0.8125,-1.5625,-0.4778,-0.4760,-0.5110,0.5329,
2025-03-06 20:43:36.319,9.7300,-0.5500,0.9300,2.7500,-0.7500,-1.3125,-0.4778,-0.4761,-0.5109,0.5330,
2025-03-06 20:43:36.319,9.7700,-0.5000,0.9300,3.6250,-0.6250,-1.1875,-0.4777,-0.4762,-0.5107,0.5331,
2025-03-06 20:43:36.322,9.7700,-0.5000,0.9300,3.6250,-0.6250,-1.1875,-0.4776,-0.4763,-0.5106,0.5332,
2025-03-06 20:43:36.332,9.8100,-0.4600,0.9400,4.1875,-0.3750,-1.1250,-0.4774,-0.4764,-0.5104,0.5334,
2025-03-06 20:43:36.343,9.8200,-0.3500,0.8500,5.0625,-0.3125,-0.8125,-0.4772,-0.4766,-0.5103,0.5336,
2025-03-06 20:43:36.353,9.8000,-0.2700,0.8700,4.7500,-0.0625,-1.0000,-0.4770,-0.4769,-0.5101,0.5338,
2025-03-06 20:43:36.390,9.7900,-0.2600,0.8600,4.0625,0.1875,-0.7500,-0.4767,-0.4771,-0.5099,0.5339,
2025-03-06 20:43:36.392,9.7900,-0.2600,0.8600,4.0625,0.1875,-0.7500,-0.4765,-0.4773,-0.5098,0.5341,
2025-03-06 20:43:36.392,9.7500,-0.2800,0.8800,3.3125,0.5625,-1.0000,-0.4762,-0.4777,-0.5095,0.5343,
2025-03-06 20:43:36.394,9.7700,-0.3200,0.8200,1.3750,0.5000,-0.8125,-0.4761,-0.4778,-0.5094,0.5344,
2025-03-06 20:43:36.424,9.7800,-0.3200,0.8300,0.6250,0.4375,-0.7500,-0.4760,-0.4779,-0.5094,0.5344,
2025-03-06 20:43:36.426,9.7700,-0.3000,0.7700,0.1875,0.3125,-0.5625,-0.4759,-0.4779,-0.5094,0.5344,
2025-03-06 20:43:36.426,9.7700,-0.3000,0.7700,-0.1875,-0.0625,-0.3750,-0.4759,-0.4779,-0.5094,0.5344,
2025-03-06 20:43:36.434,9.7600,-0.2200,0.8000,-0.4375,-0.1250,-0.3750,-0.4757,-0.4782,-0.5090,0.5347,
2025-03-06 20:43:36.443,9.7500,-0.2000,0.7600,-1.1250,-0.2500,-0.1875,-0.4757,-0.4782,-0.5090,0.5347,
2025-03-06 20:43:36.454,9.7400,-0.1600,0.7800,-1.8750,-0.1250,-0.3750,-0.4758,-0.4781,-0.5091,0.5347,
2025-03-06 20:43:36.463,9.7400,-0.1700,0.7600,-2.8125,0.0000,-0.3750,-0.4758,-0.4781,-0.5091,0.5346,
2025-03-06 20:43:36.473,9.7400,-0.1700,0.7600,-3.7500,-0.0625,-0.3125,-0.4759,-0.4780,-0.5093,0.5345,
2025-03-06 20:43:36.482,9.7600,-0.1200,0.7400,-4.8750,-0.1250,0.0000,-0.4761,-0.4778,-0.5094,0.5343,
2025-03-06 20:43:36.493,9.8100,-0.0600,0.6800,-5.8750,-0.1875,-0.0625,-0.4764,-0.4777,-0.5096,0.5341,
2025-03-06 20:43:36.503,9.7800,0.1300,0.6400,-7.0000,0.0000,0.1250,-0.4766,-0.4775,-0.5098,0.5338,
2025-03-06 20:43:36.515,9.7900,0.1900,0.5900,-8.2500,0.2500,0.0000,-0.4769,-0.4774,-0.5101,0.5333,
2025-03-06 20:43:36.523,9.7900,0.1900,0.5900,-8.2500,0.2500,0.0000,-0.4773,-0.4770,-0.5105,0.5330,
2025-03-06 20:43:36.532,9.8000,0.3400,0.4900,-9.9375,0.1250,0.0000,-0.4778,-0.4765,-0.5110,0.5325,
2025-03-06 20:43:36.547,9.8200,0.4700,0.3700,-15.1250,0.8750,-0.5000,-0.4784,-0.4760,-0.5115,0.5320,
2025-03-06 20:43:36.559,9.8800,0.5200,0.3500,-18.8750,1.0625,-1.0000,-0.4791,-0.4753,-0.5121,0.5314,
2025-03-06 20:43:36.564,9.9600,0.5800,0.3300,-22.6250,1.4375,-1.5000,-0.4798,-0.4744,-0.5129,0.5306,
2025-03-06 20:43:36.572,9.9600,0.5800,0.3300,-22.6250,1.4375,-1.5000,-0.4807,-0.4734,-0.5140,0.5297,
2025-03-06 20:43:36.583,9.9300,0.5300,0.3500,-25.5625,1.5000,-2.1250,-0.4816,-0.4724,-0.5151,0.5287,
2025-03-06 20:43:36.593,10.0300,0.4300,0.3100,-29.5625,0.8125,-2.9375,-0.4827,-0.4712,-0.5164,0.5275,
2025-03-06 20:43:36.603,10.0400,0.4700,0.3400,-32.3750,1.1250,-3.5625,-0.4838,-0.4710,-0.5178,0.5253,
2025-03-06 20:43:36.613,10.0500,0.5100,0.3700,-34.8125,1.0625,-3.9375,-0.4850,-0.4705,-0.5194,0.5231,
2025-03-06 20:43:36.622,10.0500,0.5100,0.3700,-36.8750,1.2500,-4.1250,-0.4862,-0.4700,-0.5211,0.5208,
2025-03-06 20:43:36.643,10.0500,0.5800,0.3900,-39.0000,1.3750,-4.2500,-0.4875,-0.4692,-0.5229,0.5184,
2025-03-06 20:43:36.644,10.0500,0.7100,0.4800,-41.1250,1.8750,-4.6875,-0.4888,-0.4684,-0.5249,0.5159,
2025-03-06 20:43:36.659,10.0500,0.7000,0.4500,-43.5000,2.3750,-5.0625,-0.4901,-0.4674,-0.5270,0.5134,
2025-03-06 20:43:36.672,10.0200,0.6300,0.3600,-45.8750,3.1250,-5.6875,-0.4914,-0.4663,-0.5293,0.5108,
2025-03-06 20:43:36.673,10.0200,0.6300,0.3600,-45.8750,3.1250,-5.6875,-0.4928,-0.4651,-0.5317,0.5081,
2025-03-06 20:43:36.682,10.0300,0.5800,0.3000,-49.0000,3.5625,-5.9375,-0.4944,-0.4637,-0.5340,0.5054,
2025-03-06 20:43:36.693,9.9800,0.5000,0.2600,-55.6250,4.1875,-6.5625,-0.4961,-0.4620,-0.5366,0.5025,
2025-03-06 20:43:36.724,9.9500,0.4200,0.2900,-58.4375,3.9375,-6.6250,-0.4980,-0.4601,-0.5392,0.4995,
2025-03-06 20:43:36.732,9.9300,0.4200,0.3000,-60.3750,3.9375,-6.6875,-0.5001,-0.4581,-0.5419,0.4965,
2025-03-06 20:43:36.732,9.9300,0.4200,0.3000,-61.8750,4.3750,-6.3750,-0.5022,-0.4558,-0.5446,0.4934,
2025-03-06 20:43:36.735,9.8700,0.4500,0.2900,-63.7500,4.3750,-6.4375,-0.5043,-0.4535,-0.5474,0.4903,
2025-03-06 20:43:36.743,9.9200,0.4300,0.2500,-66.1875,4.4375,-6.7500,-0.5066,-0.4510,-0.5502,0.4871,
2025-03-06 20:43:36.754,9.9700,0.4000,0.2800,-68.9375,4.7500,-7.3125,-0.5089,-0.4484,-0.5532,0.4838,
2025-03-06 20:43:36.763,10.0400,0.3400,0.3000,-71.6875,5.2500,-7.7500,-0.5113,-0.4456,-0.5562,0.4804,
2025-03-06 20:43:36.772,10.0400,0.3400,0.3000,-71.6875,5.2500,-7.7500,-0.5137,-0.4426,-0.5593,0.4768,
2025-03-06 20:43:36.782,10.0800,0.1400,0.2300,-73.9375,5.6250,-8.4375,-0.5160,-0.4396,-0.5624,0.4735,
2025-03-06 20:43:36.794,10.0100,0.0700,0.2500,-77.4375,6.1875,-8.6875,-0.5184,-0.4361,-0.5658,0.4700,
2025-03-06 20:43:36.805,9.9600,0.1000,0.2800,-79.3750,6.2500,-8.8125,-0.5209,-0.4326,-0.5692,0.4664,
2025-03-06 20:43:36.823,9.9000,0.1100,0.2900,-80.8125,6.3750,-9.0625,-0.5233,-0.4289,-0.5728,0.4628,
2025-03-06 20:43:36.826,9.9000,0.1100,0.2900,-80.8125,6.3750,-9.0625,-0.5259,-0.4251,-0.5763,0.4589,
2025-03-06 20:43:36.837,9.8700,0.1100,0.2600,-82.2500,6.4375,-9.1875,-0.5285,-0.4211,-0.5800,0.4549,
2025-03-06 20:43:36.846,9.8500,0.0800,0.2300,-85.0000,6.5625,-9.6250,-0.5311,-0.4173,-0.5835,0.4509,
2025-03-06 20:43:36.854,9.8500,0.0700,0.2100,-86.5625,6.8750,-9.7500,-0.5338,-0.4134,-0.5870,0.4467,
2025-03-06 20:43:36.863,9.8600,0.0600,0.2300,-88.4375,7.3125,-9.9375,-0.5365,-0.4094,-0.5906,0.4425,
2025-03-06 20:43:36.872,9.8600,0.0600,0.2300,-88.4375,7.3125,-9.9375,-0.5393,-0.4052,-0.5942,0.4381,
2025-03-06 20:43:36.883,9.8600,0.0500,0.2100,-90.3125,7.2500,-10.0625,-0.5420,-0.4009,-0.5979,0.4336,
2025-03-06 20:43:36.896,9.8500,0.0800,0.2200,-94.3125,7.8750,-10.3125,-0.5448,-0.3966,-0.6016,0.4290,
2025-03-06 20:43:36.903,9.8700,0.0500,0.1900,-96.2500,7.8125,-10.7500,-0.5476,-0.3920,-0.6054,0.4243,
2025-03-06 20:43:36.917,9.8700,0.0000,0.1900,-98.2500,7.9375,-11.0625,-0.5503,-0.3874,-0.6092,0.4195,
2025-03-06 20:43:36.927,9.8700,0.0000,0.1900,-98.2500,7.9375,-11.0625,-0.5531,-0.3826,-0.6131,0.4146,
2025-03-06 20:43:36.937,9.9000,-0.0800,0.2000,-100.5000,8.3125,-11.3125,-0.5559,-0.3776,-0.6170,0.4095,
2025-03-06 20:43:36.950,9.8700,-0.1800,0.0500,-104.1250,8.6875,-11.5000,-0.5587,-0.3726,-0.6210,0.4043,
2025-03-06 20:43:36.957,9.8700,-0.1900,0.0000,-106.0625,8.4375,-11.5000,-0.5615,-0.3673,-0.6249,0.3990,
2025-03-06 20:43:36.967,9.8600,-0.1300,0.0000,-108.0000,8.3750,-11.6875,-0.5643,-0.3620,-0.6290,0.3936,
2025-03-06 20:43:36.976,9.8600,-0.1300,0.0000,-108.0000,8.3750,-11.6875,-0.5671,-0.3565,-0.6330,0.3881,
2025-03-06 20:43:36.986,9.8600,-0.0700,0.0100,-110.3125,8.0625,-11.8125,-0.5698,-0.3511,-0.6370,0.3826,
2025-03-06 20:43:36.993,9.8500,-0.0300,0.1500,-115.8125,8.4375,-12.1250,-0.5726,-0.3453,-0.6411,0.3768,
2025-03-06 20:43:37.019,9.8500,-0.0800,0.1200,-118.3125,9.1250,-12.2500,-0.5754,-0.3394,-0.6452,0.3707,
2025-03-06 20:43:37.023,9.8200,-0.2900,0.0500,-120.9375,9.6250,-12.5625,-0.5783,-0.3332,-0.6494,0.3646,
2025-03-06 20:43:37.023,9.8200,-0.2900,0.0500,-120.9375,9.6250,-12.5625,-0.5811,-0.3268,-0.6536,0.3582,
2025-03-06 20:43:37.033,9.8100,-0.4000,0.0000,-123.3750,10.0625,-12.7500,-0.5839,-0.3204,-0.6578,0.3517,
2025-03-06 20:43:37.043,9.8200,-0.5400,-0.0300,-125.5000,9.5625,-12.7500,-0.5867,-0.3137,-0.6620,0.3451,
2025-03-06 20:43:37.053,9.8400,-0.5300,0.0900,-126.0000,9.1875,-12.8125,-0.5894,-0.3071,-0.6662,0.3384,
2025-03-06 20:43:37.066,9.8300,-0.5400,0.1300,-126.8125,9.0625,-13.0625,-0.5921,-0.3003,-0.6703,0.3316,
2025-03-06 20:43:37.072,9.8300,-0.5400,0.1300,-126.8125,9.0625,-13.0625,-0.5948,-0.2935,-0.6743,0.3247,
2025-03-06 20:43:37.083,9.8500,-0.5500,0.1300,-128.0625,9.2500,-13.0625,-0.5975,-0.2865,-0.6783,0.3176,
2025-03-06 20:43:37.093,9.8200,-0.7200,0.0700,-130.8125,9.7500,-13.4375,-0.6000,-0.2795,-0.6822,0.3106,
2025-03-06 20:43:37.103,9.8400,-0.7500,0.0600,-132.2500,10.0000,-13.8125,-0.6025,-0.2723,-0.6861,0.3033,
2025-03-06 20:43:37.113,9.8600,-0.8200,0.0700,-133.5625,10.2500,-13.9375,-0.6050,-0.2651,-0.6900,0.2960,
2025-03-06 20:43:37.125,9.8600,-0.8200,0.0700,-133.5625,10.2500,-13.9375,-0.6074,-0.2577,-0.6938,0.2886,
2025-03-06 20:43:37.131,9.8500,-0.8000,0.1900,-134.7500,10.3750,-14.3125,-0.6101,-0.2493,-0.6980,0.2798,
2025-03-06 20:43:37.145,9.8100,-0.8400,0.2400,-136.1875,10.0625,-15.0000,-0.6124,-0.2418,-0.7017,0.2722,
2025-03-06 20:43:37.157,9.8400,-1.0200,0.2400,-136.5000,10.1875,-15.0625,-0.6146,-0.2343,-0.7053,0.2644,
2025-03-06 20:43:37.170,9.8300,-1.1500,0.2200,-136.8750,10.3750,-15.2500,-0.6167,-0.2267,-0.7089,0.2566,
2025-03-06 20:43:37.172,9.8300,-1.1500,0.2200,-136.8750,10.3750,-15.2500,-0.6187,-0.2190,-0.7123,0.2488,
2025-03-06 20:43:37.183,9.8300,-1.2600,0.2000,-136.8125,10.5000,-15.1250,-0.6207,-0.2111,-0.7157,0.2406,
2025-03-06 20:43:37.198,9.8400,-1.2900,0.2200,-136.1875,10.1875,-14.3750,-0.6225,-0.2034,-0.7190,0.2327,
2025-03-06 20:43:37.205,9.8300,-1.2500,0.2600,-135.1875,9.5625,-14.1875,-0.6243,-0.1956,-0.7221,0.2249,
2025-03-06 20:43:37.228,9.8000,-1.2300,0.3200,-134.6250,9.4375,-13.8750,-0.6260,-0.1879,-0.7251,0.2170,
2025-03-06 20:43:37.235,9.8000,-1.2300,0.3200,-134.6250,9.4375,-13.8750,-0.6276,-0.1802,-0.7279,0.2092,
2025-03-06 20:43:37.236,9.7400,-1.2200,0.4700,-134.5000,9.3750,-13.8750,-0.6292,-0.1724,-0.7307,0.2012,
2025-03-06 20:43:37.247,9.6900,-1.2800,0.4900,-134.2500,9.3125,-13.6875,-0.6307,-0.1647,-0.7333,0.1933,
2025-03-06 20:43:37.255,9.7000,-1.3200,0.4700,-133.7500,9.5000,-13.5000,-0.6321,-0.1570,-0.7358,0.1854,
2025-03-06 20:43:37.263,9.7500,-1.4100,0.4300,-132.6250,9.4375,-13.5000,-0.6333,-0.1492,-0.7383,0.1775,
2025-03-06 20:43:37.275,9.7500,-1.4100,0.4300,-132.6250,9.4375,-13.5000,-0.6345,-0.1415,-0.7407,0.1697,
2025-03-06 20:43:37.283,9.7800,-1.4500,0.4500,-131.6250,9.4375,-13.4375,-0.6356,-0.1339,-0.7429,0.1619,
2025-03-06 20:43:37.294,9.7800,-1.3700,0.5100,-130.1250,8.6250,-12.8750,-0.6366,-0.1262,-0.7450,0.1541,
2025-03-06 20:43:37.321,9.7600,-1.3500,0.5500,-129.5625,8.4375,-12.6250,-0.6376,-0.1186,-0.7470,0.1464,
2025-03-06 20:43:37.326,9.7500,-1.3100,0.5800,-129.0625,8.2500,-12.6250,-0.6385,-0.1110,-0.7488,0.1387,
2025-03-06 20:43:37.326,9.7500,-1.3100,0.5800,-129.0625,8.2500,-12.6250,-0.6393,-0.1035,-0.7506,0.1310,
2025-03-06 20:43:37.335,9.7300,-1.3500,0.6100,-128.6250,8.4375,-12.5625,-0.6401,-0.0955,-0.7523,0.1229,
2025-03-06 20:43:37.345,9.8000,-1.4100,0.5600,-126.9375,8.4375,-12.0625,-0.6408,-0.0880,-0.7539,0.1153,
2025-03-06 20:43:37.353,9.8200,-1.3700,0.5900,-125.4375,8.2500,-11.9375,-0.6414,-0.0805,-0.7554,0.1077,
2025-03-06 20:43:37.364,9.7800,-1.2800,0.5900,-123.9375,8.0000,-11.3750,-0.6419,-0.0731,-0.7567,0.1002,
2025-03-06 20:43:37.374,9.7800,-1.2800,0.5900,-123.9375,8.0000,-11.3750,-0.6423,-0.0657,-0.7580,0.0928,
2025-03-06 20:43:37.383,9.7100,-1.2200,0.6500,-122.8125,7.9375,-11.1875,-0.6428,-0.0569,-0.7593,0.0837,
2025-03-06 20:43:37.394,9.6000,-1.2500,0.6500,-121.1875,8.3750,-11.1250,-0.6430,-0.0496,-0.7604,0.0764,
2025-03-06 20:43:37.404,9.5800,-1.3700,0.6500,-120.6875,8.3125,-11.2500,-0.6432,-0.0424,-0.7614,0.0692,
2025-03-06 20:43:37.414,9.6100,-1.3800,0.6000,-120.3125,8.5625,-11.3750,-0.6433,-0.0352,-0.7623,0.0619,
2025-03-06 20:43:37.425,9.6100,-1.3800,0.6000,-120.3125,8.5625,-11.3750,-0.6433,-0.0280,-0.7631,0.0546,
2025-03-06 20:43:37.433,9.6800,-1.3700,0.5900,-119.4375,8.1250,-11.1875,-0.6433,-0.0202,-0.7639,0.0466,
2025-03-06 20:43:37.447,9.8200,-1.2200,0.4400,-117.7500,8.0000,-11.0000,-0.6432,-0.0131,-0.7646,0.0395,
2025-03-06 20:43:37.455,9.7600,-1.2400,0.4700,-117.0000,8.0625,-10.8125,-0.6430,-0.0061,-0.7651,0.0323,
2025-03-06 20:43:37.464,9.7000,-1.2500,0.5100,-116.5625,8.0000,-10.6250,-0.6428,0.0009,-0.7656,0.0253,
2025-03-06 20:43:37.472,9.7000,-1.2500,0.5100,-116.5625,8.0000,-10.6250,-0.6425,0.0079,-0.7661,0.0183,
2025-03-06 20:43:37.486,9.6800,-1.1400,0.6600,-117.0625,8.0000,-10.6250,-0.6421,0.0149,-0.7664,0.0112,
2025-03-06 20:43:37.494,9.7000,-1.0500,0.6800,-117.8125,8.5625,-11.1875,-0.6417,0.0220,-0.7667,0.0042,
2025-03-06 20:43:37.504,9.7500,-1.0900,0.6400,-117.3125,9.0625,-11.4375,-0.6412,0.0290,-0.7668,-0.0030,
2025-03-06 20:43:37.515,9.7500,-1.1600,0.6200,-116.6250,9.0625,-11.3750,-0.6405,0.0360,-0.7670,-0.0101,
2025-03-06 20:43:37.522,9.7500,-1.1600,0.6200,-116.6250,9.0625,-11.3750,-0.6398,0.0429,-0.7671,-0.0172,
2025-03-06 20:43:37.533,9.7700,-1.2200,0.6500,-117.0000,9.4375,-11.0625,-0.6390,0.0502,-0.7671,-0.0247,
2025-03-06 20:43:37.543,9.6800,-1.5100,0.6500,-118.5000,9.7500,-11.0625,-0.6382,0.0572,-0.7671,-0.0318,
2025-03-06 20:43:37.557,9.6300,-1.6400,0.6800,-119.0000,10.0000,-11.0000,-0.6373,0.0643,-0.7670,-0.0389,
2025-03-06 20:43:37.566,9.6200,-1.8400,0.6700,-119.0625,9.9375,-10.6875,-0.6362,0.0714,-0.7668,-0.0461,
2025-03-06 20:43:37.573,9.6200,-1.8400,0.6700,-119.0625,9.9375,-10.6875,-0.6352,0.0784,-0.7665,-0.0533,
2025-03-06 20:43:37.582,9.6800,-2.0400,0.7400,-118.4375,9.7500,-10.6250,-0.6340,0.0855,-0.7662,-0.0604,
2025-03-06 20:43:37.594,9.7600,-2.0600,0.8500,-113.7500,8.9375,-10.5000,-0.6329,0.0924,-0.7658,-0.0674,
2025-03-06 20:43:37.620,9.8000,-2.0200,0.8900,-110.2500,8.3125,-10.3125,-0.6317,0.0992,-0.7652,-0.0742,
2025-03-06 20:43:37.620,9.7600,-1.8300,1.0100,-106.8750,7.7500,-10.3125,-0.6306,0.1057,-0.7647,-0.0808,
2025-03-06 20:43:37.622,9.7600,-1.8300,1.0100,-106.8750,7.7500,-10.3125,-0.6294,0.1120,-0.7640,-0.0873,
2025-03-06 20:43:37.636,9.6800,-1.7200,1.0500,-103.9375,7.3750,-10.0625,-0.6282,0.1180,-0.7633,-0.0934,
2025-03-06 20:43:37.644,9.6200,-1.5800,1.1100,-101.0000,6.5000,-10.3125,-0.6271,0.1243,-0.7625,-0.0994,
2025-03-06 20:43:37.660,9.6500,-1.6300,1.1900,-100.0625,6.6875,-10.6250,-0.6260,0.1301,-0.7616,-0.1055,
2025-03-06 20:43:37.664,9.6800,-1.6500,1.1300,-99.1250,7.2500,-10.6250,-0.6247,0.1359,-0.7608,-0.1115,
2025-03-06 20:43:37.672,9.6800,-1.6500,1.1300,-99.1250,7.2500,-10.6250,-0.6234,0.1417,-0.7599,-0.1175,
2025-03-06 20:43:37.682,9.7100,-1.7300,1.1600,-98.1250,7.4375,-10.6875,-0.6221,0.1473,-0.7590,-0.1234,
2025-03-06 20:43:37.694,9.7800,-1.7900,1.1200,-93.5625,7.5000,-10.3125,-0.6208,0.1531,-0.7580,-0.1289,
2025-03-06 20:43:37.703,9.7700,-1.8100,1.2000,-90.0000,7.6875,-10.0625,-0.6196,0.1589,-0.7569,-0.1343,
2025-03-06 20:43:37.714,9.7700,-1.8400,1.2300,-86.5625,8.2500,-9.7500,-0.6183,0.1645,-0.7558,-0.1393,
2025-03-06 20:43:37.722,9.7700,-1.8400,1.2300,-86.5625,8.2500,-9.7500,-0.6170,0.1699,-0.7547,-0.1442,
2025-03-06 20:43:37.732,9.7300,-1.9900,1.3600,-83.0625,8.5000,-9.5000,-0.6157,0.1751,-0.7537,-0.1487,
2025-03-06 20:43:37.746,9.6800,-2.0300,1.4000,-75.6875,9.0000,-8.3750,-0.6143,0.1804,-0.7528,-0.1530,
2025-03-06 20:43:37.757,9.5800,-1.9500,1.4100,-71.8125,9.1250,-7.8125,-0.6130,0.1855,-0.7518,-0.1569,
2025-03-06 20:43:37.766,9.5100,-1.9200,1.4500,-68.8125,8.9375,-7.1250,-0.6116,0.1904,-0.7510,-0.1605,
2025-03-06 20:43:37.773,9.5100,-1.9200,1.4500,-68.8125,8.9375,-7.1250,-0.6102,0.1951,-0.7501,-0.1639,
2025-03-06 20:43:37.784,9.5000,-1.8300,1.5100,-66.3750,8.3750,-6.6250,-0.6090,0.1992,-0.7494,-0.1667,
2025-03-06 20:43:37.797,9.4500,-1.8000,1.5500,-62.2500,7.9375,-6.4375,-0.6076,0.2036,-0.7487,-0.1700,
2025-03-06 20:43:37.804,9.3500,-1.9200,1.5900,-60.1250,8.1250,-6.3125,-0.6062,0.2078,-0.7479,-0.1732,
2025-03-06 20:43:37.815,9.3800,-1.9600,1.5400,-57.6250,7.7500,-6.0625,-0.6048,0.2119,-0.7472,-0.1761,
2025-03-06 20:43:37.822,9.3800,-1.9600,1.5400,-57.6250,7.7500,-6.0625,-0.6034,0.2159,-0.7465,-0.1789,
2025-03-06 20:43:37.833,9.5500,-2.1300,1.5200,-55.0000,6.9375,-6.0625,-0.6024,0.2192,-0.7460,-0.1805,
2025-03-06 20:43:37.843,9.6000,-2.1300,1.5200,-47.6250,6.0000,-4.8750,-0.6011,0.2231,-0.7453,-0.1828,
2025-03-06 20:43:37.856,9.6200,-1.9800,1.6200,-42.5625,5.3750,-4.3125,-0.6000,0.2267,-0.7446,-0.1848,
2025-03-06 20:43:37.864,9.5400,-1.7400,1.7400,-37.5625,4.6250,-4.2500,-0.5989,0.2300,-0.7440,-0.1866,
2025-03-06 20:43:37.875,9.5400,-1.7400,1.7400,-37.5625,4.6250,-4.2500,-0.5980,0.2327,-0.7435,-0.1883,
2025-03-06 20:43:37.886,9.5100,-1.6300,1.8400,-33.8750,4.0625,-4.1875,-0.5975,0.2339,-0.7432,-0.1896,
2025-03-06 20:43:37.894,9.5400,-1.6400,1.9200,-29.6875,5.0625,-3.5000,-0.5968,0.2356,-0.7428,-0.1915,
2025-03-06 20:43:37.922,9.5900,-1.7800,1.9100,-29.8125,5.2500,-3.2500,-0.5960,0.2372,-0.7424,-0.1933,
2025-03-06 20:43:37.930,9.6500,-1.9700,1.9000,-29.6875,5.7500,-3.5625,-0.5953,0.2388,-0.7420,-0.1951,
2025-03-06 20:43:37.930,9.6500,-1.9700,1.9000,-29.6875,5.7500,-3.5625,-0.5945,0.2404,-0.7416,-0.1970,
2025-03-06 20:43:37.932,9.6700,-2.0900,1.8600,-28.3750,6.3125,-3.6875,-0.5937,0.2419,-0.7413,-0.1987,
2025-03-06 20:43:37.943,9.7000,-2.1400,1.8500,-21.6875,4.5000,-3.6250,-0.5930,0.2432,-0.7410,-0.2004,
2025-03-06 20:43:37.954,9.6800,-2.0800,1.9000,-16.8125,3.5000,-3.5000,-0.5924,0.2443,-0.7407,-0.2018,
2025-03-06 20:43:37.966,9.6200,-1.8800,1.9900,-12.3125,2.6875,-3.0625,-0.5920,0.2451,-0.7405,-0.2029,
2025-03-06 20:43:37.972,9.6200,-1.8800,1.9900,-12.3125,2.6875,-3.0625,-0.5917,0.2457,-0.7403,-0.2038,
2025-03-06 20:43:37.984,9.5900,-1.7800,2.0100,-8.1875,1.9375,-3.1875,-0.5916,0.2456,-0.7403,-0.2040,
2025-03-06 20:43:37.994,9.5400,-1.6100,1.9700,-2.4375,1.0625,-3.3750,-0.5915,0.2457,-0.7402,-0.2045,
2025-03-06 20:43:38.005,9.5400,-1.6100,1.9700,-0.8750,0.6250,-3.8125,-0.5915,0.2457,-0.7402,-0.2048,
2025-03-06 20:43:38.014,9.5500,-1.5800,1.8700,0.5000,0.3125,-3.6875,-0.5915,0.2455,-0.7401,-0.2051,
2025-03-06 20:43:38.024,9.5500,-1.5800,1.8700,0.5000,0.3125,-3.6875,-0.5916,0.2454,-0.7401,-0.2054,
2025-03-06 20:43:38.037,9.5300,-1.5900,1.8700,1.8750,0.3750,-3.6250,-0.5920,0.2442,-0.7403,-0.2045,
2025-03-06 20:43:38.044,9.4900,-1.6400,1.9000,4.8750,0.3125,-3.4375,-0.5922,0.2438,-0.7403,-0.2045,
2025-03-06 20:43:38.054,9.4900,-1.6400,1.9000,7.1250,0.1875,-3.1250,-0.5921,0.2436,-0.7405,-0.2042,
2025-03-06 20:43:38.072,9.5600,-1.6300,1.9200,10.0625,-0.1875,-2.8125,-0.5921,0.2433,-0.7407,-0.2039,
2025-03-06 20:43:38.074,9.5600,-1.6300,1.9200,10.0625,-0.1875,-2.8125,-0.5921,0.2428,-0.7410,-0.2033,
2025-03-06 20:43:38.082,9.6700,-1.5900,1.8500,13.1875,-0.5625,-2.5625,-0.5923,0.2417,-0.7415,-0.2021,
2025-03-06 20:43:38.093,9.6900,-1.5100,1.8300,18.0625,-0.6875,-2.2500,-0.5925,0.2408,-0.7419,-0.2013,
2025-03-06 20:43:38.104,9.7200,-1.4300,1.7900,19.8750,-1.2500,-1.8750,-0.5929,0.2397,-0.7422,-0.2004,
2025-03-06 20:43:38.115,9.5900,-1.1500,1.6800,21.5000,-1.8125,-1.5625,-0.5933,0.2384,-0.7425,-0.1995,
2025-03-06 20:43:38.123,9.5900,-1.1500,1.6800,21.5000,-1.8125,-1.5625,-0.5939,0.2370,-0.7428,-0.1985,
2025-03-06 20:43:38.132,9.5400,-1.0900,1.7100,23.1250,-2.1875,-1.1250,-0.5948,0.2346,-0.7434,-0.1962,
2025-03-06 20:43:38.146,9.5100,-1.0800,1.7000,25.2500,-2.0625,-1.1875,-0.5953,0.2330,-0.7438,-0.1950,
2025-03-06 20:43:38.154,9.5200,-1.1400,1.7600,26.1875,-1.6250,-1.3750,-0.5959,0.2314,-0.7442,-0.1938,
2025-03-06 20:43:38.167,9.5700,-1.2000,1.7100,27.2500,-1.4375,-1.3125,-0.5964,0.2297,-0.7446,-0.1925,
2025-03-06 20:43:38.173,9.5700,-1.2000,1.7100,27.2500,-1.4375,-1.3125,-0.5970,0.2280,-0.7450,-0.1912,
2025-03-06 20:43:38.182,9.6000,-1.1700,1.5100,28.8125,-1.3125,-1.0000,-0.5978,0.2257,-0.7456,-0.1891,
2025-03-06 20:43:38.193,9.6000,-1.0300,1.4400,32.9375,-2.7500,-0.5000,-0.5985,0.2238,-0.7460,-0.1875,
2025-03-06 20:43:38.224,9.6300,-0.9100,1.4000,34.1250,-3.8125,-0.3750,-0.5992,0.2217,-0.7465,-0.1858,
2025-03-06 20:43:38.224,9.7300,-0.4600,1.2900,34.1875,-4.4375,-0.3125,-0.6000,0.2196,-0.7470,-0.1840,
2025-03-06 20:43:38.224,9.7300,-0.4600,1.2900,34.1875,-4.4375,-0.3125,-0.6008,0.2175,-0.7474,-0.1822,
2025-03-06 20:43:38.232,9.7200,-0.3400,1.2700,33.5000,-4.6875,-0.3125,-0.6019,0.2144,-0.7481,-0.1791,
2025-03-06 20:43:38.244,9.7300,-0.2500,1.2100,30.5000,-4.1875,-0.1250,-0.6027,0.2125,-0.7484,-0.1774,
2025-03-06 20:43:38.254,9.7100,-0.0400,1.1400,28.0625,-4.0625,0.1250,-0.6035,0.2106,-0.7487,-0.1757,
2025-03-06 20:43:38.266,9.7100,-0.0400,1.1400,25.5625,-4.1250,0.1875,-0.6041,0.2089,-0.7490,-0.1743,
2025-03-06 20:43:38.272,9.6900,-0.0100,1.1200,25.5625,-4.1250,0.1875,-0.6047,0.2073,-0.7493,-0.1729,
2025-03-06 20:43:38.290,9.7300,0.0100,1.1200,23.0000,-3.8125,0.1875,-0.6055,0.2054,-0.7496,-0.1710,
2025-03-06 20:43:38.295,9.6500,0.0000,1.1700,18.3750,-2.6250,-0.3750,-0.6060,0.2041,-0.7498,-0.1699,
2025-03-06 20:43:38.307,9.6300,-0.0900,1.2000,16.0000,-2.1875,-0.6250,-0.6064,0.2030,-0.7500,-0.1689,
2025-03-06 20:43:38.314,9.6100,-0.1700,1.2600,13.9375,-1.8750,-1.0625,-0.6068,0.2020,-0.7501,-0.1680,
2025-03-06 20:43:38.325,9.6100,-0.3600,1.2600,13.9375,-1.8750,-1.0625,-0.6080,0.2004,-0.7496,-0.1680,
2025-03-06 20:43:38.333,9.6500,-0.4500,1.2400,12.5000,-1.6250,-1.5000,-0.6085,0.1992,-0.7498,-0.1669,
2025-03-06 20:43:38.346,9.7000,-0.4700,1.2300,11.3750,-2.4375,-1.6875,-0.6088,0.1983,-0.7499,-0.1663,
2025-03-06 20:43:38.353,9.7700,-0.4200,1.1700,11.3125,-2.6250,-1.7500,-0.6091,0.1976,-0.7499,-0.1658,
2025-03-06 20:43:38.364,9.8500,-0.2700,1.1900,11.1875,-2.7500,-1.5625,-0.6095,0.1968,-0.7500,-0.1653,
2025-03-06 20:43:38.380,9.8700,-0.1900,1.2300,11.1875,-2.7500,-1.5625,-0.6099,0.1960,-0.7500,-0.1648,
2025-03-06 20:43:38.385,9.8900,-0.1500,1.2500,10.8125,-2.9375,-1.5625,-0.6111,0.1946,-0.7494,-0.1646,
2025-03-06 20:43:38.392,9.9300,-0.1200,1.3100,8.5625,-1.3750,-1.9375,-0.6122,0.1933,-0.7488,-0.1647,
2025-03-06 20:43:38.406,9.9100,-0.1700,1.2900,6.9375,-0.3750,-2.1875,-0.6132,0.1921,-0.7483,-0.1649,
2025-03-06 20:43:38.414,9.8400,-0.2600,1.2800,5.7500,0.1250,-2.3125,-0.6139,0.1911,-0.7479,-0.1652,
2025-03-06 20:43:38.423,9.7800,-0.3200,1.2800,5.7500,0.1250,-2.3125,-0.6145,0.1902,-0.7475,-0.1653,
2025-03-06 20:43:38.433,9.7000,-0.4100,1.2300,4.9375,0.0000,-2.3750,-0.6154,0.1887,-0.7475,-0.1644,
2025-03-06 20:43:38.462,9.6500,-0.4100,1.2400,3.8750,-0.6875,-2.2500,-0.6159,0.1881,-0.7472,-0.1645,
2025-03-06 20:43:38.465,9.6800,-0.3900,1.2400,3.6250,-0.9375,-2.4375,-0.6163,0.1876,-0.7469,-0.1646,
2025-03-06 20:43:38.465,9.6600,-0.3800,1.3200,3.8750,-0.8750,-2.4375,-0.6168,0.1871,-0.7466,-0.1647,
2025-03-06 20:43:38.473,9.6400,-0.3700,1.3500,3.8750,-0.8750,-2.4375,-0.6172,0.1865,-0.7464,-0.1648,
2025-03-06 20:43:38.485,9.6400,-0.3900,1.3400,4.5000,-0.8125,-2.4375,-0.6176,0.1859,-0.7462,-0.1647,
2025-03-06 20:43:38.494,9.6300,-0.4100,1.3100,5.4375,-0.7500,-2.5000,-0.6180,0.1853,-0.7460,-0.1647,
2025-03-06 20:43:38.520,9.6100,-0.3200,1.1900,5.3125,-0.8125,-2.5000,-0.6184,0.1847,-0.7458,-0.1647,
2025-03-06 20:43:38.524,9.6300,-0.2200,1.1800,4.8750,-1.0625,-2.6250,-0.6190,0.1841,-0.7455,-0.1648,
2025-03-06 20:43:38.524,9.6400,-0.1500,1.2200,4.8750,-1.0625,-2.6250,-0.6195,0.1834,-0.7452,-0.1649,
2025-03-06 20:43:38.534,9.7500,-0.0900,1.2300,3.9375,-1.4375,-2.6250,-0.6201,0.1827,-0.7449,-0.1651,
2025-03-06 20:43:38.544,9.8000,-0.1200,1.2700,1.3750,-1.0625,-2.6875,-0.6207,0.1821,-0.7445,-0.1654,
2025-03-06 20:43:38.556,9.8000,-0.1900,1.2600,0.3125,-0.5000,-2.7500,-0.6212,0.1816,-0.7441,-0.1658,
2025-03-06 20:43:38.565,9.8100,-0.2800,1.2800,-0.2500,0.0625,-2.8125,-0.6215,0.1813,-0.7438,-0.1661,
2025-03-06 20:43:38.582,9.7700,-0.4800,1.3700,-0.2500,0.0625,-2.8125,-0.6217,0.1810,-0.7437,-0.1664,
2025-03-06 20:43:38.582,9.7400,-0.5300,1.3400,-0.3125,0.5000,-2.8125,-0.6218,0.1809,-0.7436,-0.1665,
2025-03-06 20:43:38.594,9.7200,-0.6100,1.3100,0.8125,0.1250,-2.1875,-0.6218,0.1807,-0.7436,-0.1667,
2025-03-06 20:43:38.604,9.7300,-0.4800,1.3000,1.2500,-0.3750,-1.8750,-0.6218,0.1805,-0.7436,-0.1668,
2025-03-06 20:43:38.614,9.7400,-0.3900,1.3600,1.1875,-0.4375,-1.7500,-0.6219,0.1804,-0.7436,-0.1668,
2025-03-06 20:43:38.624,9.7300,-0.3800,1.4400,1.1875,-0.4375,-1.7500,-0.6219,0.1802,-0.7436,-0.1669,
2025-03-06 20:43:38.643,9.7200,-0.4000,1.4700,0.6250,-0.3125,-1.5625,-0.6220,0.1801,-0.7435,-0.1670,
2025-03-06 20:43:38.652,9.7100,-0.5300,1.4700,-0.3125,0.8750,-1.6250,-0.6221,0.1799,-0.7435,-0.1671,
2025-03-06 20:43:38.654,9.7000,-0.5800,1.4600,0.0000,1.0625,-1.3125,-0.6221,0.1798,-0.7435,-0.1672,
2025-03-06 20:43:38.666,9.7300,-0.6600,1.4200,0.7500,0.9375,-1.0000,-0.6221,0.1797,-0.7435,-0.1673,
2025-03-06 20:43:38.676,9.7600,-0.6400,1.3600,0.7500,0.9375,-1.0000,-0.6221,0.1797,-0.7435,-0.1674,
2025-03-06 20:43:38.683,9.8000,-0.5900,1.3700,1.8125,0.6250,-0.6875,-0.6221,0.1795,-0.7435,-0.1673,
2025-03-06 20:43:38.695,9.8200,-0.4700,1.3900,3.6875,0.1250,-0.1250,-0.6222,0.1793,-0.7435,-0.1671,
2025-03-06 20:43:38.704,9.8500,-0.4000,1.3500,4.1250,0.2500,-0.1250,-0.6223,0.1791,-0.7435,-0.1669,
2025-03-06 20:43:38.714,9.8200,-0.3100,1.3800,4.1250,0.5000,-0.4375,-0.6224,0.1788,-0.7435,-0.1668,
2025-03-06 20:43:38.722,9.7600,-0.3200,1.4200,4.1250,0.5000,-0.4375,-0.6226,0.1785,-0.7435,-0.1666,
2025-03-06 20:43:38.732,9.7000,-0.3800,1.4500,3.2500,0.9375,-0.3750,-0.6227,0.1782,-0.7435,-0.1664,
2025-03-06 20:43:38.754,9.5700,-0.6600,1.4200,1.8125,1.5000,-0.5625,-0.6226,0.1780,-0.7436,-0.1664,
2025-03-06 20:43:38.754,9.5700,-0.6600,1.4200,1.9375,1.4375,-0.3750,-0.6226,0.1779,-0.7437,-0.1663,
2025-03-06 20:43:38.763,9.5300,-0.7300,1.4100,2.5625,1.2500,0.1250,-0.6226,0.1778,-0.7438,-0.1662,
2025-03-06 20:43:38.772,9.5600,-0.7800,1.3900,2.5625,1.2500,0.1250,-0.6225,0.1776,-0.7439,-0.1661,
2025-03-06 20:43:38.782,9.6200,-0.7800,1.3400,3.1875,0.8750,0.7500,-0.6225,0.1773,-0.7440,-0.1658,
2025-03-06 20:43:38.794,9.6600,-0.7300,1.3300,5.6250,-0.3750,1.5000,-0.6226,0.1771,-0.7441,-0.1655,
2025-03-06 20:43:38.827,9.7200,-0.6900,1.3000,6.7500,-0.8125,1.4375,-0.6226,0.1768,-0.7442,-0.1650,
2025-03-06 20:43:38.827,9.7900,-0.5900,1.3800,7.8750,-0.8750,1.3750,-0.6228,0.1765,-0.7442,-0.1646,
2025-03-06 20:43:38.827,9.8000,-0.5800,1.4500,7.8750,-0.8750,1.3750,-0.6230,0.1762,-0.7443,-0.1640,
2025-03-06 20:43:38.833,9.8100,-0.5100,1.4700,8.7500,-0.8125,0.8750,-0.6233,0.1752,-0.7445,-0.1630,
2025-03-06 20:43:38.843,9.7900,-0.5000,1.4300,10.8125,-0.5625,0.5000,-0.6235,0.1747,-0.7445,-0.1624,
2025-03-06 20:43:38.853,9.7900,-0.3900,1.3400,11.0625,-0.8125,0.4375,-0.6237,0.1740,-0.7446,-0.1619,
2025-03-06 20:43:38.865,9.7800,-0.3400,1.3100,10.6875,-0.9375,0.3125,-0.6240,0.1733,-0.7447,-0.1613,
2025-03-06 20:43:38.873,9.8000,-0.2800,1.2900,10.6875,-0.9375,0.3125,-0.6243,0.1726,-0.7447,-0.1607,
2025-03-06 20:43:38.884,9.7500,-0.2100,1.2300,9.8125,-0.9375,0.2500,-0.6247,0.1719,-0.7447,-0.1602,
2025-03-06 20:43:38.896,9.7000,-0.2200,1.1900,8.0625,-0.5000,0.1875,-0.6250,0.1712,-0.7446,-0.1598,
2025-03-06 20:43:38.905,9.6300,-0.2400,1.1300,7.4375,-0.3750,-0.0625,-0.6254,0.1706,-0.7445,-0.1595,
2025-03-06 20:43:38.923,9.5700,-0.2900,1.1500,6.3750,-0.4375,-0.1875,-0.6257,0.1700,-0.7444,-0.1592,
2025-03-06 20:43:38.923,9.5800,-0.4500,1.2000,6.3750,-0.4375,-0.1875,-0.6260,0.1696,-0.7444,-0.1589,
2025-03-06 20:43:38.933,9.6100,-0.5000,1.2700,5.1875,-0.6250,-0.7500,-0.6262,0.1694,-0.7443,-0.1589,
2025-03-06 20:43:38.944,9.6900,-0.5600,1.3100,3.6250,-1.2500,-1.1875,-0.6264,0.1691,-0.7442,-0.1587,
2025-03-06 20:43:38.953,9.7200,-0.5700,1.2800,4.5000,-1.7500,-1.0000,-0.6267,0.1689,-0.7441,-0.1585,
2025-03-06 20:43:38.965,9.8100,-0.5000,1.2600,5.4375,-2.1250,-0.7500,-0.6269,0.1686,-0.7440,-0.1583,
2025-03-06 20:43:38.974,9.8100,-0.4400,1.2300,5.4375,-2.1250,-0.7500,-0.6272,0.1683,-0.7438,-0.1580,
2025-03-06 20:43:38.983,9.8400,-0.3900,1.2500,6.0000,-2.5000,-0.6250,-0.6276,0.1679,-0.7437,-0.1577,
2025-03-06 20:43:38.994,9.7900,-0.3800,1.3000,5.5625,-1.9375,-1.3750,-0.6279,0.1675,-0.7435,-0.1574,
2025-03-06 20:43:39.003,9.8000,-0.3900,1.3000,5.4375,-1.5625,-1.6250,-0.6282,0.1671,-0.7434,-0.1572,
2025-03-06 20:43:39.014,9.7900,-0.3600,1.3200,5.5000,-1.4375,-1.7500,-0.6285,0.1667,-0.7434,-0.1570,
2025-03-06 20:43:39.024,9.7600,-0.3500,1.2800,5.5000,-1.4375,-1.7500,-0.6287,0.1662,-0.7433,-0.1568,
2025-03-06 20:43:39.032,9.8100,-0.2800,1.2300,5.6250,-1.1250,-1.7500,-0.6290,0.1658,-0.7432,-0.1567,
2025-03-06 20:43:39.044,9.8400,-0.2600,1.1800,6.0000,-1.0625,-1.4375,-0.6293,0.1653,-0.7431,-0.1565,
2025-03-06 20:43:39.055,9.8100,-0.2000,1.1400,5.6250,-0.9375,-1.3125,-0.6296,0.1649,-0.7430,-0.1563,
2025-03-06 20:43:39.063,9.8200,-0.1400,1.1100,4.6875,-1.0625,-1.3125,-0.6299,0.1644,-0.7428,-0.1562,
2025-03-06 20:43:39.072,9.8000,-0.0900,1.1100,4.6875,-1.0625,-1.3125,-0.6303,0.1639,-0.7426,-0.1561,
2025-03-06 20:43:39.083,9.7800,-0.0900,1.1300,3.4375,-1.1875,-1.3125,-0.6307,0.1635,-0.7423,-0.1561,
2025-03-06 20:43:39.093,9.7500,-0.1100,1.1500,1.3750,-0.8750,-1.6875,-0.6311,0.1631,-0.7421,-0.1562,
2025-03-06 20:43:39.121,9.7200,-0.1600,1.2400,0.1250,-0.8125,-2.0000,-0.6314,0.1628,-0.7419,-0.1563,
2025-03-06 20:43:39.125,9.7300,-0.2400,1.3100,-0.7500,-0.5625,-2.3125,-0.6315,0.1627,-0.7418,-0.1565,
2025-03-06 20:43:39.125,9.7400,-0.2900,1.3000,-0.7500,-0.5625,-2.3125,-0.6317,0.1625,-0.7416,-0.1567,
2025-03-06 20:43:39.132,9.7300,-0.3800,1.2000,-1.1250,-0.3125,-2.5000,-0.6318,0.1625,-0.7415,-0.1570,
2025-03-06 20:43:39.143,9.7100,-0.3400,1.1700,-0.3125,-0.5625,-2.4375,-0.6319,0.1624,-0.7414,-0.1572,
2025-03-06 20:43:39.153,9.7400,-0.3300,1.1400,-0.1250,-0.9375,-2.6875,-0.6320,0.1622,-0.7413,-0.1574,
2025-03-06 20:43:39.173,9.7600,-0.2500,1.2200,-0.8125,-1.3750,-2.6875,-0.6321,0.1621,-0.7412,-0.1575,
2025-03-06 20:43:39.174,9.7400,-0.2300,1.2600,-0.8125,-1.3750,-2.6875,-0.6323,0.1620,-0.7410,-0.1577,
2025-03-06 20:43:39.182,9.7400,-0.1900,1.3100,-1.5000,-1.0625,-2.8125,-0.6325,0.1619,-0.7408,-0.1580,
2025-03-06 20:43:39.200,9.7500,-0.1500,1.3100,-2.5625,-1.1250,-2.8125,-0.6326,0.1618,-0.7406,-0.1583,
2025-03-06 20:43:39.206,9.7500,-0.1800,1.2200,-2.7500,-0.8750,-2.5000,-0.6328,0.1618,-0.7404,-0.1586,
2025-03-06 20:43:39.216,9.7600,-0.2000,1.1700,-2.5625,-0.5625,-2.3750,-0.6329,0.1618,-0.7402,-0.1589,
2025-03-06 20:43:39.225,9.7700,-0.2600,1.1200,-2.5625,-0.5625,-2.3750,-0.6330,0.1618,-0.7401,-0.1592,
2025-03-06 20:43:39.232,9.7400,-0.2900,1.1900,-2.6250,-0.6250,-2.1875,-0.6331,0.1620,-0.7399,-0.1597,
2025-03-06 20:43:39.243,9.7100,-0.3000,1.3200,-5.0000,-0.5625,-2.2500,-0.6332,0.1620,-0.7397,-0.1600,
2025-03-06 20:43:39.254,9.7200,-0.2900,1.3400,-5.8750,-0.3125,-2.5000,-0.6332,0.1623,-0.7396,-0.1604,
2025-03-06 20:43:39.265,9.7200,-0.3400,1.3900,-5.8125,0.0000,-2.3125,-0.6331,0.1625,-0.7395,-0.1609,
2025-03-06 20:43:39.276,9.7500,-0.4200,1.3700,-5.8125,0.0000,-2.3125,-0.6331,0.1627,-0.7394,-0.1614,
2025-03-06 20:43:39.283,9.7400,-0.5000,1.3300,-5.4375,0.6250,-2.3750,-0.6330,0.1630,-0.7393,-0.1618,
2025-03-06 20:43:39.298,9.7600,-0.5100,1.2800,-4.3125,0.9375,-1.8750,-0.6329,0.1631,-0.7392,-0.1622,
2025-03-06 20:43:39.307,9.7900,-0.5100,1.2500,-4.0625,0.2500,-1.5000,-0.6329,0.1634,-0.7392,-0.1625,
2025-03-06 20:43:39.314,9.8800,-0.3500,1.3000,-4.0625,0.0000,-1.6250,-0.6329,0.1636,-0.7391,-0.1628,
2025-03-06 20:43:39.323,9.8600,-0.3000,1.3600,-4.0625,0.0000,-1.6250,-0.6328,0.1638,-0.7390,-0.1631,
2025-03-06 20:43:39.342,9.8300,-0.3100,1.4600,-4.5625,0.1250,-1.7500,-0.6328,0.1639,-0.7389,-0.1635,
2025-03-06 20:43:39.353,9.7700,-0.3400,1.5600,-6.0625,0.8750,-2.1250,-0.6328,0.1642,-0.7388,-0.1639,
2025-03-06 20:43:39.355,9.7500,-0.4600,1.5300,-6.4375,1.5000,-2.3750,-0.6326,0.1644,-0.7387,-0.1644,
2025-03-06 20:43:39.365,9.7400,-0.5600,1.4500,-6.0000,2.0000,-2.3750,-0.6325,0.1647,-0.7387,-0.1649,
2025-03-06 20:43:39.376,9.6900,-0.6100,1.3800,-6.0000,2.0000,-2.3750,-0.6323,0.1650,-0.7387,-0.1653,
2025-03-06 20:43:39.384,9.6900,-0.6100,1.3600,-4.6875,1.6875,-2.0000,-0.6321,0.1652,-0.7387,-0.1656,
2025-03-06 20:43:39.397,9.6800,-0.5500,1.3500,-1.5000,-0.3750,-1.5625,-0.6321,0.1653,-0.7387,-0.1659,
2025-03-06 20:43:39.430,9.6600,-0.5000,1.4000,-0.6250,-0.7500,-1.6250,-0.6321,0.1654,-0.7386,-0.1660,
2025-03-06 20:43:39.430,9.6300,-0.5200,1.4800,0.1875,-0.6250,-1.8125,-0.6321,0.1654,-0.7386,-0.1661,
2025-03-06 20:43:39.430,9.5900,-0.5800,1.5200,0.1875,-0.6250,-1.8125,-0.6321,0.1654,-0.7385,-0.1661,
2025-03-06 20:43:39.434,9.5700,-0.6900,1.5500,0.7500,-0.5000,-2.0625,-0.6321,0.1653,-0.7386,-0.1661,
2025-03-06 20:43:39.443,9.5400,-0.7500,1.5300,0.9375,-0.1250,-2.3125,-0.6321,0.1653,-0.7386,-0.1661,
2025-03-06 20:43:39.454,9.5700,-0.8100,1.4400,1.3750,-0.5625,-2.2500,-0.6320,0.1653,-0.7387,-0.1660,
2025-03-06 20:43:39.465,9.6500,-0.7300,1.4100,2.7500,-1.3125,-1.8125,-0.6320,0.1653,-0.7387,-0.1658,
2025-03-06 20:43:39.471,9.7500,-0.6100,1.3800,2.7500,-1.3125,-1.8125,-0.6321,0.1653,-0.7387,-0.1656,
2025-03-06 20:43:39.482,9.8200,-0.4200,1.3700,4.8125,-1.8125,-1.6250,-0.6323,0.1650,-0.7386,-0.1655,
2025-03-06 20:43:39.494,9.8200,-0.3600,1.4200,6.4375,-1.8750,-1.1875,-0.6326,0.1646,-0.7386,-0.1652,
2025-03-06 20:43:39.504,9.8300,-0.3000,1.4200,5.7500,-1.6250,-1.7500,-0.6328,0.1641,-0.7386,-0.1649,
2025-03-06 20:43:39.515,9.8200,-0.3500,1.4200,5.7500,-1.6250,-1.7500,-0.6330,0.1636,-0.7386,-0.1646,
2025-03-06 20:43:39.523,9.8000,-0.3800,1.4300,5.7500,-1.6250,-1.7500,-0.6332,0.1632,-0.7385,-0.1644,
2025-03-06 20:43:39.535,9.8000,-0.4200,1.4000,5.7500,-1.3125,-2.2500,-0.6334,0.1627,-0.7385,-0.1642,
2025-03-06 20:43:39.553,9.7700,-0.3900,1.4000,6.2500,-1.4375,-2.1250,-0.6336,0.1623,-0.7385,-0.1640,
2025-03-06 20:43:39.555,9.7300,-0.3000,1.3000,7.2500,-1.6250,-2.0625,-0.6338,0.1618,-0.7385,-0.1638,
2025-03-06 20:43:39.564,9.7600,-0.3100,1.2900,8.1875,-1.8750,-1.7500,-0.6340,0.1613,-0.7384,-0.1635,
2025-03-06 20:43:39.572,9.7500,-0.3200,1.2900,8.1875,-1.8750,-1.7500,-0.6343,0.1607,-0.7384,-0.1631,
2025-03-06 20:43:39.581,9.7100,-0.2600,1.2800,7.8125,-1.6875,-1.7500,-0.6345,0.1602,-0.7384,-0.1628,
2025-03-06 20:43:39.593,9.7200,-0.3200,1.3100,6.8125,-1.3750,-1.7500,-0.6348,0.1596,-0.7384,-0.1625,
2025-03-06 20:43:39.605,9.6900,-0.3700,1.3300,6.6875,-1.0000,-1.6875,-0.6350,0.1591,-0.7383,-0.1622,
2025-03-06 20:43:39.617,9.6600,-0.3300,1.3100,7.3750,-1.1250,-1.4375,-0.6352,0.1586,-0.7383,-0.1619,
2025-03-06 20:43:39.621,9.6800,-0.3700,1.2400,7.3750,-1.1250,-1.4375,-0.6354,0.1581,-0.7383,-0.1616,
2025-03-06 20:43:39.634,9.6900,-0.2900,1.2100,8.6250,-1.3125,-1.1875,-0.6356,0.1576,-0.7383,-0.1612,
2025-03-06 20:43:39.644,9.7200,-0.2500,1.2300,9.3125,-1.8750,-0.8125,-0.6359,0.1570,-0.7383,-0.1607,
2025-03-06 20:43:39.654,9.7800,-0.1600,1.2300,9.1875,-1.6250,-0.8750,-0.6362,0.1564,-0.7383,-0.1603,
2025-03-06 20:43:39.664,9.7700,-0.1200,1.3200,9.1875,-1.2500,-0.9375,-0.6364,0.1558,-0.7384,-0.1598,
2025-03-06 20:43:39.674,9.7400,-0.1100,1.3100,9.1875,-1.2500,-0.9375,-0.6367,0.1552,-0.7384,-0.1594,
2025-03-06 20:43:39.683,9.7400,-0.1900,1.3600,9.0625,-1.2500,-1.1875,-0.6369,0.1545,-0.7384,-0.1589,
2025-03-06 20:43:39.693,9.7500,-0.2700,1.3100,8.2500,-1.0625,-1.5625,-0.6371,0.1539,-0.7384,-0.1585,
2025-03-06 20:43:39.725,9.8000,-0.3200,1.2500,8.5625,-1.1875,-1.8125,-0.6373,0.1533,-0.7385,-0.1581,
2025-03-06 20:43:39.740,9.8400,-0.3100,1.1800,9.5625,-1.3125,-1.7500,-0.6376,0.1528,-0.7384,-0.1578,
2025-03-06 20:43:39.740,9.9100,-0.2500,1.1600,9.5625,-1.3125,-1.7500,-0.6378,0.1521,-0.7384,-0.1574,
2025-03-06 20:43:39.740,9.8800,-0.0400,1.1500,10.3750,-1.5625,-1.8750,-0.6381,0.1514,-0.7384,-0.1569,
2025-03-06 20:43:39.746,9.8900,-0.0200,1.1700,9.9375,-1.1250,-1.8750,-0.6385,0.1506,-0.7384,-0.1564,
2025-03-06 20:43:39.771,9.8200,-0.0500,1.2000,9.3750,-0.5625,-1.7500,-0.6388,0.1498,-0.7384,-0.1561,
2025-03-06 20:43:39.771,9.7400,-0.0300,1.1700,7.8750,-0.2500,-1.7500,-0.6390,0.1492,-0.7384,-0.1557,
2025-03-06 20:43:39.773,9.7600,-0.0200,1.1400,7.8750,-0.2500,-1.7500,-0.6392,0.1486,-0.7384,-0.1554,
2025-03-06 20:43:39.796,9.7700,-0.0100,1.1500,6.3750,0.0625,-1.6250,-0.6394,0.1480,-0.7384,-0.1552,
2025-03-06 20:43:39.798,9.8000,0.0300,1.1400,5.6250,-0.1250,-1.2500,-0.6395,0.1475,-0.7384,-0.1550,
2025-03-06 20:43:39.806,9.8300,0.1000,1.1100,5.3750,-0.0625,-1.5000,-0.6397,0.1470,-0.7384,-0.1548,
2025-03-06 20:43:39.814,9.8000,0.1600,1.1500,5.0000,-0.1875,-1.7500,-0.6400,0.1465,-0.7383,-0.1547,
2025-03-06 20:43:39.824,9.8000,0.1100,1.1700,5.0000,-0.1875,-1.7500,-0.6401,0.1460,-0.7382,-0.1547,
2025-03-06 20:43:39.831,9.7500,0.0400,1.1600,4.5625,-0.1250,-2.0625,-0.6403,0.1455,-0.7382,-0.1546,
2025-03-06 20:43:39.844,9.7300,-0.0300,1.1400,2.5625,0.0625,-2.8125,-0.6405,0.1451,-0.7381,-0.1546,
2025-03-06 20:43:39.854,9.7200,-0.0700,1.1100,1.6250,0.3125,-2.8125,-0.6406,0.1448,-0.7380,-0.1547,
2025-03-06 20:43:39.865,9.7000,-0.0600,1.1400,1.1250,0.1250,-2.6875,-0.6407,0.1445,-0.7380,-0.1548,
2025-03-06 20:43:39.872,9.6300,0.0000,1.1200,1.1250,0.1250,-2.6875,-0.6409,0.1442,-0.7379,-0.1549,
2025-03-06 20:43:39.886,9.6500,0.0500,1.1200,0.5625,0.0625,-2.8125,-0.6410,0.1440,-0.7378,-0.1551,
2025-03-06 20:43:39.896,9.6500,0.0200,1.1500,0.0000,-0.0625,-2.8750,-0.6411,0.1439,-0.7377,-0.1553,
2025-03-06 20:43:39.904,9.6900,-0.1300,1.1900,-0.3750,0.0625,-2.7500,-0.6411,0.1437,-0.7377,-0.1555,
2025-03-06 20:43:39.916,9.6700,-0.1100,1.1900,-0.8125,-0.1250,-3.0625,-0.6412,0.1436,-0.7376,-0.1556,
2025-03-06 20:43:39.922,9.6600,-0.1500,1.2200,-0.8125,-0.1250,-3.0625,-0.6413,0.1434,-0.7375,-0.1559,
2025-03-06 20:43:39.934,9.7300,-0.2400,1.2200,-1.4375,-0.1250,-2.8750,-0.6413,0.1434,-0.7374,-0.1561,
2025-03-06 20:43:39.945,9.7900,-0.1600,1.2400,-1.5625,-0.4375,-1.8750,-0.6413,0.1434,-0.7374,-0.1564,
2025-03-06 20:43:39.957,9.7800,-0.0900,1.2600,-1.5000,-0.6875,-1.6250,-0.6413,0.1434,-0.7373,-0.1566,
2025-03-06 20:43:39.964,9.8000,-0.0300,1.2800,-1.5000,-0.3125,-1.6250,-0.6414,0.1434,-0.7372,-0.1567,
2025-03-06 20:43:39.974,9.7800,0.0000,1.3100,-1.5000,-0.3125,-1.6250,-0.6414,0.1434,-0.7372,-0.1569,
2025-03-06 20:43:39.982,9.7700,-0.0400,1.3000,-1.3750,0.4375,-1.5625,-0.6414,0.1434,-0.7371,-0.1571,
2025-03-06 20:43:39.995,9.7300,-0.1200,1.2400,-1.5625,1.0000,-1.1875,-0.6413,0.1434,-0.7372,-0.1573,
2025-03-06 20:43:40.024,9.7000,-0.2000,1.2100,-1.6875,0.7500,-1.0625,-0.6413,0.1434,-0.7372,-0.1574,
2025-03-06 20:43:40.024,9.7100,-0.2200,1.2500,-2.1250,0.3125,-0.3750,-0.6412,0.1435,-0.7372,-0.1576,
2025-03-06 20:43:40.024,9.7500,-0.2300,1.2700,-2.1250,0.3125,-0.3750,-0.6412,0.1436,-0.7371,-0.1577,
2025-03-06 20:43:40.035,9.8100,-0.1900,1.3100,-2.1875,0.1250,0.0000,-0.6412,0.1438,-0.7371,-0.1578,
2025-03-06 20:43:40.045,9.8400,-0.1000,1.3300,-1.8750,0.0000,0.6875,-0.6412,0.1439,-0.7371,-0.1579,
2025-03-06 20:43:40.054,9.8300,-0.0600,1.2900,-1.7500,0.4375,1.0000,-0.6411,0.1441,-0.7371,-0.1580,
2025-03-06 20:43:40.063,9.7900,-0.0600,1.2600,-1.3750,1.3125,0.9375,-0.6411,0.1442,-0.7370,-0.1580,
2025-03-06 20:43:40.071,9.7400,-0.0500,1.2600,-1.3750,1.3125,0.9375,-0.6410,0.1443,-0.7371,-0.1580,
2025-03-06 20:43:40.082,9.6800,-0.0800,1.2700,-1.2500,1.6250,0.8125,-0.6409,0.1445,-0.7372,-0.1581,
2025-03-06 20:43:40.103,9.6500,-0.1300,1.2800,-1.6250,1.3125,0.7500,-0.6407,0.1446,-0.7372,-0.1581,
2025-03-06 20:43:40.113,9.6700,-0.1600,1.2600,-1.8125,1.0000,0.8125,-0.6406,0.1447,-0.7373,-0.1581,
2025-03-06 20:43:40.114,9.7000,-0.2200,1.2900,-2.0000,0.5625,0.8125,-0.6406,0.1448,-0.7374,-0.1582,
2025-03-06 20:43:40.126,9.7400,-0.2400,1.3200,-2.0000,0.5625,0.8125,-0.6405,0.1450,-0.7373,-0.1583,
2025-03-06 20:43:40.131,9.7600,-0.1900,1.3400,-1.8750,0.3125,0.8750,-0.6405,0.1452,-0.7373,-0.1583,
2025-03-06 20:43:40.149,9.7600,-0.1700,1.3500,-0.6875,0.1875,0.3750,-0.6404,0.1454,-0.7373,-0.1583,
2025-03-06 20:43:40.154,9.7300,-0.1700,1.3500,-0.1250,0.0625,0.1875,-0.6404,0.1454,-0.7373,-0.1584,
2025-03-06 20:43:40.171,9.7300,-0.1900,1.3000,0.4375,0.1875,0.1875,-0.6404,0.1454,-0.7373,-0.1583,
2025-03-06 20:43:40.173,9.7500,-0.1700,1.2800,0.4375,0.1875,0.1875,-0.6404,0.1454,-0.7373,-0.1583,
2025-03-06 20:43:40.183,9.7600,-0.0800,1.2500,1.0000,-0.1875,0.0000,-0.6405,0.1454,-0.7373,-0.1583,
2025-03-06 20:43:40.194,9.7700,-0.0400,1.2700,0.5625,-0.2500,-0.1875,-0.6405,0.1453,-0.7373,-0.1583,
2025-03-06 20:43:40.207,9.7700,0.0000,1.2800,0.1250,0.1250,-0.1875,-0.6405,0.1453,-0.7373,-0.1583,
2025-03-06 20:43:40.214,9.7600,-0.0200,1.3300,-0.3125,0.3125,-0.4375,-0.6405,0.1453,-0.7373,-0.1583,
2025-03-06 20:43:40.225,9.7400,-0.1600,1.3400,-0.3125,0.3125,-0.4375,-0.6405,0.1453,-0.7373,-0.1583,
2025-03-06 20:43:40.234,9.7500,-0.2200,1.3100,-0.5625,0.3750,-0.5625,-0.6405,0.1453,-0.7373,-0.1583,
2025-03-06 20:43:40.243,9.7300,-0.2800,1.3000,-0.3125,-0.0625,-0.6250,-0.6405,0.1453,-0.7373,-0.1583,
2025-03-06 20:43:40.254,9.7800,-0.2500,1.2800,0.3125,-0.5000,-0.5625,-0.6405,0.1453,-0.7373,-0.1583,
2025-03-06 20:43:40.265,9.8000,-0.2000,1.2900,1.0625,-0.7500,-0.3750,-0.6405,0.1453,-0.7373,-0.1583,
2025-03-06 20:43:40.274,9.8200,-0.1400,1.3000,1.0625,-0.7500,-0.3750,-0.6406,0.1453,-0.7373,-0.1582,
2025-03-06 20:43:40.283,9.7900,-0.0900,1.2900,1.9375,-0.8750,-0.5000,-0.6406,0.1452,-0.7372,-0.1581,
2025-03-06 20:43:40.323,9.7400,-0.0300,1.2800,2.1250,-0.2500,-1.0000,-0.6407,0.1450,-0.7372,-0.1580,
2025-03-06 20:43:40.323,9.7100,-0.0500,1.3000,1.5000,-0.1250,-1.2500,-0.6407,0.1448,-0.7372,-0.1580,
2025-03-06 20:43:40.328,9.7500,-0.0800,1.3100,1.1875,-0.1875,-1.3750,-0.6408,0.1447,-0.7372,-0.1580,
2025-03-06 20:43:40.328,9.7500,-0.1700,1.2800,1.1875,-0.1875,-1.3750,-0.6408,0.1445,-0.7372,-0.1580,
2025-03-06 20:43:40.334,9.7500,-0.1400,1.2700,1.0625,-0.2500,-1.3750,-0.6409,0.1444,-0.7372,-0.1580,
2025-03-06 20:43:40.345,9.7700,-0.1200,1.2200,1.7500,-0.5000,-1.0000,-0.6409,0.1442,-0.7372,-0.1580,
2025-03-06 20:43:40.354,9.7800,-0.0600,1.2100,2.4375,-0.5625,-1.0625,-0.6410,0.1440,-0.7372,-0.1580,
2025-03-06 20:43:40.364,9.7400,0.0000,1.2500,2.3750,-0.5625,-1.1250,-0.6410,0.1439,-0.7372,-0.1579,
2025-03-06 20:43:40.373,9.7200,-0.0300,1.2200,2.3750,-0.5625,-1.1250,-0.6411,0.1436,-0.7372,-0.1578,
2025-03-06 20:43:40.381,9.7000,-0.0700,1.2600,1.6250,-0.5625,-1.3750,-0.6411,0.1434,-0.7372,-0.1578,
2025-03-06 20:43:40.394,9.7800,-0.1500,1.2400,1.1875,-0.5000,-1.5625,-0.6412,0.1433,-0.7372,-0.1579,
2025-03-06 20:43:40.404,9.7900,-0.1700,1.2400,1.2500,-0.5625,-1.2500,-0.6412,0.1432,-0.7372,-0.1579,
2025-03-06 20:43:40.416,9.8100,-0.1100,1.2400,1.5625,-0.6250,-1.3750,-0.6413,0.1430,-0.7371,-0.1579,
2025-03-06 20:43:40.424,9.7800,-0.0200,1.2400,1.5625,-0.6250,-1.3750,-0.6413,0.1429,-0.7371,-0.1579,
2025-03-06 20:43:40.436,9.7800,-0.0200,1.2600,1.3750,-0.8125,-1.1875,-0.6415,0.1427,-0.7370,-0.1579,
2025-03-06 20:43:40.446,9.7400,-0.0200,1.2700,0.7500,-0.1250,-1.1250,-0.6415,0.1426,-0.7371,-0.1579,
2025-03-06 20:43:40.455,9.6900,-0.0300,1.2500,-0.1250,-0.3125,-1.3125,-0.6416,0.1425,-0.7370,-0.1579,
2025-03-06 20:43:40.468,9.7100,-0.1000,1.2300,-0.7500,-0.2500,-1.3125,-0.6415,0.1424,-0.7370,-0.1580,
2025-03-06 20:43:40.473,9.6900,-0.1200,1.2500,-0.7500,-0.2500,-1.3125,-0.6416,0.1424,-0.7370,-0.1581,
2025-03-06 20:43:40.483,9.7300,-0.1500,1.2300,-0.4375,0.0625,-0.4375,-0.6416,0.1424,-0.7369,-0.1582,
2025-03-06 20:43:40.494,9.7500,-0.1400,1.2300,-0.3125,0.0625,-0.1250,-0.6416,0.1424,-0.7369,-0.1582,
2025-03-06 20:43:40.504,9.7900,-0.0700,1.2200,-0.0625,0.1250,-0.1875,-0.6416,0.1424,-0.7369,-0.1582,
2025-03-06 20:43:40.514,9.7800,-0.0200,1.2400,-0.1250,0.0000,-0.3125,-0.6416,0.1424,-0.7369,-0.1582,
2025-03-06 20:43:40.527,9.7700,0.0000,1.2900,-0.1250,0.0000,-0.3125,-0.6416,0.1424,-0.7369,-0.1582,
2025-03-06 20:43:40.536,9.8100,-0.0200,1.3200,-0.5000,0.1875,-0.5000,-0.6416,0.1424,-0.7369,-0.1582,
2025-03-06 20:43:40.544,9.8100,-0.0100,1.3000,-0.3125,0.2500,-0.5000,-0.6416,0.1424,-0.7369,-0.1582,
2025-03-06 20:43:40.554,9.7800,-0.0200,1.2900,0.0000,0.3125,-0.5000,-0.6417,0.1424,-0.7369,-0.1582,
2025-03-06 20:43:40.565,9.7700,0.0000,1.3000,0.4375,0.4375,-0.5000,-0.6417,0.1424,-0.7369,-0.1582,
2025-03-06 20:43:40.574,9.7400,-0.0200,1.3000,0.4375,0.4375,-0.5000,-0.6417,0.1424,-0.7369,-0.1582,
2025-03-06 20:43:40.585,9.7300,-0.0100,1.2900,0.5000,0.6250,-0.5000,-0.6417,0.1423,-0.7369,-0.1582,
2025-03-06 20:43:40.642,9.7400,0.0000,1.2400,0.1250,0.6875,-0.3750,-0.6416,0.1423,-0.7369,-0.1582,
2025-03-06 20:43:40.642,9.6800,-0.0500,1.1800,-0.3750,0.5000,-0.1875,-0.6416,0.1423,-0.7369,-0.1582,
2025-03-06 20:43:40.642,9.6700,-0.0900,1.2200,-1.1250,0.2500,-0.3125,-0.6416,0.1423,-0.7369,-0.1582,
2025-03-06 20:43:40.642,9.7100,-0.1400,1.2600,-1.1250,0.2500,-0.3125,-0.6416,0.1424,-0.7369,-0.1583,
2025-03-06 20:43:40.642,9.7000,-0.1300,1.2700,-1.3125,0.1250,-0.3750,-0.6416,0.1425,-0.7369,-0.1583,
2025-03-06 20:43:40.644,9.7100,-0.1300,1.2900,0.0000,0.0625,-0.1875,-0.6416,0.1426,-0.7369,-0.1584,
2025-03-06 20:43:40.654,9.7000,-0.1000,1.3300,0.8125,-0.2500,0.1250,-0.6416,0.1426,-0.7369,-0.1583,
2025-03-06 20:43:40.664,9.7600,-0.0800,1.3300,1.3750,-0.1875,0.1875,-0.6416,0.1425,-0.7369,-0.1583,
2025-03-06 20:43:40.673,9.7700,-0.0500,1.2800,1.3750,-0.1875,0.1875,-0.6416,0.1424,-0.7369,-0.1582,
2025-03-06 20:43:40.685,9.7800,-0.0100,1.2700,1.3750,0.0625,0.2500,-0.6417,0.1423,-0.7369,-0.1581,
2025-03-06 20:43:40.695,9.7800,-0.0100,1.2700,0.8750,0.1875,0.0000,-0.6416,0.1423,-0.7369,-0.1581,
2025-03-06 20:43:40.706,9.7600,-0.0500,1.2400,0.6250,0.1875,-0.1250,-0.6417,0.1422,-0.7369,-0.1581,
2025-03-06 20:43:40.717,9.7700,-0.1200,1.2800,0.5000,0.0625,-0.3750,-0.6417,0.1422,-0.7369,-0.1580,
2025-03-06 20:43:40.725,9.7800,-0.1300,1.2900,0.5000,0.0625,-0.3750,-0.6417,0.1421,-0.7369,-0.1580,
2025-03-06 20:43:40.734,9.7600,-0.1500,1.3000,0.8750,-0.1250,-0.3750,-0.6417,0.1422,-0.7369,-0.1580,
2025-03-06 20:43:40.747,9.7900,-0.0600,1.3000,1.2500,-0.2500,-0.3125,-0.6417,0.1421,-0.7369,-0.1580,
2025-03-06 20:43:40.755,9.7800,0.0000,1.3000,1.3750,-0.1250,-0.2500,-0.6417,0.1420,-0.7369,-0.1579,
2025-03-06 20:43:40.765,9.7600,0.0000,1.2800,1.1875,-0.0625,-0.3125,-0.6418,0.1420,-0.7369,-0.1578,
2025-03-06 20:43:40.773,9.7600,0.0300,1.2500,1.1875,-0.0625,-0.3125,-0.6418,0.1419,-0.7369,-0.1578,
2025-03-06 20:43:40.785,9.7800,0.0200,1.2200,0.6250,0.6250,-0.6875,-0.6418,0.1418,-0.7370,-0.1577,
2025-03-06 20:43:40.795,9.7500,-0.0200,1.2100,0.6250,0.8125,-0.6875,-0.6418,0.1417,-0.7370,-0.1577,
2025-03-06 20:43:40.804,9.7400,-0.0200,1.1800,0.6250,0.4375,-0.7500,-0.6418,0.1417,-0.7370,-0.1578,
2025-03-06 20:43:40.816,9.7200,-0.0500,1.1800,0.6875,0.1875,-0.6250,-0.6418,0.1415,-0.7370,-0.1578,
2025-03-06 20:43:40.831,9.7300,-0.0500,1.1500,0.6875,0.1875,-0.6250,-0.6419,0.1415,-0.7370,-0.1578,
2025-03-06 20:43:40.838,9.7400,-0.0200,1.1900,-0.2500,-0.1875,-0.1875,-0.6419,0.1415,-0.7369,-0.1578,
2025-03-06 20:43:40.844,9.7500,0.0200,1.2000,-0.7500,-0.1875,-0.0625,-0.6419,0.1415,-0.7369,-0.1578,
2025-03-06 20:43:40.855,9.7600,0.0900,1.2500,-1.0625,-0.1250,-0.1250,-0.6419,0.1415,-0.7369,-0.1578,
2025-03-06 20:43:40.865,9.7300,0.0800,1.2900,-1.5000,0.2500,-0.1250,-0.6420,0.1415,-0.7368,-0.1579,
2025-03-06 20:43:40.874,9.7500,0.0300,1.3300,-1.5000,0.2500,-0.1250,-0.6419,0.1417,-0.7368,-0.1580,
2025-03-06 20:43:40.883,9.7100,-0.1000,1.2700,-1.5625,0.5000,-0.2500,-0.6419,0.1417,-0.7368,-0.1581,
2025-03-06 20:43:40.895,9.7100,-0.1600,1.2700,-0.7500,0.4375,-0.2500,-0.6419,0.1418,-0.7368,-0.1581,
2025-03-06 20:43:40.922,9.7100,-0.1600,1.2500,-0.3125,0.0000,0.1250,-0.6419,0.1419,-0.7367,-0.1582,
2025-03-06 20:43:40.922,9.7300,-0.1300,1.2800,0.0000,-0.1250,0.3750,-0.6419,0.1419,-0.7367,-0.1582,
2025-03-06 20:43:40.924,9.7400,-0.0500,1.2800,0.0000,-0.1250,0.3750,-0.6419,0.1419,-0.7367,-0.1582,
2025-03-06 20:43:40.936,9.7300,-0.0200,1.3000,0.3125,0.3125,0.6875,-0.6419,0.1419,-0.7367,-0.1582,
2025-03-06 20:43:40.944,9.7100,0.0000,1.3000,0.2500,0.4375,0.3125,-0.6419,0.1419,-0.7368,-0.1581,
2025-03-06 20:43:40.954,9.7000,-0.1000,1.2600,0.0625,0.5000,0.1875,-0.6419,0.1419,-0.7368,-0.1581,
2025-03-06 20:43:40.966,9.6900,-0.1600,1.2900,0.0000,0.2500,0.0625,-0.6419,0.1419,-0.7368,-0.1581,
2025-03-06 20:43:40.972,9.7200,-0.1800,1.2900,0.0000,0.2500,0.0625,-0.6419,0.1419,-0.7368,-0.1581,
2025-03-06 20:43:40.985,9.7300,-0.1900,1.2700,0.5000,-0.4375,0.2500,-0.6419,0.1419,-0.7368,-0.1581,
2025-03-06 20:43:40.994,9.7900,-0.1100,1.2900,0.8125,-0.5000,0.2500,-0.6419,0.1419,-0.7368,-0.1581,
2025-03-06 20:43:41.012,9.8100,-0.0200,1.2700,1.2500,-0.5000,0.1875,-0.6419,0.1418,-0.7368,-0.1581,
2025-03-06 20:43:41.015,9.7900,0.0300,1.2700,1.1250,-0.3750,0.1875,-0.6419,0.1418,-0.7368,-0.1580,
2025-03-06 20:43:41.034,9.7900,0.0400,1.2500,1.1250,-0.3750,0.1875,-0.6419,0.1417,-0.7368,-0.1580,
2025-03-06 20:43:41.037,9.7600,0.0000,1.2400,0.1250,0.0625,-0.1875,-0.6419,0.1417,-0.7368,-0.1580,
2025-03-06 20:43:41.054,9.7600,-0.0300,1.2400,-0.1875,0.1250,-0.2500,-0.6419,0.1417,-0.7368,-0.1580,
2025-03-06 20:43:41.056,9.7500,-0.1000,1.2100,-0.3750,0.1875,-0.3750,-0.6419,0.1417,-0.7368,-0.1580,
2025-03-06 20:43:41.069,9.7700,-0.1300,1.2400,-0.3125,-0.2500,-0.3125,-0.6419,0.1417,-0.7368,-0.1580,
2025-03-06 20:43:41.074,9.7600,-0.1200,1.3000,-0.3125,-0.2500,-0.3125,-0.6419,0.1417,-0.7368,-0.1580,
2025-03-06 20:43:41.085,9.7500,-0.1000,1.3300,-0.2500,-1.0000,-0.2500,-0.6420,0.1417,-0.7368,-0.1579,
2025-03-06 20:43:41.096,9.7500,0.0000,1.3400,0.1875,-0.5625,-0.1875,-0.6420,0.1417,-0.7368,-0.1579,
2025-03-06 20:43:41.104,9.7500,0.0000,1.2800,1.1875,-0.4375,-0.2500,-0.6420,0.1417,-0.7368,-0.1579,
2025-03-06 20:43:41.116,9.7100,0.0000,1.2500,1.6875,-0.1875,-0.5000,-0.6420,0.1416,-0.7368,-0.1578,
2025-03-06 20:43:41.123,9.6800,0.0000,1.2300,1.6875,-0.1875,-0.5000,-0.6421,0.1415,-0.7367,-0.1578,
2025-03-06 20:43:41.134,9.7600,0.0000,1.2300,1.3750,-0.4375,-0.5000,-0.6421,0.1414,-0.7368,-0.1577,
2025-03-06 20:43:41.151,9.7900,0.0200,1.2300,0.5000,-0.1250,-0.5625,-0.6421,0.1414,-0.7368,-0.1577,
2025-03-06 20:43:41.154,9.8100,-0.0200,1.2200,0.3750,0.0000,-0.6250,-0.6421,0.1414,-0.7368,-0.1577,
2025-03-06 20:43:41.164,9.8100,-0.0500,1.2500,0.0625,0.1250,-0.3125,-0.6421,0.1414,-0.7368,-0.1577,
2025-03-06 20:43:41.174,9.7500,-0.1300,1.2700,0.0625,0.1250,-0.3125,-0.6421,0.1414,-0.7368,-0.1577,
2025-03-06 20:43:41.187,9.7400,-0.1300,1.2900,0.5625,-0.5000,-0.2500,-0.6421,0.1414,-0.7368,-0.1577,
2025-03-06 20:43:41.199,9.7400,-0.1700,1.2800,1.1875,-0.7500,-0.1875,-0.6421,0.1414,-0.7368,-0.1577,
2025-03-06 20:43:41.232,9.7000,-0.1500,1.2700,1.8125,-0.9375,-0.1250,-0.6422,0.1413,-0.7368,-0.1576,
2025-03-06 20:43:41.232,9.6800,-0.1000,1.2800,2.5000,-1.0000,-0.1250,-0.6423,0.1412,-0.7367,-0.1575,
2025-03-06 20:43:41.232,9.6900,-0.0400,1.2600,2.5000,-1.0000,-0.1250,-0.6423,0.1411,-0.7367,-0.1574,
2025-03-06 20:43:41.233,9.7400,-0.0100,1.2200,3.0000,-0.8750,-0.0625,-0.6425,0.1409,-0.7367,-0.1572,
2025-03-06 20:43:41.244,9.7700,0.0000,1.2000,2.8750,-0.4375,-0.0625,-0.6425,0.1407,-0.7367,-0.1570,
2025-03-06 20:43:41.254,9.7900,-0.0100,1.1900,2.0000,-0.2500,0.0625,-0.6426,0.1405,-0.7367,-0.1569,
2025-03-06 20:43:41.265,9.7800,0.0000,1.2100,1.1250,-0.1250,-0.0625,-0.6426,0.1404,-0.7368,-0.1567,
2025-03-06 20:43:41.277,9.8200,0.0100,1.2300,1.1250,-0.1250,-0.0625,-0.6426,0.1403,-0.7368,-0.1567,
2025-03-06 20:43:41.284,9.8200,0.0100,1.2300,0.4375,-0.2500,0.0625,-0.6426,0.1403,-0.7368,-0.1566,
2025-03-06 20:43:41.294,9.7800,0.0100,1.2400,0.5625,-0.0625,0.0000,-0.6426,0.1403,-0.7368,-0.1566,
2025-03-06 20:43:41.338,9.7800,0.0200,1.2000,0.6875,-0.1875,0.1250,-0.6426,0.1403,-0.7368,-0.1566,
2025-03-06 20:43:41.338,9.7800,-0.0100,1.2300,0.6875,-0.1875,-0.0625,-0.6426,0.1402,-0.7368,-0.1566,
2025-03-06 20:43:41.338,9.7800,-0.0600,1.2500,0.6875,-0.1875,-0.0625,-0.6426,0.1401,-0.7368,-0.1566,
2025-03-06 20:43:41.340,9.7600,-0.1100,1.2800,0.8125,0.0625,0.0000,-0.6426,0.1401,-0.7368,-0.1565,
2025-03-06 20:43:41.347,9.7400,-0.1100,1.2400,1.0625,-0.1875,0.0625,-0.6426,0.1401,-0.7368,-0.1565,
2025-03-06 20:43:41.356,9.7400,-0.0700,1.2300,1.5625,-0.0625,0.1250,-0.6427,0.1400,-0.7368,-0.1564,
2025-03-06 20:43:41.368,9.7100,-0.0200,1.2100,1.8125,-0.1250,0.3125,-0.6427,0.1399,-0.7368,-0.1563,
2025-03-06 20:43:41.376,9.6800,0.0100,1.1900,1.8125,-0.1250,0.3125,-0.6427,0.1398,-0.7369,-0.1562,
2025-03-06 20:43:41.383,9.7200,0.0300,1.2000,1.6875,-0.6875,0.1875,-0.6428,0.1397,-0.7369,-0.1561,
2025-03-06 20:43:41.395,9.7400,0.0000,1.2200,1.2500,-0.5625,0.3750,-0.6428,0.1396,-0.7368,-0.1561,
2025-03-06 20:43:41.405,9.7400,0.0100,1.2200,0.7500,-0.3750,0.4375,-0.6429,0.1395,-0.7368,-0.1559,
2025-03-06 20:43:41.415,9.7800,-0.0200,1.2100,0.4375,-0.2500,0.4375,-0.6429,0.1395,-0.7369,-0.1559,
2025-03-06 20:43:41.424,9.7900,-0.0600,1.2100,0.4375,-0.2500,0.4375,-0.6429,0.1395,-0.7369,-0.1559,
2025-03-06 20:43:41.435,9.7900,-0.0700,1.2000,0.0000,-0.1250,0.7500,-0.6429,0.1395,-0.7369,-0.1559,
2025-03-06 20:43:41.444,9.8000,-0.0400,1.2300,-0.0625,-0.3125,0.7500,-0.6429,0.1395,-0.7369,-0.1559,
2025-03-06 20:43:41.458,9.8100,-0.0300,1.2200,0.2500,-0.4375,0.9375,-0.6428,0.1396,-0.7369,-0.1558,
2025-03-06 20:43:41.465,9.8200,-0.0400,1.2600,1.0625,-0.3125,0.7500,-0.6428,0.1396,-0.7369,-0.1558,
2025-03-06 20:43:41.473,9.8100,-0.0600,1.2800,1.0625,-0.3125,0.7500,-0.6428,0.1396,-0.7369,-0.1556,
2025-03-06 20:43:41.482,9.8200,-0.1200,1.2800,1.4375,-0.0625,0.7500,-0.6428,0.1395,-0.7370,-0.1555,
2025-03-06 20:43:41.496,9.8200,-0.1400,1.2400,1.5625,0.0625,0.6250,-0.6429,0.1395,-0.7369,-0.1554,
2025-03-06 20:43:41.520,9.8400,-0.1400,1.2400,2.1875,-0.1250,0.7500,-0.6429,0.1394,-0.7370,-0.1553,
2025-03-06 20:43:41.523,9.8500,-0.1200,1.2200,2.5625,-0.0625,1.0000,-0.6429,0.1393,-0.7370,-0.1552,
2025-03-06 20:43:41.525,9.8400,0.0100,1.2300,2.5625,-0.0625,1.0000,-0.6429,0.1392,-0.7371,-0.1549,
2025-03-06 20:43:41.534,9.8300,0.0700,1.2100,2.8750,0.0000,0.8750,-0.6429,0.1391,-0.7371,-0.1547,
2025-03-06 20:43:41.544,9.7900,0.1100,1.1800,2.3750,0.4375,0.3750,-0.6429,0.1390,-0.7372,-0.1545,
2025-03-06 20:43:41.554,9.7300,0.1300,1.1600,1.7500,0.7500,0.3750,-0.6430,0.1388,-0.7372,-0.1544,
2025-03-06 20:43:41.565,9.7400,0.1000,1.1600,1.0625,0.8750,0.0625,-0.6430,0.1387,-0.7372,-0.1543,
2025-03-06 20:43:41.573,9.7500,0.0800,1.1900,1.0625,0.8750,0.0625,-0.6429,0.1386,-0.7373,-0.1542,
2025-03-06 20:43:41.584,9.7300,0.0600,1.1900,0.2500,0.8125,-0.2500,-0.6429,0.1386,-0.7374,-0.1542,
2025-03-06 20:43:41.595,9.7700,0.0300,1.2200,0.1250,0.6250,-0.3750,-0.6428,0.1386,-0.7374,-0.1542,
2025-03-06 20:43:41.607,9.7700,0.0100,1.1700,0.0000,0.4375,-0.6250,-0.6428,0.1386,-0.7374,-0.1542,
2025-03-06 20:43:41.617,9.7600,0.0000,1.2100,-0.1875,0.3750,-0.8750,-0.6428,0.1385,-0.7374,-0.1543,
2025-03-06 20:43:41.624,9.7400,-0.0100,1.2400,-0.1875,0.3750,-0.8750,-0.6428,0.1385,-0.7374,-0.1544,
2025-03-06 20:43:41.637,9.7100,0.0000,1.2400,-0.3125,0.3750,-1.4375,-0.6428,0.1384,-0.7374,-0.1544,
2025-03-06 20:43:41.646,9.7100,-0.0400,1.2600,0.0000,0.1250,-1.5625,-0.6428,0.1384,-0.7374,-0.1545,
2025-03-06 20:43:41.655,9.6800,-0.0600,1.2400,0.0625,0.0000,-1.6875,-0.6429,0.1382,-0.7374,-0.1546,
2025-03-06 20:43:41.665,9.6700,-0.1400,1.2400,0.3125,0.0625,-1.6250,-0.6429,0.1382,-0.7374,-0.1547,
2025-03-06 20:43:41.674,9.6500,-0.1600,1.2100,0.3125,0.0625,-1.6250,-0.6429,0.1381,-0.7373,-0.1548,
2025-03-06 20:43:41.686,9.6200,-0.1600,1.2000,0.8750,-0.1250,-1.5625,-0.6429,0.1379,-0.7373,-0.1549,
2025-03-06 20:43:41.696,9.6500,-0.1300,1.2100,1.1875,-0.5625,-0.9375,-0.6429,0.1378,-0.7373,-0.1549,
2025-03-06 20:43:41.705,9.6800,-0.0800,1.1800,1.1875,-0.5625,-0.6875,-0.6430,0.1377,-0.7373,-0.1549,
2025-03-06 20:43:41.717,9.7200,-0.0600,1.2000,1.1250,-0.9375,-0.3125,-0.6430,0.1376,-0.7373,-0.1548,
2025-03-06 20:43:41.725,9.7600,-0.0600,1.1600,1.1250,-0.9375,-0.3125,-0.6431,0.1375,-0.7373,-0.1548,
2025-03-06 20:43:41.740,9.8300,0.0000,1.2200,0.5625,-1.1875,0.2500,-0.6431,0.1375,-0.7373,-0.1547,
2025-03-06 20:43:41.748,9.8400,0.0700,1.2400,-0.0625,-1.1875,0.1250,-0.6432,0.1374,-0.7372,-0.1547,
2025-03-06 20:43:41.756,9.8400,0.0700,1.2800,-0.0625,-0.6875,-0.1250,-0.6433,0.1375,-0.7371,-0.1547,
2025-03-06 20:43:41.765,9.8200,0.0200,1.2600,0.1875,0.0000,-0.3125,-0.6434,0.1375,-0.7370,-0.1547,
2025-03-06 20:43:41.774,9.7900,0.0000,1.2500,0.1875,0.0000,-0.3125,-0.6434,0.1375,-0.7370,-0.1547,
2025-03-06 20:43:41.786,9.7600,-0.0500,1.2600,0.5625,0.1875,-0.2500,-0.6434,0.1375,-0.7371,-0.1547,
2025-03-06 20:43:41.794,9.7400,-0.0800,1.2400,0.3750,-0.0625,0.0000,-0.6434,0.1375,-0.7371,-0.1547,
2025-03-06 20:43:41.836,9.7500,-0.1300,1.2500,0.1875,-0.3125,0.1250,-0.6434,0.1375,-0.7371,-0.1547,
2025-03-06 20:43:41.836,9.7300,-0.1700,1.2400,0.5000,-0.3125,0.2500,-0.6434,0.1375,-0.7371,-0.1547,
2025-03-06 20:43:41.836,9.7400,-0.2000,1.2400,0.5000,-0.3125,0.2500,-0.6434,0.1375,-0.7371,-0.1547,
2025-03-06 20:43:41.836,9.7600,-0.2100,1.2300,1.3125,0.0625,0.6250,-0.6434,0.1374,-0.7371,-0.1546,
2025-03-06 20:43:41.844,9.7500,-0.1700,1.1900,1.7500,-0.0625,0.9375,-0.6434,0.1374,-0.7371,-0.1545,
2025-03-06 20:43:41.861,9.7700,-0.1000,1.1500,1.9375,-0.3125,1.0625,-0.6434,0.1373,-0.7371,-0.1544,
2025-03-06 20:43:41.869,9.7600,-0.0400,1.1900,1.5625,-0.6250,1.0625,-0.6434,0.1373,-0.7372,-0.1542,
