A1,,,,,,,,,,
time,accx,accy,accz,gyrox,gyroy,gyroz,w1,w2,w3,w4
55:56.7,-0.1,0.23,9.52,0,-0.0625,0.0625,-0.009,0.9999,0.0125,0.0054
55:56.7,-0.11,0.24,9.5,0.25,0.1875,0.0625,-0.009,0.9999,0.0125,0.0054
55:56.7,-0.1,0.24,9.47,0,0.125,0,-0.009,0.9999,0.0125,0.0054
55:56.7,-0.11,0.23,9.47,0.0625,-0.0625,0,-0.009,0.9999,0.0125,0.0054
55:56.7,-0.1,0.24,9.51,0.0625,-0.0625,0.0625,-0.009,0.9999,0.0125,0.0054
55:56.8,-0.13,0.26,9.49,0,0.0625,-0.0625,-0.009,0.9999,0.0125,0.0054
55:56.8,-0.12,0.22,9.47,0,0.125,-0.0625,-0.009,0.9999,0.0125,0.0054
55:56.8,-0.1,0.23,9.5,0,0.0625,-0.0625,-0.009,0.9999,0.0125,0.0054
55:56.8,-0.11,0.22,9.51,-0.0625,-0.0625,-0.125,-0.009,0.9999,0.0125,0.0054
55:56.8,-0.09,0.22,9.49,0.0625,0.0625,0,-0.009,0.9999,0.0125,0.0054
55:56.9,-0.12,0.25,9.5,0.125,-0.1875,-0.125,-0.009,0.9999,0.0125,0.0054
55:56.9,-0.11,0.25,9.51,0.125,0,-0.125,-0.009,0.9999,0.0125,0.0054
55:56.9,-0.12,0.23,9.5,-0.125,0,0,-0.009,0.9999,0.0125,0.0054
55:56.9,-0.11,0.24,9.5,0.0625,0.0625,0.0625,-0.009,0.9999,0.0125,0.0054
55:56.9,-0.11,0.23,9.49,0.125,-0.0625,0.1875,-0.009,0.9999,0.0125,0.0054
55:56.9,-0.12,0.23,9.48,0.0625,0.0625,0.125,-0.009,0.9999,0.0125,0.0054
55:56.9,-0.11,0.22,9.51,0.0625,0,0,-0.009,0.9999,0.0125,0.0054
55:56.9,-0.12,0.22,9.52,0.0625,0.125,0.0625,-0.009,0.9999,0.0125,0.0054
55:56.9,-0.11,0.23,9.5,-0.0625,0,-0.0625,-0.009,0.9999,0.0125,0.0054
55:57.0,-0.11,0.25,9.51,0,-0.25,0.125,-0.009,0.9999,0.0125,0.0054
55:57.0,-0.1,0.22,9.51,0.0625,0,0.125,-0.009,0.9999,0.0125,0.0054
55:57.0,-0.11,0.21,9.48,-0.0625,0.0625,0,-0.009,0.9999,0.0125,0.0054
55:57.0,-0.13,0.25,9.5,-0.0625,-0.125,-0.125,-0.009,0.9999,0.0125,0.0054
55:57.0,-0.11,0.24,9.5,0,0.125,-0.125,-0.009,0.9999,0.0125,0.0054
55:57.1,-0.11,0.23,9.47,-0.0625,0.0625,0,-0.009,0.9999,0.0125,0.0054
55:57.1,-0.12,0.22,9.49,0.0625,0,0,-0.009,0.9999,0.0125,0.0054
55:57.1,-0.11,0.23,9.5,0.0625,0,0.125,-0.009,0.9999,0.0125,0.0054
55:57.1,-0.1,0.22,9.52,0,-0.125,0,-0.009,0.9999,0.0125,0.0054
55:57.1,-0.1,0.25,9.49,0,0.3125,-0.0625,-0.009,0.9999,0.0125,0.0054
55:57.1,-0.1,0.22,9.46,0,0,0.0625,-0.009,0.9999,0.0125,0.0054
55:57.2,-0.11,0.22,9.52,-0.125,-0.0625,0.0625,-0.009,0.9999,0.0125,0.0054
55:57.2,-0.11,0.25,9.5,0,-0.0625,0.0625,-0.009,0.9999,0.0125,0.0054
55:57.2,-0.11,0.22,9.49,-0.0625,-0.0625,-0.0625,-0.009,0.9999,0.0125,0.0054
55:57.2,-0.1,0.24,9.5,0.0625,0.0625,-0.0625,-0.009,0.9999,0.0125,0.0054
55:57.2,-0.09,0.25,9.49,0,0.0625,0.0625,-0.009,0.9999,0.0125,0.0054
55:57.2,-0.1,0.24,9.52,-0.0625,0.0625,0,-0.009,0.9999,0.0125,0.0054
55:57.2,-0.1,0.23,9.5,0.125,0.0625,0,-0.009,0.9999,0.0125,0.0054
55:57.2,-0.1,0.22,9.49,0,-0.0625,0.1875,-0.009,0.9999,0.0125,0.0054
55:57.2,-0.11,0.25,9.51,0.0625,-0.0625,0,-0.009,0.9999,0.0125,0.0054
55:57.2,-0.1,0.23,9.51,-0.1875,0.0625,0.0625,-0.009,0.9999,0.0125,0.0054
55:57.2,-0.1,0.23,9.49,0.125,0,0.125,-0.009,0.9999,0.0125,0.0054
55:57.3,-0.1,0.23,9.5,0,0.125,-0.0625,-0.009,0.9999,0.0125,0.0054
55:57.3,-0.11,0.24,9.47,0.1875,0.125,0.0625,-0.009,0.9999,0.0125,0.0054
55:57.3,-0.11,0.23,9.5,0.125,-0.125,-0.0625,-0.009,0.9999,0.0125,0.0054
55:57.3,-0.11,0.25,9.49,0.125,0,0,-0.009,0.9999,0.0125,0.0054
55:57.3,-0.1,0.25,9.5,0.0625,-0.0625,0,-0.009,0.9999,0.0125,0.0054
55:57.3,-0.11,0.22,9.5,0.125,0.125,-0.0625,-0.009,0.9999,0.0125,0.0054
55:57.3,-0.11,0.22,9.47,0.0625,0.0625,-0.0625,-0.009,0.9999,0.0125,0.0054
55:57.3,-0.13,0.22,9.5,0.125,0.0625,-0.125,-0.009,0.9999,0.0125,0.0054
55:57.3,-0.11,0.22,9.5,-0.0625,-0.0625,0,-0.009,0.9999,0.0125,0.0054
55:57.3,-0.11,0.25,9.5,0,0,0.1875,-0.009,0.9999,0.0125,0.0054
55:57.3,-0.12,0.23,9.48,0,-0.0625,0.125,-0.009,0.9999,0.0125,0.0054
55:57.4,-0.11,0.22,9.47,-0.0625,-0.0625,0.0625,-0.009,0.9999,0.0125,0.0054
55:57.4,-0.1,0.24,9.5,0,-0.0625,0.0625,-0.009,0.9999,0.0125,0.0054
55:57.4,-0.1,0.23,9.54,0.0625,0,0.0625,-0.009,0.9999,0.0125,0.0054
55:57.4,-0.1,0.22,9.49,0,0,0.0625,-0.009,0.9999,0.0125,0.0054
55:57.4,-0.11,0.23,9.49,0.0625,0.0625,-0.0625,-0.009,0.9999,0.0125,0.0054
55:57.4,-0.1,0.24,9.48,0,0.125,-0.0625,-0.009,0.9999,0.0125,0.0054
55:57.4,-0.1,0.23,9.48,0,0,0,-0.009,0.9999,0.0125,0.0054
55:57.5,-0.12,0.22,9.5,0,0.25,0.0625,-0.009,0.9999,0.0125,0.0054
55:57.5,-0.1,0.22,9.51,0,0.0625,0.0625,-0.009,0.9999,0.0125,0.0054
55:57.5,-0.12,0.23,9.51,0.1875,0,0,-0.009,0.9999,0.0125,0.0054
55:57.5,-0.1,0.25,9.5,0.0625,0,0,-0.009,0.9999,0.0125,0.0054
55:57.5,-0.1,0.22,9.48,0,-0.0625,0.1875,-0.009,0.9999,0.0125,0.0054
55:57.5,-0.1,0.24,9.5,-0.0625,-0.0625,-0.0625,-0.009,0.9999,0.0125,0.0054
55:57.5,-0.11,0.23,9.5,0,0,0.125,-0.009,0.9999,0.0125,0.0054
55:57.5,-0.1,0.24,9.51,0.1875,0,0.125,-0.009,0.9999,0.0125,0.0054
55:57.5,-0.11,0.22,9.5,0.1875,-0.1875,0.0625,-0.009,0.9999,0.0125,0.0054
55:57.5,-0.09,0.22,9.47,0,0,0.0625,-0.009,0.9999,0.0125,0.0054
55:57.5,-0.11,0.22,9.49,0.125,-0.0625,0.125,-0.009,0.9999,0.0125,0.0054
55:57.5,-0.11,0.24,9.49,0,0,0,-0.009,0.9999,0.0125,0.0054
55:57.5,-0.11,0.25,9.5,0.1875,-0.0625,0,-0.009,0.9999,0.0125,0.0054
55:57.6,-0.11,0.24,9.49,0.125,-0.125,0,-0.009,0.9999,0.0125,0.0054
55:57.6,-0.09,0.22,9.51,0,0.0625,0.0625,-0.009,0.9999,0.0125,0.0054
55:57.6,-0.11,0.24,9.5,0,-0.0625,0.0625,-0.009,0.9999,0.0125,0.0054
55:57.6,-0.11,0.24,9.5,-0.125,0.0625,-0.0625,-0.009,0.9999,0.0125,0.0054
55:57.6,-0.09,0.21,9.52,0,-0.0625,0.0625,-0.009,0.9999,0.0125,0.0054
55:57.6,-0.11,0.24,9.49,-0.0625,0.125,-0.125,-0.009,0.9999,0.0125,0.0054
55:57.6,-0.1,0.24,9.49,0,0,0,-0.009,0.9999,0.0125,0.0054
55:57.6,-0.12,0.24,9.52,0.0625,0.125,-0.125,-0.009,0.9999,0.0125,0.0054
55:57.6,-0.12,0.22,9.49,0.0625,0,0.0625,-0.009,0.9999,0.0125,0.0054
55:57.6,-0.09,0.22,9.5,0.125,-0.0625,0.1875,-0.009,0.9999,0.0125,0.0054
55:57.7,-0.11,0.22,9.46,0.0625,-0.0625,0.0625,-0.009,0.9999,0.0125,0.0054
55:57.7,-0.11,0.24,9.49,0,-0.0625,0,-0.009,0.9999,0.0125,0.0054
55:57.7,-0.11,0.24,9.5,0,0,0.0625,-0.009,0.9999,0.0125,0.0054
55:57.7,-0.11,0.23,9.52,0.0625,-0.1875,0.0625,-0.009,0.9999,0.0125,0.0054
55:57.7,-0.11,0.23,9.52,-0.0625,-0.125,-0.0625,-0.009,0.9999,0.0125,0.0054
55:57.7,-0.11,0.24,9.5,-0.125,0.1875,0,-0.009,0.9999,0.0125,0.0054
55:57.7,-0.1,0.24,9.5,-0.0625,-0.0625,-0.0625,-0.009,0.9999,0.0125,0.0054
55:57.8,-0.1,0.25,9.48,0.1875,-0.0625,-0.0625,-0.009,0.9999,0.0125,0.0054
55:57.8,-0.11,0.23,9.48,0.0625,0.125,-0.125,-0.009,0.9999,0.0125,0.0054
55:57.8,-0.11,0.24,9.51,0,-0.1875,0.0625,-0.009,0.9999,0.0125,0.0054
55:57.8,-0.09,0.25,9.49,0,0,0.0625,-0.009,0.9999,0.0125,0.0054
55:57.8,-0.1,0.21,9.48,0,0.0625,-0.0625,-0.009,0.9999,0.0125,0.0054
55:57.8,-0.1,0.25,9.5,0,0.0625,-0.125,-0.009,0.9999,0.0125,0.0054
55:57.8,-0.1,0.23,9.52,0,0.0625,0.0625,-0.009,0.9999,0.0125,0.0054
55:57.8,-0.12,0.22,9.51,0.0625,0.125,0.125,-0.009,0.9999,0.0125,0.0054
55:57.8,-0.1,0.23,9.48,-0.125,0.0625,0.0625,-0.009,0.9999,0.0125,0.0054
55:57.8,-0.12,0.22,9.5,0,0.125,-0.125,-0.009,0.9999,0.0125,0.0054
55:57.8,-0.08,0.25,9.5,0.0625,0,0,-0.009,0.9999,0.0125,0.0054
55:57.8,-0.09,0.21,9.52,0,0.0625,-0.125,-0.009,0.9999,0.0125,0.0054
55:57.8,-0.1,0.23,9.47,-0.1875,0.1875,0,-0.009,0.9999,0.0125,0.0054
55:57.9,-0.12,0.22,9.5,0.0625,0.0625,0.125,-0.009,0.9999,0.0125,0.0054
55:57.9,-0.1,0.24,9.5,0.125,0,0.0625,-0.009,0.9999,0.0125,0.0054
55:57.9,-0.09,0.23,9.53,0.0625,-0.125,0.125,-0.009,0.9999,0.0125,0.0054
55:57.9,-0.11,0.24,9.52,0.125,-0.0625,0,-0.009,0.9999,0.0125,0.0054
55:57.9,-0.09,0.23,9.5,-0.0625,0.0625,-0.125,-0.009,0.9999,0.0125,0.0054
55:57.9,-0.11,0.23,9.46,-0.0625,0.125,-0.0625,-0.009,0.9999,0.0125,0.0054
55:57.9,-0.11,0.24,9.5,0.0625,0.0625,-0.125,-0.009,0.9999,0.0125,0.0054
55:57.9,-0.1,0.25,9.51,-0.0625,0.0625,0.0625,-0.009,0.9999,0.0125,0.0054
55:57.9,-0.11,0.22,9.5,0.125,0.125,0,-0.009,0.9999,0.0125,0.0054
55:58.0,-0.13,0.22,9.49,0.125,0.0625,-0.0625,-0.009,0.9999,0.0125,0.0054
55:58.0,-0.1,0.25,9.47,-0.0625,0.0625,0,-0.009,0.9999,0.0125,0.0054
55:58.0,-0.11,0.25,9.47,-0.0625,0.0625,0.0625,-0.009,0.9999,0.0125,0.0054
55:58.0,-0.1,0.22,9.45,0.0625,-0.0625,0.125,-0.009,0.9999,0.0125,0.0054
55:58.0,-0.12,0.22,9.5,0.0625,-0.0625,0,-0.009,0.9999,0.0125,0.0054
55:58.0,-0.1,0.24,9.52,0.0625,-0.125,0.0625,-0.009,0.9999,0.0125,0.0054
55:58.0,-0.11,0.24,9.47,0,-0.125,0,-0.009,0.9999,0.0125,0.0054
55:58.0,-0.1,0.24,9.5,0,-0.125,0.0625,-0.009,0.9999,0.0125,0.0054
55:58.1,-0.13,0.22,9.5,-0.0625,-0.125,0,-0.009,0.9999,0.0125,0.0054
55:58.1,-0.12,0.22,9.51,-0.125,-0.125,0.0625,-0.009,0.9999,0.0125,0.0054
55:58.1,-0.11,0.22,9.51,0.0625,0.125,0.0625,-0.009,0.9999,0.0125,0.0054
55:58.1,-0.11,0.22,9.49,0.0625,-0.0625,0,-0.009,0.9999,0.0125,0.0054
55:58.1,-0.09,0.23,9.49,0,0.0625,-0.0625,-0.009,0.9999,0.0125,0.0054
55:58.1,-0.11,0.24,9.51,-0.0625,0.0625,0,-0.009,0.9999,0.0125,0.0054
55:58.1,-0.09,0.24,9.48,0.125,-0.0625,0.0625,-0.009,0.9999,0.0125,0.0054
55:58.1,-0.1,0.23,9.51,0.125,-0.125,0,-0.009,0.9999,0.0125,0.0054
55:58.1,-0.09,0.26,9.48,0.125,0.125,-0.125,-0.009,0.9999,0.0125,0.0054
55:58.1,-0.1,0.24,9.5,0.0625,0,0.0625,-0.009,0.9999,0.0125,0.0054
55:58.1,-0.11,0.22,9.5,0.125,-0.0625,0.125,-0.009,0.9999,0.0125,0.0054
55:58.1,-0.1,0.24,9.5,0.0625,-0.0625,0.0625,-0.009,0.9999,0.0125,0.0054
55:58.1,-0.11,0.24,9.48,0,-0.25,0.1875,-0.009,0.9999,0.0125,0.0054
55:58.2,-0.09,0.25,9.5,0.125,-0.0625,0.0625,-0.009,0.9999,0.0125,0.0054
55:58.2,-0.1,0.23,9.5,-0.125,0,0.125,-0.009,0.9999,0.0125,0.0054
55:58.2,-0.09,0.26,9.51,0,-0.125,0.0625,-0.009,0.9999,0.0125,0.0054
55:58.2,-0.09,0.22,9.49,0,0,0.0625,-0.009,0.9999,0.0125,0.0054
55:58.2,-0.09,0.23,9.5,0.0625,-0.1875,0.0625,-0.009,0.9999,0.0125,0.0054
55:58.2,-0.1,0.22,9.5,0,0,0,-0.009,0.9999,0.0125,0.0054
55:58.2,-0.11,0.25,9.49,0.0625,-0.125,0.125,-0.009,0.9999,0.0125,0.0054
55:58.2,-0.11,0.23,9.5,0.0625,0,0.0625,-0.009,0.9999,0.0125,0.0054
55:58.2,-0.09,0.23,9.5,0,0.0625,-0.0625,-0.009,0.9999,0.0125,0.0054
55:58.2,-0.11,0.23,9.5,0,0.0625,-0.0625,-0.009,0.9999,0.0125,0.0054
55:58.3,-0.11,0.23,9.49,-0.125,0.0625,-0.0625,-0.009,0.9999,0.0125,0.0054
55:58.3,-0.11,0.24,9.5,0.0625,0.0625,0.0625,-0.009,0.9999,0.0125,0.0054
55:58.3,-0.1,0.24,9.51,-0.125,0.125,0,-0.009,0.9999,0.0125,0.0054
55:58.3,-0.11,0.24,9.5,-0.0625,0.125,0,-0.009,0.9999,0.0125,0.0054
55:58.3,-0.12,0.23,9.51,-0.0625,-0.0625,0.0625,-0.009,0.9999,0.0125,0.0054
55:58.3,-0.09,0.21,9.49,0.0625,0,0,-0.009,0.9999,0.0125,0.0054
55:58.4,-0.11,0.25,9.52,0.125,0,-0.0625,-0.009,0.9999,0.0125,0.0054
55:58.4,-0.09,0.23,9.51,0.0625,0.125,0,-0.009,0.9999,0.0125,0.0054
55:58.4,-0.11,0.22,9.48,0.25,-0.125,0.0625,-0.009,0.9999,0.0125,0.0054
55:58.4,-0.1,0.25,9.49,-0.0625,-0.125,0,-0.009,0.9999,0.0125,0.0054
55:58.4,-0.09,0.23,9.48,0.0625,0,0,-0.009,0.9999,0.0125,0.0054
55:58.4,-0.09,0.26,9.48,-0.125,-0.0625,-0.125,-0.009,0.9999,0.0125,0.0054
55:58.4,-0.09,0.22,9.5,-0.0625,0,-0.0625,-0.009,0.9999,0.0125,0.0054
55:58.4,-0.1,0.24,9.51,0,-0.0625,0,-0.009,0.9999,0.0125,0.0054
55:58.4,-0.12,0.25,9.51,0,0,-0.125,-0.009,0.9999,0.0125,0.0054
55:58.4,-0.09,0.23,9.48,0,-0.1875,0.0625,-0.009,0.9999,0.0125,0.0054
55:58.4,-0.11,0.25,9.51,0,-0.0625,0,-0.009,0.9999,0.0125,0.0054
55:58.4,-0.1,0.23,9.5,0.0625,0.125,0,-0.009,0.9999,0.0125,0.0054
55:58.4,-0.1,0.23,9.5,0,0.125,-0.125,-0.009,0.9999,0.0125,0.0054
55:58.5,-0.12,0.23,9.5,-0.125,-0.125,-0.1875,-0.009,0.9999,0.0125,0.0054
55:58.5,-0.08,0.24,9.49,-0.1875,-0.125,0.0625,-0.009,0.9999,0.0125,0.0054
55:58.5,-0.11,0.22,9.5,-0.125,0,-0.1875,-0.009,0.9999,0.0125,0.0054
55:58.5,-0.12,0.22,9.51,0.0625,-0.0625,0.0625,-0.009,0.9999,0.0125,0.0054
55:58.5,-0.09,0.22,9.5,-0.0625,0,-0.125,-0.009,0.9999,0.0125,0.0054
55:58.5,-0.1,0.23,9.48,0,0.0625,-0.0625,-0.009,0.9999,0.0125,0.0054
55:58.5,-0.11,0.22,9.49,-0.0625,0.0625,-0.0625,-0.009,0.9999,0.0125,0.0054
55:58.5,-0.11,0.22,9.49,-0.1875,0.0625,-0.0625,-0.009,0.9999,0.0125,0.0054
55:58.5,-0.11,0.25,9.53,-0.125,-0.125,0.1875,-0.009,0.9999,0.0125,0.0054
55:58.5,-0.11,0.22,9.51,-0.0625,-0.0625,0,-0.009,0.9999,0.0125,0.0054
55:58.5,-0.11,0.23,9.51,0,-0.125,-0.125,-0.009,0.9999,0.0125,0.0054
55:58.6,-0.1,0.25,9.47,0,0,-0.125,-0.009,0.9999,0.0125,0.0054
55:58.6,-0.09,0.23,9.5,0,0.125,-0.125,-0.009,0.9999,0.0125,0.0054
55:58.6,-0.1,0.22,9.5,-0.125,0,-0.125,-0.009,0.9999,0.0125,0.0054
55:58.6,-0.1,0.22,9.5,0,0.125,0,-0.009,0.9999,0.0125,0.0054
55:58.6,-0.09,0.24,9.48,-0.0625,-0.0625,0,-0.009,0.9999,0.0125,0.0054
55:58.6,-0.09,0.22,9.48,0.0625,0.125,-0.0625,-0.009,0.9999,0.0125,0.0054
55:58.6,-0.11,0.26,9.51,-0.125,0,-0.0625,-0.009,0.9999,0.0125,0.0054
55:58.7,-0.11,0.24,9.51,0,0.125,-0.1875,-0.009,0.9999,0.0125,0.0054
55:58.7,-0.11,0.24,9.51,-0.0625,0,-0.0625,-0.009,0.9999,0.0125,0.0054
55:58.7,-0.1,0.23,9.52,0.0625,-0.1875,-0.125,-0.009,0.9999,0.0125,0.0054
55:58.7,-0.1,0.25,9.5,0,0,0.0625,-0.009,0.9999,0.0125,0.0054
55:58.7,-0.09,0.22,9.49,-0.125,0.0625,-0.0625,-0.009,0.9999,0.0125,0.0054
55:58.7,-0.09,0.22,9.49,0,0.1875,-0.125,-0.009,0.9999,0.0125,0.0054
55:58.7,-0.11,0.22,9.51,-0.0625,-0.25,0.0625,-0.009,0.9999,0.0125,0.0054
55:58.7,-0.11,0.22,9.5,0,-0.0625,0.0625,-0.009,0.9999,0.0125,0.0054
55:58.7,-0.1,0.23,9.53,0,0.125,0.0625,-0.009,0.9999,0.0125,0.0054
55:58.7,-0.11,0.23,9.48,0,0.1875,-0.0625,-0.009,0.9999,0.0125,0.0054
55:58.7,-0.09,0.24,9.5,-0.125,0.1875,0,-0.009,0.9999,0.0125,0.0054
55:58.7,-0.1,0.22,9.51,0,0.0625,0,-0.009,0.9999,0.0125,0.0054
55:58.8,-0.12,0.25,9.51,-0.0625,0,0.0625,-0.009,0.9999,0.0125,0.0054
55:58.8,-0.11,0.24,9.51,0.0625,-0.125,-0.125,-0.009,0.9999,0.0125,0.0054
55:58.8,-0.11,0.23,9.5,0,-0.1875,0.0625,-0.009,0.9999,0.0125,0.0054
55:58.8,-0.11,0.25,9.5,-0.125,0,-0.0625,-0.009,0.9999,0.0125,0.0054
55:58.8,-0.1,0.23,9.48,-0.125,0.1875,-0.0625,-0.009,0.9999,0.0125,0.0054
55:58.8,-0.11,0.23,9.49,-0.125,-0.125,0.125,-0.009,0.9999,0.0125,0.0054
55:58.8,-0.13,0.24,9.5,-0.0625,0,0,-0.009,0.9999,0.0125,0.0054
55:58.8,-0.1,0.26,9.48,0,0,-0.0625,-0.009,0.9999,0.0125,0.0054
55:58.8,-0.11,0.25,9.51,0.1875,0,0,-0.009,0.9999,0.0125,0.0054
55:58.9,-0.11,0.24,9.46,0,-0.0625,-0.125,-0.009,0.9999,0.0125,0.0054
55:58.9,-0.11,0.22,9.47,0.0625,-0.1875,0,-0.009,0.9999,0.0125,0.0054
55:58.9,-0.11,0.22,9.46,0,-0.125,0,-0.009,0.9999,0.0125,0.0054
55:58.9,-0.1,0.23,9.5,0,0,-0.0625,-0.009,0.9999,0.0125,0.0054
55:58.9,-0.09,0.24,9.5,-0.0625,0.0625,-0.0625,-0.009,0.9999,0.0125,0.0054
55:58.9,-0.1,0.24,9.5,-0.125,0,0.0625,-0.009,0.9999,0.0125,0.0054
55:59.0,-0.11,0.23,9.51,-0.125,0,0.0625,-0.009,0.9999,0.0125,0.0054
55:59.0,-0.11,0.24,9.5,-0.0625,0.0625,-0.0625,-0.009,0.9999,0.0125,0.0054
55:59.0,-0.12,0.24,9.47,0,0.0625,0.0625,-0.009,0.9999,0.0125,0.0054
55:59.0,-0.1,0.23,9.5,-0.1875,-0.0625,-0.125,-0.009,0.9999,0.0125,0.0054
55:59.0,-0.1,0.24,9.55,-0.0625,0.0625,0,-0.009,0.9999,0.0125,0.0054
55:59.0,-0.1,0.23,9.49,-0.125,-0.0625,0.125,-0.009,0.9999,0.0125,0.0054
55:59.0,-0.09,0.23,9.46,-0.0625,0,-0.0625,-0.009,0.9999,0.0125,0.0054
55:59.1,-0.1,0.23,9.49,0.0625,-0.1875,0,-0.009,0.9999,0.0125,0.0054
55:59.1,-0.11,0.25,9.5,0,-0.125,-0.0625,-0.009,0.9999,0.0125,0.0054
55:59.1,-0.11,0.22,9.47,0.0625,0.125,-0.125,-0.009,0.9999,0.0125,0.0054
55:59.1,-0.08,0.22,9.5,0,0.0625,-0.0625,-0.009,0.9999,0.0125,0.0054
55:59.1,-0.1,0.22,9.52,-0.125,0.3125,0,-0.009,0.9999,0.0125,0.0054
55:59.1,-0.12,0.22,9.47,-0.25,0.125,-0.0625,-0.009,0.9999,0.0125,0.0054
55:59.1,-0.1,0.23,9.49,-0.125,0,0,-0.009,0.9999,0.0125,0.0054
55:59.2,-0.12,0.26,9.51,0.0625,-0.0625,0.0625,-0.009,0.9999,0.0125,0.0054
55:59.2,-0.1,0.24,9.54,0.0625,0,0,-0.009,0.9999,0.0125,0.0054
55:59.2,-0.09,0.25,9.51,-0.0625,0.125,0,-0.009,0.9999,0.0125,0.0054
55:59.2,-0.11,0.22,9.44,-0.0625,0.0625,0.0625,-0.009,0.9999,0.0125,0.0054
55:59.3,-0.09,0.23,9.44,-0.0625,0.125,-0.125,-0.009,0.9999,0.0125,0.0054
55:59.3,-0.12,0.23,9.58,0,0.0625,-0.0625,-0.009,0.9999,0.0125,0.0054
55:59.3,-0.14,0.22,9.58,0.125,0,-0.125,-0.009,0.9999,0.0125,0.0054
55:59.3,-0.1,0.22,9.45,-0.0625,0.25,-0.0625,-0.009,0.9999,0.0125,0.0054
55:59.3,-0.11,0.24,9.55,-0.0625,0.0625,-0.0625,-0.009,0.9999,0.0125,0.0054
55:59.3,-0.11,0.23,9.47,0.125,-0.0625,0,-0.009,0.9999,0.0125,0.0054
55:59.3,-0.11,0.22,9.48,-0.0625,0,0,-0.009,0.9999,0.0125,0.0054
55:59.4,-0.1,0.24,9.48,-0.0625,0.3125,-0.1875,-0.009,0.9999,0.0125,0.0054
55:59.4,-0.1,0.22,9.54,0.25,-0.125,0.0625,-0.009,0.9999,0.0125,0.0054
55:59.4,-0.12,0.22,9.45,0,-0.0625,-0.0625,-0.009,0.9999,0.0125,0.0054
55:59.4,-0.11,0.23,9.5,-0.125,0.0625,0.0625,-0.009,0.9999,0.0125,0.0054
55:59.4,-0.12,0.2,9.51,0.0625,0.125,0.0625,-0.009,0.9999,0.0125,0.0054
55:59.4,-0.1,0.23,9.48,0.125,-0.125,0,-0.009,0.9999,0.0125,0.0054
55:59.4,-0.1,0.24,9.5,0.0625,-0.0625,0,-0.009,0.9999,0.0125,0.0054
55:59.4,-0.13,0.22,9.5,0.0625,-0.375,0.0625,-0.009,0.9999,0.0125,0.0054
55:59.4,-0.12,0.24,9.5,-0.0625,-0.1875,0,-0.009,0.9999,0.0125,0.0054
55:59.5,-0.11,0.23,9.51,-0.0625,0,0,-0.009,0.9999,0.0125,0.0054
55:59.5,-0.09,0.21,9.5,0.125,-0.125,0.1875,-0.009,0.9999,0.0125,0.0054
55:59.5,-0.1,0.24,9.49,-0.0625,-0.1875,0.125,-0.009,0.9999,0.0125,0.0054
55:59.5,-0.11,0.24,9.5,0.0625,-0.0625,0,-0.009,0.9999,0.0125,0.0054
55:59.5,-0.11,0.22,9.49,-0.125,-0.0625,0.0625,-0.009,0.9999,0.0125,0.0054
55:59.5,-0.1,0.25,9.5,0,-0.0625,0,-0.009,0.9999,0.0125,0.0054
55:59.5,-0.12,0.24,9.48,0.125,-0.0625,0,-0.009,0.9999,0.0125,0.0054
55:59.6,-0.09,0.26,9.55,0.125,-0.125,0,-0.009,0.9999,0.0125,0.0054
55:59.6,-0.11,0.22,9.52,0.0625,-0.125,0.0625,-0.009,0.9999,0.0125,0.0054
55:59.6,-0.09,0.22,9.51,0.125,-0.125,0,-0.009,0.9999,0.0125,0.0054
55:59.6,-0.11,0.25,9.5,0.0625,0.125,0,-0.009,0.9999,0.0125,0.0054
55:59.6,-0.11,0.24,9.51,0.0625,0,-0.125,-0.009,0.9999,0.0125,0.0054
55:59.6,-0.11,0.24,9.51,-0.125,-0.25,0.25,-0.009,0.9999,0.0125,0.0054
55:59.6,-0.11,0.23,9.5,-0.125,0.0625,0.0625,-0.009,0.9999,0.0125,0.0054
55:59.6,-0.11,0.24,9.48,0,0,0.125,-0.009,0.9999,0.0125,0.0054
55:59.6,-0.1,0.24,9.46,0.0625,0.0625,-0.0625,-0.009,0.9999,0.0125,0.0054
55:59.6,-0.1,0.25,9.48,0.0625,-0.0625,-0.0625,-0.009,0.9999,0.0125,0.0054
55:59.6,-0.11,0.23,9.51,0.0625,-0.1875,-0.0625,-0.009,0.9999,0.0125,0.0054
55:59.6,-0.11,0.22,9.53,0,-0.0625,-0.0625,-0.009,0.9999,0.0125,0.0054
55:59.6,-0.1,0.22,9.5,-0.1875,-0.0625,0.0625,-0.009,0.9999,0.0125,0.0054
55:59.7,-0.11,0.23,9.51,-0.125,-0.0625,0.0625,-0.009,0.9999,0.0125,0.0054
55:59.7,-0.1,0.23,9.47,0,-0.125,-0.0625,-0.009,0.9999,0.0125,0.0054
55:59.7,-0.11,0.23,9.51,0,-0.125,-0.0625,-0.009,0.9999,0.0125,0.0054
55:59.7,-0.1,0.23,9.5,0.0625,0.0625,0,-0.009,0.9999,0.0125,0.0054
55:59.7,-0.11,0.23,9.51,0,0,0,-0.009,0.9999,0.0125,0.0054
55:59.7,-0.1,0.24,9.47,0.0625,-0.0625,-0.0625,-0.009,0.9999,0.0125,0.0054
55:59.7,-0.11,0.25,9.48,0.125,-0.0625,0,-0.009,0.9999,0.0125,0.0054
55:59.7,-0.11,0.24,9.5,-0.0625,-0.0625,0.0625,-0.009,0.9999,0.0125,0.0054
55:59.7,-0.11,0.23,9.53,0.0625,-0.125,0,-0.009,0.9999,0.0125,0.0054
55:59.8,-0.1,0.23,9.51,0.0625,-0.0625,0.125,-0.009,0.9999,0.0125,0.0054
55:59.8,-0.11,0.24,9.5,-0.0625,0.0625,0.0625,-0.009,0.9999,0.0125,0.0054
55:59.8,-0.09,0.23,9.48,-0.0625,0,-0.0625,-0.009,0.9999,0.0125,0.0054
55:59.8,-0.1,0.24,9.47,0,-0.125,0,-0.009,0.9999,0.0125,0.0054
55:59.8,-0.1,0.22,9.5,0.0625,-0.1875,0,-0.009,0.9999,0.0125,0.0054
55:59.8,-0.11,0.22,9.5,0.125,-0.0625,0,-0.009,0.9999,0.0125,0.0054
55:59.8,-0.1,0.23,9.52,0.125,-0.125,0.125,-0.009,0.9999,0.0125,0.0054
55:59.8,-0.11,0.23,9.49,0,0,-0.0625,-0.009,0.9999,0.0125,0.0054
55:59.8,-0.11,0.22,9.5,0,-0.1875,0,-0.009,0.9999,0.0125,0.0054
55:59.9,-0.11,0.23,9.5,0.125,0,0.125,-0.009,0.9999,0.0125,0.0054
55:59.9,-0.09,0.24,9.5,0.125,-0.125,-0.0625,-0.009,0.9999,0.0125,0.0054
55:59.9,-0.09,0.23,9.51,0.125,-0.1875,0,-0.009,0.9999,0.0125,0.0054
55:59.9,-0.11,0.22,9.47,0.0625,-0.0625,0.0625,-0.009,0.9999,0.0125,0.0054
55:59.9,-0.1,0.24,9.5,0.0625,-0.125,0.0625,-0.009,0.9999,0.0125,0.0054
55:59.9,-0.11,0.25,9.5,-0.0625,0.1875,0,-0.009,0.9999,0.0125,0.0054
55:59.9,-0.09,0.24,9.48,0.125,-0.1875,-0.125,-0.009,0.9999,0.0125,0.0054
55:59.9,-0.11,0.22,9.49,0,-0.125,-0.0625,-0.009,0.9999,0.0125,0.0054
55:59.9,-0.1,0.23,9.47,0.0625,0.0625,0.0625,-0.009,0.9999,0.0125,0.0054
55:59.9,-0.1,0.22,9.51,0.0625,0,-0.0625,-0.009,0.9999,0.0125,0.0054
55:59.9,-0.11,0.26,9.53,-0.0625,0,0,-0.009,0.9999,0.0125,0.0054
55:59.9,-0.11,0.24,9.51,0.0625,0.0625,0,-0.009,0.9999,0.0125,0.0054
56:00.0,-0.11,0.23,9.49,0.0625,-0.0625,-0.0625,-0.009,0.9999,0.0125,0.0054
56:00.0,-0.11,0.22,9.48,0,-0.0625,0,-0.009,0.9999,0.0125,0.0054
56:00.0,-0.11,0.24,9.5,0.0625,0.0625,0.0625,-0.009,0.9999,0.0125,0.0054
56:00.0,-0.11,0.24,9.5,0.1875,-0.125,0.125,-0.009,0.9999,0.0125,0.0054
56:00.0,-0.11,0.23,9.53,0.1875,-0.0625,0.0625,-0.009,0.9999,0.0125,0.0054
56:00.0,-0.1,0.23,9.51,0,0.0625,0.0625,-0.009,0.9999,0.0125,0.0054
56:00.0,-0.1,0.22,9.48,-0.1875,0.0625,0.0625,-0.009,0.9999,0.0125,0.0054
56:00.0,-0.11,0.22,9.48,0.125,0,0,-0.009,0.9999,0.0125,0.0054
56:00.0,-0.09,0.24,9.52,0,0.0625,-0.125,-0.009,0.9999,0.0125,0.0054
56:00.1,-0.11,0.25,9.49,-0.0625,0.0625,-0.0625,-0.009,0.9999,0.0125,0.0054
56:00.1,-0.1,0.24,9.53,0,0.0625,0,-0.009,0.9999,0.0125,0.0054
56:00.1,-0.11,0.24,9.46,0.0625,0,0,-0.009,0.9999,0.0125,0.0054
56:00.1,-0.11,0.23,9.49,0.0625,0.0625,0,-0.009,0.9999,0.0125,0.0054
56:00.1,-0.08,0.23,9.5,0.125,0.25,0,-0.009,0.9999,0.0125,0.0054
56:00.1,-0.1,0.24,9.52,0.0625,0,0.125,-0.009,0.9999,0.0125,0.0054
56:00.1,-0.11,0.24,9.5,0.1875,-0.0625,0.125,-0.009,0.9999,0.0125,0.0054
56:00.1,-0.11,0.25,9.46,0,0,0,-0.009,0.9999,0.0125,0.0054
56:00.2,-0.09,0.23,9.51,-0.125,0.0625,0,-0.009,0.9999,0.0125,0.0054
56:00.2,-0.11,0.23,9.5,0,0,0,-0.009,0.9999,0.0125,0.0054
56:00.2,-0.11,0.25,9.51,0.125,0,0,-0.009,0.9999,0.0125,0.0054
56:00.2,-0.1,0.24,9.49,0.125,0.125,0.0625,-0.009,0.9999,0.0125,0.0054
56:00.2,-0.11,0.25,9.5,0,0,-0.0625,-0.009,0.9999,0.0125,0.0054
56:00.2,-0.13,0.22,9.53,-0.0625,-0.0625,0.0625,-0.009,0.9999,0.0125,0.0054
56:00.2,-0.12,0.23,9.53,0.0625,0,0.0625,-0.009,0.9999,0.0125,0.0054
56:00.2,-0.11,0.24,9.49,0.0625,0,0.125,-0.009,0.9999,0.0125,0.0054
56:00.2,-0.11,0.22,9.47,0.0625,-0.0625,0.0625,-0.009,0.9999,0.0125,0.0054
56:00.2,-0.1,0.22,9.49,0.125,0,-0.0625,-0.009,0.9999,0.0125,0.0054
56:00.2,-0.11,0.25,9.51,-0.0625,0.0625,0,-0.009,0.9999,0.0125,0.0054
56:00.2,-0.11,0.25,9.52,0,-0.0625,0.0625,-0.009,0.9999,0.0125,0.0054
56:00.2,-0.1,0.22,9.51,0.0625,0.125,0.0625,-0.009,0.9999,0.0125,0.0054
56:00.3,-0.13,0.23,9.5,0.0625,-0.0625,0,-0.009,0.9999,0.0125,0.0054
56:00.3,-0.11,0.21,9.46,0.125,0,-0.0625,-0.009,0.9999,0.0125,0.0054
56:00.3,-0.11,0.24,9.51,0,0,0,-0.009,0.9999,0.0125,0.0054
56:00.3,-0.11,0.25,9.5,0,-0.125,-0.125,-0.009,0.9999,0.0125,0.0054
56:00.3,-0.1,0.23,9.52,0.125,0,0,-0.009,0.9999,0.0125,0.0054
56:00.3,-0.09,0.23,9.54,0.125,0.125,-0.0625,-0.009,0.9999,0.0125,0.0054
56:00.3,-0.13,0.22,9.49,-0.0625,0.0625,0,-0.009,0.9999,0.0125,0.0054
56:00.3,-0.12,0.24,9.51,-0.0625,0.0625,0,-0.009,0.9999,0.0125,0.0054
56:00.3,-0.11,0.23,9.47,0.0625,0,0.125,-0.009,0.9999,0.0125,0.0054
56:00.3,-0.1,0.25,9.51,0,-0.0625,-0.125,-0.009,0.9999,0.0125,0.0054
56:00.4,-0.11,0.23,9.53,0,0.0625,0.0625,-0.009,0.9999,0.0125,0.0054
56:00.4,-0.09,0.24,9.5,0,0.0625,0,-0.009,0.9999,0.0125,0.0054
56:00.4,-0.1,0.24,9.49,0.125,0.0625,0.0625,-0.009,0.9999,0.0125,0.0054
56:00.4,-0.12,0.25,9.47,-0.0625,-0.0625,-0.0625,-0.009,0.9999,0.0125,0.0054
56:00.4,-0.09,0.25,9.49,-0.0625,0.1875,-0.125,-0.009,0.9999,0.0125,0.0054
56:00.4,-0.11,0.24,9.51,0,0,-0.125,-0.009,0.9999,0.0125,0.0054
56:00.4,-0.11,0.22,9.51,0,0.125,-0.125,-0.009,0.9999,0.0125,0.0054
56:00.5,-0.11,0.23,9.5,0,0.125,0.0625,-0.009,0.9999,0.0125,0.0054
56:00.5,-0.11,0.23,9.5,0.1875,-0.0625,0.1875,-0.009,0.9999,0.0125,0.0054
56:00.5,-0.11,0.24,9.5,0,0.125,0.0625,-0.009,0.9999,0.0125,0.0054
56:00.5,-0.11,0.22,9.49,-0.0625,-0.125,0,-0.009,0.9999,0.0125,0.0054
56:00.5,-0.1,0.23,9.49,0.125,0.125,0,-0.009,0.9999,0.0125,0.0054
56:00.5,-0.11,0.24,9.47,-0.0625,-0.125,0.125,-0.009,0.9999,0.0125,0.0054
56:00.5,-0.11,0.23,9.5,-0.0625,0,0,-0.009,0.9999,0.0125,0.0054
56:00.5,-0.11,0.23,9.51,-0.25,-0.125,0,-0.009,0.9999,0.0125,0.0054
56:00.5,-0.1,0.24,9.48,0,-0.0625,-0.0625,-0.009,0.9999,0.0125,0.0054
56:00.5,-0.1,0.23,9.52,0.0625,-0.0625,0.125,-0.009,0.9999,0.0125,0.0054
56:00.5,-0.11,0.25,9.5,0,0,0.0625,-0.009,0.9999,0.0125,0.0054
56:00.5,-0.12,0.22,9.48,0,0.0625,-0.0625,-0.009,0.9999,0.0125,0.0054
56:00.5,-0.1,0.24,9.5,0,-0.0625,0,-0.009,0.9999,0.0125,0.0054
56:00.6,-0.1,0.23,9.49,-0.1875,-0.0625,0.0625,-0.009,0.9999,0.0125,0.0054
56:00.6,-0.11,0.23,9.47,-0.0625,0,0.0625,-0.009,0.9999,0.0125,0.0054
56:00.6,-0.12,0.22,9.51,0,0,0.0625,-0.009,0.9999,0.0125,0.0054
56:00.6,-0.11,0.22,9.5,0,-0.0625,0.0625,-0.009,0.9999,0.0125,0.0054
56:00.6,-0.12,0.23,9.48,-0.0625,0,0.1875,-0.009,0.9999,0.0125,0.0054
56:00.6,-0.09,0.21,9.51,-0.0625,0,0.125,-0.009,0.9999,0.0125,0.0054
56:00.6,-0.09,0.23,9.47,0.0625,0,-0.1875,-0.009,0.9999,0.0125,0.0054
56:00.6,-0.1,0.23,9.47,0,0.1875,0,-0.009,0.9999,0.0125,0.0054
56:00.6,-0.1,0.24,9.51,0.125,0.0625,0,-0.009,0.9999,0.0125,0.0054
56:00.6,-0.1,0.23,9.51,0.0625,0.0625,0.125,-0.009,0.9999,0.0125,0.0054
56:00.7,-0.11,0.24,9.49,0.0625,0.0625,0.0625,-0.009,0.9999,0.0125,0.0054
56:00.7,-0.1,0.24,9.51,0.0625,0.125,0.1875,-0.009,0.9999,0.0125,0.0054
56:00.7,-0.12,0.23,9.5,0,-0.125,0,-0.009,0.9999,0.0125,0.0054
56:00.7,-0.1,0.25,9.49,-0.125,-0.1875,-0.125,-0.009,0.9999,0.0125,0.0054
56:00.7,-0.11,0.24,9.5,0,0.125,-0.125,-0.009,0.9999,0.0125,0.0054
56:00.7,-0.11,0.22,9.51,0,0.125,0,-0.009,0.9999,0.0125,0.0054
56:00.7,-0.1,0.22,9.5,-0.0625,0,0.125,-0.009,0.9999,0.0125,0.0054
56:00.8,-0.11,0.2,9.49,-0.1875,0,0.0625,-0.009,0.9999,0.0125,0.0054
56:00.8,-0.1,0.24,9.49,-0.125,0.0625,-0.0625,-0.009,0.9999,0.0125,0.0054
56:00.8,-0.11,0.24,9.49,0.125,0.0625,-0.0625,-0.009,0.9999,0.0125,0.0054
56:00.8,-0.11,0.23,9.51,-0.0625,-0.125,0.0625,-0.009,0.9999,0.0125,0.0054
56:00.8,-0.11,0.22,9.52,0.0625,0.125,0.0625,-0.009,0.9999,0.0125,0.0054
56:00.8,-0.11,0.26,9.47,-0.0625,0.0625,0,-0.009,0.9999,0.0125,0.0054
56:00.8,-0.11,0.23,9.51,-0.0625,0,-0.125,-0.009,0.9999,0.0125,0.0054
56:00.8,-0.09,0.24,9.52,-0.0625,0.0625,0.0625,-0.009,0.9999,0.0125,0.0054
56:00.8,-0.11,0.25,9.49,0.125,0.125,0.125,-0.009,0.9999,0.0125,0.0054
56:00.8,-0.09,0.23,9.5,0,0,0.125,-0.009,0.9999,0.0125,0.0054
56:00.8,-0.11,0.24,9.5,-0.0625,0.0625,-0.0625,-0.009,0.9999,0.0125,0.0054
56:00.8,-0.11,0.23,9.5,-0.125,0.125,0,-0.009,0.9999,0.0125,0.0054
56:00.9,-0.11,0.23,9.5,-0.0625,-0.125,0,-0.009,0.9999,0.0125,0.0054
56:00.9,-0.1,0.21,9.51,-0.0625,0,0,-0.009,0.9999,0.0125,0.0054
56:00.9,-0.12,0.23,9.48,0.125,0,-0.0625,-0.009,0.9999,0.0125,0.0054
56:00.9,-0.11,0.25,9.47,-0.0625,0,0,-0.009,0.9999,0.0125,0.0054
56:00.9,-0.11,0.24,9.5,0,0.0625,0.125,-0.009,0.9999,0.0125,0.0054
56:00.9,-0.11,0.24,9.5,-0.1875,0.0625,0,-0.009,0.9999,0.0125,0.0054
56:00.9,-0.12,0.24,9.5,-0.0625,0,0.125,-0.009,0.9999,0.0125,0.0054
56:00.9,-0.11,0.23,9.52,-0.0625,-0.25,0.0625,-0.009,0.9999,0.0125,0.0054
56:00.9,-0.11,0.24,9.5,-0.0625,-0.0625,0,-0.009,0.9999,0.0125,0.0054
56:00.9,-0.09,0.22,9.51,0,-0.0625,0.125,-0.009,0.9999,0.0125,0.0054
56:00.9,-0.09,0.22,9.51,-0.1875,-0.125,0.0625,-0.009,0.9999,0.0125,0.0054
56:01.0,-0.07,0.22,9.49,0.0625,-0.0625,0.0625,-0.009,0.9999,0.0125,0.0054
56:01.0,-0.09,0.25,9.47,0.125,-0.1875,0,-0.009,0.9999,0.0125,0.0054
56:01.0,-0.09,0.25,9.47,-0.125,-0.125,0.0625,-0.009,0.9999,0.0125,0.0054
56:01.0,-0.12,0.23,9.5,-0.125,0.0625,0.0625,-0.009,0.9999,0.0125,0.0054
56:01.0,-0.09,0.22,9.51,-0.125,-0.125,-0.125,-0.009,0.9999,0.0125,0.0054
56:01.0,-0.12,0.25,9.49,-0.0625,0,0.125,-0.009,0.9999,0.0125,0.0054
56:01.1,-0.12,0.24,9.49,-0.125,0.0625,-0.0625,-0.009,0.9999,0.0125,0.0054
56:01.1,-0.11,0.25,9.48,-0.125,0.0625,0,-0.009,0.9999,0.0125,0.0054
56:01.1,-0.11,0.26,9.49,0,-0.0625,0,-0.009,0.9999,0.0125,0.0054
56:01.1,-0.1,0.23,9.48,0,-0.125,-0.0625,-0.009,0.9999,0.0125,0.0054
56:01.1,-0.11,0.23,9.49,0,0.125,-0.0625,-0.009,0.9999,0.0125,0.0054
56:01.1,-0.11,0.25,9.46,-0.0625,0,0.0625,-0.009,0.9999,0.0125,0.0054
56:01.1,-0.09,0.23,9.5,0,0.0625,0,-0.009,0.9999,0.0125,0.0054
56:01.1,-0.08,0.23,9.5,0,0.0625,0,-0.009,0.9999,0.0125,0.0054
56:01.1,-0.1,0.24,9.5,0.0625,-0.125,0.0625,-0.009,0.9999,0.0125,0.0054
56:01.1,-0.11,0.22,9.49,-0.0625,0,-0.0625,-0.009,0.9999,0.0125,0.0054
56:01.1,-0.1,0.25,9.48,0.0625,0.0625,0,-0.009,0.9999,0.0125,0.0054
56:01.1,-0.1,0.22,9.51,-0.125,0,0,-0.009,0.9999,0.0125,0.0054
56:01.2,-0.08,0.26,9.52,-0.125,-0.125,0.0625,-0.009,0.9999,0.0125,0.0054
56:01.2,-0.11,0.25,9.5,-0.125,-0.125,0.125,-0.009,0.9999,0.0125,0.0054
56:01.2,-0.11,0.24,9.46,-0.0625,-0.0625,0.125,-0.009,0.9999,0.0125,0.0054
56:01.2,-0.11,0.22,9.5,-0.0625,-0.125,0.0625,-0.009,0.9999,0.0125,0.0054
56:01.2,-0.11,0.22,9.49,-0.125,-0.125,0,-0.009,0.9999,0.0125,0.0054
56:01.2,-0.09,0.22,9.5,0,-0.0625,-0.0625,-0.009,0.9999,0.0125,0.0054
56:01.2,-0.12,0.22,9.48,-0.0625,-0.125,0.0625,-0.009,0.9999,0.0125,0.0054
56:01.3,-0.11,0.23,9.53,0.125,0.0625,-0.125,-0.009,0.9999,0.0125,0.0054
56:01.3,-0.11,0.24,9.52,0.0625,-0.125,0.0625,-0.009,0.9999,0.0125,0.0054
56:01.3,-0.12,0.22,9.49,0,-0.0625,-0.0625,-0.009,0.9999,0.0125,0.0054
56:01.3,-0.11,0.23,9.5,-0.0625,-0.0625,0,-0.009,0.9999,0.0125,0.0054
56:01.3,-0.1,0.22,9.51,0,-0.1875,0,-0.009,0.9999,0.0125,0.0054
56:01.4,-0.09,0.22,9.49,-0.0625,0,0,-0.009,0.9999,0.0125,0.0054
56:01.4,-0.1,0.23,9.51,-0.0625,0.0625,0.0625,-0.009,0.9999,0.0125,0.0054
56:01.4,-0.12,0.24,9.49,-0.0625,0,0.125,-0.009,0.9999,0.0125,0.0054
56:01.4,-0.1,0.23,9.49,-0.125,0.125,-0.0625,-0.009,0.9999,0.0125,0.0054
56:01.4,-0.1,0.24,9.53,-0.125,-0.25,0.0625,-0.009,0.9999,0.0125,0.0054
56:01.4,-0.1,0.25,9.49,0,0,0,-0.009,0.9999,0.0125,0.0054
56:01.4,-0.11,0.23,9.5,0,-0.125,0.125,-0.009,0.9999,0.0125,0.0054
56:01.4,-0.1,0.23,9.53,-0.125,0.0625,-0.0625,-0.009,0.9999,0.0125,0.0054
56:01.5,-0.11,0.23,9.52,0,-0.0625,-0.125,-0.009,0.9999,0.0125,0.0054
56:01.5,-0.07,0.23,9.48,-0.125,-0.125,0,-0.009,0.9999,0.0125,0.0054
56:01.5,-0.09,0.22,9.51,-0.0625,0.0625,0.0625,-0.009,0.9999,0.0125,0.0054
56:01.5,-0.1,0.23,9.5,-0.125,0.1875,-0.0625,-0.009,0.9999,0.0125,0.0054
56:01.5,-0.11,0.24,9.48,-0.0625,-0.0625,-0.125,-0.009,0.9999,0.0125,0.0054
56:01.6,-0.11,0.23,9.51,0,0.0625,0,-0.009,0.9999,0.0125,0.0054
56:01.6,-0.09,0.23,9.53,-0.0625,0.125,0,-0.009,0.9999,0.0125,0.0054
56:01.6,-0.11,0.23,9.49,-0.0625,0.125,0.125,-0.009,0.9999,0.0125,0.0054
56:01.6,-0.11,0.23,9.5,-0.125,0.0625,0,-0.009,0.9999,0.0125,0.0054
56:01.6,-0.1,0.23,9.51,-0.0625,0,0,-0.009,0.9999,0.0125,0.0054
56:01.7,-0.1,0.23,9.48,0,0.0625,0.0625,-0.009,0.9999,0.0125,0.0054
56:01.7,-0.11,0.24,9.48,-0.0625,0,0.0625,-0.009,0.9999,0.0125,0.0054
56:01.7,-0.11,0.23,9.53,-0.0625,-0.0625,0.0625,-0.009,0.9999,0.0125,0.0054
56:01.7,-0.11,0.22,9.49,-0.0625,-0.0625,0.0625,-0.009,0.9999,0.0125,0.0054
56:01.7,-0.11,0.23,9.5,0,0,0,-0.009,0.9999,0.0125,0.0054
56:01.7,-0.1,0.23,9.52,0.0625,0.125,-0.125,-0.009,0.9999,0.0125,0.0054
56:01.7,-0.11,0.22,9.51,0.0625,0.0625,0.0625,-0.009,0.9999,0.0125,0.0054
56:01.7,-0.11,0.22,9.47,-0.125,-0.0625,0.0625,-0.009,0.9999,0.0125,0.0054
56:01.7,-0.11,0.23,9.52,-0.0625,-0.125,0.0625,-0.009,0.9999,0.0125,0.0054
56:01.8,-0.1,0.24,9.53,-0.0625,0.0625,0.0625,-0.009,0.9999,0.0125,0.0054
56:01.8,-0.1,0.23,9.5,-0.0625,0.0625,-0.0625,-0.009,0.9999,0.0125,0.0054
56:01.8,-0.09,0.23,9.49,-0.0625,0.0625,0.0625,-0.009,0.9999,0.0125,0.0054
56:01.8,-0.1,0.25,9.5,0,0,0.125,-0.009,0.9999,0.0125,0.0054
56:01.8,-0.12,0.23,9.51,-0.0625,0.0625,0,-0.009,0.9999,0.0125,0.0054
56:01.8,-0.1,0.24,9.5,-0.0625,-0.0625,-0.0625,-0.009,0.9999,0.0125,0.0054
56:01.8,-0.06,0.24,9.53,-0.0625,-0.0625,-0.0625,-0.009,0.9999,0.0125,0.0054
56:01.8,-0.11,0.24,9.48,-0.0625,-0.0625,0.0625,-0.009,0.9999,0.0125,0.0054
56:01.8,-0.1,0.24,9.48,-0.0625,0,0,-0.009,0.9999,0.0125,0.0054
56:01.8,-0.09,0.21,9.49,0.0625,0.125,0.0625,-0.009,0.9999,0.0125,0.0054
56:01.9,-0.1,0.24,9.5,0.125,0,0.125,-0.009,0.9999,0.0125,0.0054
56:01.9,-0.1,0.22,9.52,0.0625,0.1875,0,-0.009,0.9999,0.0125,0.0054
56:01.9,-0.1,0.24,9.49,-0.0625,0.0625,0.125,-0.009,0.9999,0.0125,0.0054
56:01.9,-0.12,0.23,9.48,-0.1875,-0.1875,0.125,-0.009,0.9999,0.0125,0.0054
56:01.9,-0.1,0.24,9.5,-0.125,0.0625,0.0625,-0.009,0.9999,0.0125,0.0054
56:01.9,-0.1,0.25,9.51,-0.1875,0.125,0.125,-0.009,0.9999,0.0125,0.0054
56:01.9,-0.09,0.24,9.49,0.125,-0.125,-0.0625,-0.009,0.9999,0.0125,0.0054
56:01.9,-0.11,0.22,9.5,-0.125,-0.125,0.0625,-0.009,0.9999,0.0125,0.0054
56:02.0,-0.11,0.24,9.51,-0.0625,0.125,0,-0.009,0.9999,0.0125,0.0054
56:02.0,-0.09,0.22,9.52,0,0,0,-0.009,0.9999,0.0125,0.0054
56:02.0,-0.11,0.22,9.52,-0.0625,-0.0625,0,-0.009,0.9999,0.0125,0.0054
56:02.0,-0.12,0.24,9.5,0,0.125,-0.0625,-0.009,0.9999,0.0125,0.0054
56:02.0,-0.11,0.26,9.5,0.0625,-0.0625,0.125,-0.009,0.9999,0.0125,0.0054
56:02.0,-0.12,0.23,9.5,-0.0625,0,-0.0625,-0.009,0.9999,0.0125,0.0054
56:02.0,-0.09,0.24,9.5,-0.125,0.125,0.0625,-0.009,0.9999,0.0125,0.0054
56:02.0,-0.12,0.23,9.5,-0.0625,0.0625,-0.125,-0.009,0.9999,0.0125,0.0054
56:02.0,-0.1,0.22,9.52,0,0,0.125,-0.009,0.9999,0.0125,0.0054
56:02.0,-0.12,0.22,9.48,-0.0625,-0.0625,0,-0.009,0.9999,0.0125,0.0054
56:02.0,-0.09,0.23,9.48,-0.0625,0.125,-0.25,-0.009,0.9999,0.0125,0.0054
56:02.0,-0.1,0.23,9.5,-0.125,0.0625,0.125,-0.009,0.9999,0.0125,0.0054
56:02.1,-0.11,0.24,9.51,0.0625,0,0.0625,-0.009,0.9999,0.0125,0.0054
56:02.1,-0.11,0.25,9.48,0,0.0625,0.0625,-0.009,0.9999,0.0125,0.0054
56:02.1,-0.1,0.23,9.48,0.0625,0,-0.0625,-0.009,0.9999,0.0125,0.0054
56:02.1,-0.1,0.23,9.49,0,-0.0625,0,-0.009,0.9999,0.0125,0.0054
56:02.1,-0.09,0.23,9.51,0.0625,0,0,-0.009,0.9999,0.0125,0.0054
56:02.1,-0.11,0.25,9.51,-0.0625,0.1875,-0.125,-0.009,0.9999,0.0125,0.0054
56:02.1,-0.1,0.25,9.5,-0.125,0,-0.0625,-0.009,0.9999,0.0125,0.0054
56:02.1,-0.1,0.24,9.49,0,-0.0625,0.1875,-0.009,0.9999,0.0125,0.0054
56:02.1,-0.11,0.22,9.48,0,-0.0625,0,-0.009,0.9999,0.0125,0.0054
56:02.1,-0.1,0.25,9.51,0,0,0,-0.009,0.9999,0.0125,0.0054
56:02.2,-0.1,0.23,9.49,-0.0625,0.1875,0,-0.009,0.9999,0.0125,0.0054
56:02.2,-0.13,0.22,9.51,-0.1875,0.1875,-0.0625,-0.009,0.9999,0.0125,0.0054
56:02.2,-0.11,0.23,9.51,0,-0.125,-0.0625,-0.009,0.9999,0.0125,0.0054
56:02.2,-0.09,0.24,9.5,-0.0625,0.0625,0.0625,-0.009,0.9999,0.0125,0.0054
56:02.2,-0.09,0.21,9.51,0,0.0625,0.0625,-0.009,0.9999,0.0125,0.0054
56:02.2,-0.12,0.24,9.46,0,0.125,0,-0.009,0.9999,0.0125,0.0054
56:02.2,-0.11,0.22,9.53,-0.0625,-0.0625,0,-0.009,0.9999,0.0125,0.0054
56:02.3,-0.1,0.23,9.51,-0.125,0.0625,0.0625,-0.009,0.9999,0.0125,0.0054
56:02.3,-0.11,0.24,9.49,0,0,0.0625,-0.009,0.9999,0.0125,0.0054
56:02.3,-0.11,0.23,9.5,0,0.125,0.0625,-0.009,0.9999,0.0125,0.0054
56:02.3,-0.1,0.22,9.5,-0.0625,-0.0625,0.0625,-0.009,0.9999,0.0125,0.0054
56:02.3,-0.11,0.22,9.51,-0.125,0,-0.0625,-0.009,0.9999,0.0125,0.0054
56:02.3,-0.11,0.25,9.49,0,-0.0625,0,-0.009,0.9999,0.0125,0.0054
56:02.3,-0.1,0.24,9.49,0,-0.0625,0,-0.009,0.9999,0.0125,0.0054
56:02.3,-0.09,0.24,9.49,0.0625,0,0,-0.009,0.9999,0.0125,0.0054
56:02.3,-0.1,0.23,9.5,0,0,0.0625,-0.009,0.9999,0.0125,0.0054
56:02.3,-0.1,0.22,9.49,0,-0.0625,0.1875,-0.009,0.9999,0.0125,0.0054
56:02.3,-0.11,0.24,9.47,-0.125,-0.0625,0,-0.009,0.9999,0.0125,0.0054
56:02.3,-0.12,0.24,9.5,0,-0.125,0.125,-0.009,0.9999,0.0125,0.0054
56:02.3,-0.11,0.25,9.51,-0.0625,0.125,0.125,-0.009,0.9999,0.0125,0.0054
56:02.4,-0.1,0.23,9.51,-0.125,0,0.0625,-0.009,0.9999,0.0125,0.0054
56:02.4,-0.08,0.23,9.5,0,0,-0.125,-0.009,0.9999,0.0125,0.0054
56:02.4,-0.11,0.22,9.49,0.125,-0.125,0,-0.009,0.9999,0.0125,0.0054
56:02.4,-0.1,0.23,9.5,-0.125,0.125,-0.0625,-0.009,0.9999,0.0125,0.0054
56:02.4,-0.1,0.24,9.49,-0.0625,0,-0.0625,-0.009,0.9999,0.0125,0.0054
56:02.4,-0.08,0.24,9.51,0,0.125,0.0625,-0.009,0.9999,0.0125,0.0054
56:02.4,-0.1,0.24,9.55,-0.125,0.125,-0.125,-0.009,0.9999,0.0125,0.0054
56:02.4,-0.11,0.23,9.48,0.125,-0.0625,0,-0.009,0.9999,0.0125,0.0054
56:02.4,-0.12,0.23,9.5,0,0,0,-0.009,0.9999,0.0125,0.0054
56:02.5,-0.1,0.24,9.5,0.125,0,0,-0.009,0.9999,0.0125,0.0054
56:02.5,-0.11,0.22,9.48,0,0.125,-0.125,-0.009,0.9999,0.0125,0.0054
56:02.5,-0.11,0.22,9.5,0.0625,0,-0.0625,-0.009,0.9999,0.0125,0.0054
56:02.5,-0.1,0.23,9.5,0,0,0.0625,-0.009,0.9999,0.0125,0.0054
56:02.5,-0.11,0.22,9.49,0.0625,-0.0625,-0.0625,-0.009,0.9999,0.0125,0.0054
56:02.5,-0.1,0.24,9.5,0,-0.0625,-0.0625,-0.009,0.9999,0.0125,0.0054
56:02.5,-0.1,0.24,9.5,0.1875,-0.125,-0.0625,-0.009,0.9999,0.0125,0.0054
56:02.5,-0.12,0.22,9.5,0.125,0.125,0,-0.009,0.9999,0.0125,0.0054
56:02.6,-0.1,0.22,9.47,0,0.0625,-0.125,-0.009,0.9999,0.0125,0.0054
56:02.6,-0.09,0.22,9.51,0.125,0,0,-0.009,0.9999,0.0125,0.0054
56:02.6,-0.1,0.23,9.51,0.0625,0,-0.125,-0.009,0.9999,0.0125,0.0054
56:02.6,-0.1,0.23,9.49,0.0625,0.125,0,-0.009,0.9999,0.0125,0.0054
56:02.6,-0.1,0.2,9.49,0.0625,0.125,0,-0.009,0.9999,0.0125,0.0054
56:02.6,-0.12,0.25,9.48,0.0625,0.1875,-0.0625,-0.009,0.9999,0.0125,0.0054
56:02.6,-0.1,0.22,9.49,0.1875,0.1875,0.125,-0.009,0.9999,0.0125,0.0054
56:02.6,-0.11,0.22,9.5,0,0.0625,-0.0625,-0.009,0.9999,0.0125,0.0054
56:02.6,-0.11,0.23,9.51,-0.0625,0.0625,-0.0625,-0.009,0.9999,0.0125,0.0054
56:02.6,-0.11,0.24,9.48,0,0,0.125,-0.009,0.9999,0.0125,0.0054
56:02.6,-0.11,0.25,9.49,0.0625,0.125,-0.0625,-0.009,0.9999,0.0125,0.0054
56:02.6,-0.1,0.22,9.49,0.125,-0.0625,0,-0.009,0.9999,0.0125,0.0054
56:02.6,-0.12,0.24,9.48,-0.0625,-0.0625,-0.125,-0.009,0.9999,0.0125,0.0054
56:02.7,-0.11,0.24,9.5,0,0.0625,-0.125,-0.009,0.9999,0.0125,0.0054
56:02.7,-0.09,0.22,9.5,-0.0625,0.0625,-0.1875,-0.009,0.9999,0.0125,0.0054
56:02.7,-0.1,0.24,9.49,0,0.0625,0,-0.009,0.9999,0.0125,0.0054
56:02.7,-0.1,0.24,9.5,0,0.0625,-0.0625,-0.009,0.9999,0.0125,0.0054
56:02.7,-0.11,0.23,9.47,-0.0625,-0.0625,0,-0.009,0.9999,0.0125,0.0054
56:02.7,-0.11,0.23,9.5,0.125,0,-0.0625,-0.009,0.9999,0.0125,0.0054
56:02.7,-0.1,0.23,9.49,0.125,0,0.0625,-0.009,0.9999,0.0125,0.0054
56:02.7,-0.09,0.23,9.5,0.125,0.0625,0,-0.009,0.9999,0.0125,0.0054
56:02.8,-0.11,0.24,9.46,0.0625,0.0625,-0.0625,-0.009,0.9999,0.0125,0.0054
56:02.8,-0.08,0.23,9.48,0.0625,-0.125,-0.125,-0.009,0.9999,0.0125,0.0054
56:02.8,-0.11,0.22,9.49,0,0,-0.0625,-0.009,0.9999,0.0125,0.0054
56:02.8,-0.11,0.25,9.52,0.0625,-0.0625,0,-0.009,0.9999,0.0125,0.0054
56:02.8,-0.09,0.24,9.49,-0.0625,0.125,-0.125,-0.009,0.9999,0.0125,0.0054
56:02.8,-0.1,0.25,9.5,0.0625,0.0625,-0.0625,-0.009,0.9999,0.0125,0.0054
56:02.8,-0.1,0.23,9.49,0,0,-0.0625,-0.009,0.9999,0.0125,0.0054
56:02.8,-0.09,0.25,9.51,0.0625,-0.125,-0.0625,-0.009,0.9999,0.0125,0.0054
56:02.8,-0.11,0.22,9.52,0.0625,-0.0625,0,-0.009,0.9999,0.0125,0.0054
56:02.9,-0.1,0.22,9.49,-0.0625,-0.0625,-0.0625,-0.009,0.9999,0.0125,0.0054
56:02.9,-0.11,0.23,9.5,0,-0.125,0,-0.009,0.9999,0.0125,0.0054
56:02.9,-0.11,0.22,9.52,0,-0.125,-0.0625,-0.009,0.9999,0.0125,0.0054
56:02.9,-0.08,0.23,9.5,0.0625,0,-0.0625,-0.009,0.9999,0.0125,0.0054
56:02.9,-0.1,0.24,9.51,0.0625,-0.0625,0,-0.009,0.9999,0.0125,0.0054
56:02.9,-0.08,0.23,9.49,0,0.125,-0.0625,-0.009,0.9999,0.0125,0.0054
56:02.9,-0.11,0.23,9.51,-0.0625,0,0,-0.009,0.9999,0.0125,0.0054
56:02.9,-0.11,0.23,9.47,0,0.125,0,-0.009,0.9999,0.0125,0.0054
56:02.9,-0.12,0.24,9.5,0,-0.125,-0.0625,-0.009,0.9999,0.0125,0.0054
56:02.9,-0.1,0.23,9.51,-0.0625,0,0.0625,-0.009,0.9999,0.0125,0.0054
56:02.9,-0.11,0.24,9.49,0,0,-0.0625,-0.009,0.9999,0.0125,0.0054
56:02.9,-0.11,0.22,9.53,0.125,0,0.0625,-0.009,0.9999,0.0125,0.0054
56:02.9,-0.11,0.24,9.5,0.0625,0.0625,0,-0.009,0.9999,0.0125,0.0054
56:03.0,-0.1,0.24,9.5,0,-0.0625,0,-0.009,0.9999,0.0125,0.0054
56:03.0,-0.11,0.24,9.49,-0.0625,0.125,-0.125,-0.009,0.9999,0.0125,0.0054
56:03.0,-0.11,0.24,9.46,0.1875,0,0,-0.009,0.9999,0.0125,0.0054
56:03.0,-0.11,0.26,9.51,0.0625,0,0.125,-0.009,0.9999,0.0125,0.0054
56:03.0,-0.1,0.22,9.49,0,-0.125,0.0625,-0.009,0.9999,0.0125,0.0054
56:03.0,-0.09,0.25,9.5,0.125,-0.0625,0.0625,-0.009,0.9999,0.0125,0.0054
56:03.0,-0.09,0.23,9.49,0.0625,0,0,-0.009,0.9999,0.0125,0.0054
56:03.0,-0.1,0.24,9.48,0.0625,0,0,-0.009,0.9999,0.0125,0.0054
56:03.0,-0.09,0.25,9.49,0,-0.0625,0,-0.009,0.9999,0.0125,0.0054
56:03.0,-0.09,0.22,9.5,0.125,0,-0.125,-0.009,0.9999,0.0125,0.0054
56:03.1,-0.11,0.25,9.49,-0.0625,0.125,0,-0.009,0.9999,0.0125,0.0054
56:03.1,-0.11,0.24,9.5,0.125,0.0625,0,-0.009,0.9999,0.0125,0.0054
56:03.1,-0.11,0.25,9.49,0.0625,-0.0625,-0.0625,-0.009,0.9999,0.0125,0.0054
56:03.1,-0.11,0.23,9.48,0.0625,0.0625,-0.0625,-0.009,0.9999,0.0125,0.0054
56:03.1,-0.1,0.25,9.5,0.0625,-0.125,0.125,-0.009,0.9999,0.0125,0.0054
56:03.1,-0.11,0.24,9.51,0.0625,0,0.0625,-0.009,0.9999,0.0125,0.0054
56:03.1,-0.11,0.26,9.51,-0.125,0.25,0,-0.009,0.9999,0.0125,0.0054
56:03.2,-0.12,0.23,9.48,0.0625,0.0625,0.0625,-0.009,0.9999,0.0125,0.0054
56:03.2,-0.11,0.25,9.5,0.1875,0,0.0625,-0.009,0.9999,0.0125,0.0054
56:03.2,-0.09,0.23,9.48,0.0625,-0.125,0.0625,-0.009,0.9999,0.0125,0.0054
56:03.2,-0.12,0.25,9.5,0.0625,0,0.0625,-0.009,0.9999,0.0125,0.0054
56:03.2,-0.11,0.26,9.49,0.125,-0.125,-0.0625,-0.009,0.9999,0.0125,0.0054
56:03.2,-0.1,0.23,9.49,0.125,0,0.125,-0.009,0.9999,0.0125,0.0054
56:03.2,-0.1,0.24,9.51,0.0625,0,-0.0625,-0.009,0.9999,0.0125,0.0054
56:03.2,-0.09,0.25,9.51,0.0625,0.0625,0,-0.009,0.9999,0.0125,0.0054
56:03.2,-0.11,0.22,9.5,0,0,-0.0625,-0.009,0.9999,0.0125,0.0054
56:03.2,-0.1,0.23,9.52,-0.0625,0,0.0625,-0.009,0.9999,0.0125,0.0054
56:03.2,-0.11,0.23,9.51,0.0625,-0.0625,0.0625,-0.009,0.9999,0.0125,0.0054
56:03.2,-0.1,0.24,9.49,0,0,0.0625,-0.009,0.9999,0.0125,0.0054
56:03.3,-0.12,0.24,9.52,0.1875,0,-0.0625,-0.009,0.9999,0.0125,0.0054
56:03.3,-0.11,0.24,9.5,0.125,0.125,0,-0.009,0.9999,0.0125,0.0054
56:03.3,-0.1,0.24,9.49,0,0.0625,0,-0.009,0.9999,0.0125,0.0054
56:03.3,-0.1,0.23,9.49,0,0.125,0.0625,-0.009,0.9999,0.0125,0.0054
56:03.3,-0.12,0.23,9.51,0.125,0,0.0625,-0.009,0.9999,0.0125,0.0054
56:03.3,-0.1,0.22,9.53,0.0625,0.0625,-0.0625,-0.009,0.9999,0.0125,0.0054
56:03.3,-0.1,0.26,9.48,0.0625,0.0625,-0.125,-0.009,0.9999,0.0125,0.0054
56:03.3,-0.12,0.25,9.5,0,0.0625,0,-0.009,0.9999,0.0125,0.0054
56:03.3,-0.11,0.24,9.49,0.0625,0.0625,0,-0.009,0.9999,0.0125,0.0054
56:03.3,-0.12,0.25,9.51,0,0,0.0625,-0.009,0.9999,0.0125,0.0054
56:03.3,-0.11,0.25,9.5,0.0625,0.0625,-0.0625,-0.009,0.9999,0.0125,0.0054
56:03.4,-0.11,0.25,9.5,-0.0625,0,0.125,-0.009,0.9999,0.0125,0.0054
56:03.4,-0.1,0.23,9.52,0.125,-0.0625,0,-0.009,0.9999,0.0125,0.0054
56:03.4,-0.11,0.23,9.49,-0.0625,0,0,-0.009,0.9999,0.0125,0.0054
56:03.4,-0.09,0.23,9.5,0,0,0,-0.009,0.9999,0.0125,0.0054
56:03.4,-0.09,0.25,9.5,-0.0625,0.0625,0.0625,-0.009,0.9999,0.0125,0.0054
56:03.4,-0.09,0.25,9.5,-0.0625,-0.0625,0.0625,-0.009,0.9999,0.0125,0.0054
56:03.4,-0.09,0.22,9.51,0,-0.1875,0,-0.009,0.9999,0.0125,0.0054
56:03.5,-0.09,0.22,9.47,-0.125,0.125,-0.0625,-0.009,0.9999,0.0125,0.0054
56:03.5,-0.09,0.22,9.47,0.0625,-0.125,0.0625,-0.009,0.9999,0.0125,0.0054
56:03.5,-0.11,0.25,9.49,-0.0625,0.0625,0.125,-0.009,0.9999,0.0125,0.0054
56:03.5,-0.13,0.23,9.53,0.0625,0.0625,0,-0.009,0.9999,0.0125,0.0054
56:03.5,-0.09,0.21,9.5,-0.0625,0.0625,0.0625,-0.009,0.9999,0.0125,0.0054
56:03.5,-0.11,0.23,9.49,0,0,0.0625,-0.009,0.9999,0.0125,0.0054
56:03.5,-0.12,0.22,9.49,0,-0.0625,-0.125,-0.009,0.9999,0.0125,0.0054
56:03.5,-0.1,0.22,9.49,0,-0.0625,0.0625,-0.009,0.9999,0.0125,0.0054
56:03.5,-0.13,0.24,9.51,-0.0625,-0.0625,0,-0.009,0.9999,0.0125,0.0054
56:03.5,-0.11,0.21,9.54,-0.0625,0,0.1875,-0.009,0.9999,0.0125,0.0054
56:03.5,-0.11,0.22,9.51,-0.1875,-0.0625,0.0625,-0.009,0.9999,0.0125,0.0054
56:03.5,-0.1,0.24,9.49,0.125,-0.125,0.125,-0.009,0.9999,0.0125,0.0054
56:03.6,-0.12,0.23,9.51,-0.0625,-0.125,0.0625,-0.009,0.9999,0.0125,0.0054
56:03.6,-0.12,0.23,9.5,-0.0625,-0.0625,0.0625,-0.009,0.9999,0.0125,0.0054
56:03.6,-0.09,0.25,9.52,0.0625,-0.125,0,-0.009,0.9999,0.0125,0.0054
56:03.6,-0.09,0.25,9.5,0,-0.125,-0.125,-0.009,0.9999,0.0125,0.0054
56:03.6,-0.12,0.22,9.48,0,0.125,0,-0.009,0.9999,0.0125,0.0054
56:03.6,-0.11,0.24,9.51,-0.125,-0.0625,0.0625,-0.009,0.9999,0.0125,0.0054
56:03.6,-0.11,0.22,9.52,-0.0625,0,0.0625,-0.009,0.9999,0.0125,0.0054
56:03.6,-0.11,0.22,9.5,-0.125,0.0625,0,-0.009,0.9999,0.0125,0.0054
56:03.7,-0.09,0.23,9.48,0.0625,0.0625,0.125,-0.009,0.9999,0.0125,0.0054
56:03.7,-0.11,0.25,9.47,0.0625,-0.125,0.0625,-0.009,0.9999,0.0125,0.0054
56:03.7,-0.11,0.23,9.5,0.125,-0.125,0.125,-0.009,0.9999,0.0125,0.0054
56:03.7,-0.11,0.25,9.47,0,0,0.0625,-0.009,0.9999,0.0125,0.0054
56:03.7,-0.11,0.24,9.54,0,0.0625,-0.0625,-0.009,0.9999,0.0125,0.0054
56:03.7,-0.11,0.25,9.51,-0.0625,-0.0625,0.0625,-0.009,0.9999,0.0125,0.0054
56:03.8,-0.11,0.25,9.48,-0.0625,0.125,0,-0.009,0.9999,0.0125,0.0054
56:03.8,-0.1,0.23,9.53,0,0,-0.0625,-0.009,0.9999,0.0125,0.0054
56:03.8,-0.11,0.23,9.51,0.1875,-0.25,0.0625,-0.009,0.9999,0.0125,0.0054
56:03.8,-0.11,0.24,9.47,-0.0625,0.0625,-0.125,-0.009,0.9999,0.0125,0.0054
56:03.8,-0.1,0.24,9.5,-0.125,-0.0625,0.125,-0.009,0.9999,0.0125,0.0054
56:03.8,-0.1,0.23,9.5,0,0.0625,0,-0.009,0.9999,0.0125,0.0054
56:03.8,-0.11,0.23,9.47,0.0625,0,0.0625,-0.009,0.9999,0.0125,0.0054
56:03.9,-0.09,0.24,9.52,-0.125,-0.0625,0,-0.009,0.9999,0.0125,0.0054
56:03.9,-0.1,0.23,9.51,-0.0625,0,0,-0.009,0.9999,0.0125,0.0054
56:03.9,-0.12,0.22,9.5,0,0.0625,-0.0625,-0.009,0.9999,0.0125,0.0054
56:03.9,-0.11,0.24,9.51,0,0,0,-0.009,0.9999,0.0125,0.0054
56:03.9,-0.1,0.25,9.5,0.0625,0.125,0.0625,-0.009,0.9999,0.0125,0.0054
56:03.9,-0.11,0.23,9.47,-0.125,-0.0625,-0.125,-0.009,0.9999,0.0125,0.0054
56:04.0,-0.11,0.23,9.48,-0.125,0.125,0,-0.009,0.9999,0.0125,0.0054
56:04.0,-0.11,0.23,9.5,0.0625,0,0,-0.009,0.9999,0.0125,0.0054
56:04.0,-0.1,0.24,9.51,0,0.0625,0.1875,-0.009,0.9999,0.0125,0.0054
56:04.0,-0.09,0.25,9.49,0,0,0,-0.009,0.9999,0.0125,0.0054
56:04.0,-0.09,0.24,9.5,-0.125,0.0625,-0.0625,-0.009,0.9999,0.0125,0.0054
56:04.1,-0.11,0.21,9.49,-0.125,0,-0.0625,-0.009,0.9999,0.0125,0.0054
56:04.1,-0.1,0.24,9.49,0,-0.1875,0.125,-0.009,0.9999,0.0125,0.0054
56:04.1,-0.11,0.23,9.5,0.125,0,0.0625,-0.009,0.9999,0.0125,0.0054
56:04.1,-0.08,0.22,9.5,-0.125,0.0625,-0.125,-0.009,0.9999,0.0125,0.0054
56:04.1,-0.1,0.24,9.5,0.0625,0.0625,0.0625,-0.009,0.9999,0.0125,0.0054
56:04.1,-0.11,0.23,9.52,-0.0625,-0.0625,0,-0.009,0.9999,0.0125,0.0054
56:04.1,-0.1,0.24,9.48,-0.125,-0.0625,-0.1875,-0.009,0.9999,0.0125,0.0054
56:04.2,-0.1,0.23,9.51,0.0625,0,-0.1875,-0.009,0.9999,0.0125,0.0054
56:04.2,-0.1,0.22,9.5,-0.0625,0.0625,-0.0625,-0.009,0.9999,0.0125,0.0054
56:04.2,-0.09,0.24,9.49,0,-0.0625,0,-0.009,0.9999,0.0125,0.0054
56:04.2,-0.1,0.22,9.5,0,0.0625,0,-0.009,0.9999,0.0125,0.0054
56:04.2,-0.09,0.26,9.5,0,0.125,-0.0625,-0.009,0.9999,0.0125,0.0054
56:04.2,-0.09,0.24,9.51,0.0625,0.0625,-0.0625,-0.009,0.9999,0.0125,0.0054
56:04.2,-0.11,0.24,9.5,-0.125,-0.0625,-0.0625,-0.009,0.9999,0.0125,0.0054
56:04.2,-0.1,0.23,9.5,0,0.1875,-0.0625,-0.009,0.9999,0.0125,0.0054
56:04.3,-0.11,0.23,9.51,0.125,0,0.0625,-0.009,0.9999,0.0125,0.0054
56:04.3,-0.1,0.24,9.53,-0.0625,-0.0625,-0.0625,-0.009,0.9999,0.0125,0.0054
56:04.3,-0.11,0.22,9.52,-0.0625,-0.125,0,-0.009,0.9999,0.0125,0.0054
56:04.3,-0.11,0.23,9.48,-0.125,0.0625,-0.125,-0.009,0.9999,0.0125,0.0054
56:04.3,-0.11,0.24,9.5,-0.0625,-0.0625,0.125,-0.009,0.9999,0.0125,0.0054
56:04.3,-0.11,0.24,9.51,-0.125,0,0,-0.009,0.9999,0.0125,0.0054
56:04.3,-0.11,0.24,9.5,-0.0625,-0.125,-0.125,-0.009,0.9999,0.0125,0.0054
56:04.4,-0.11,0.23,9.49,0.0625,-0.0625,-0.125,-0.009,0.9999,0.0125,0.0054
56:04.4,-0.11,0.23,9.47,0.1875,0.1875,-0.0625,-0.009,0.9999,0.0125,0.0054
56:04.4,-0.11,0.23,9.49,0,-0.0625,0.0625,-0.009,0.9999,0.0125,0.0054
56:04.4,-0.12,0.26,9.51,0,-0.0625,0,-0.009,0.9999,0.0125,0.0054
56:04.4,-0.11,0.24,9.51,0.125,-0.125,0.0625,-0.009,0.9999,0.0125,0.0054
56:04.4,-0.1,0.23,9.51,0,0,0.125,-0.009,0.9999,0.0125,0.0054
56:04.4,-0.12,0.21,9.5,0.0625,-0.0625,0.125,-0.009,0.9999,0.0125,0.0054
56:04.4,-0.09,0.23,9.51,-0.0625,-0.125,0.1875,-0.009,0.9999,0.0125,0.0054
56:04.4,-0.1,0.24,9.5,0.0625,-0.125,0,-0.009,0.9999,0.0125,0.0054
56:04.4,-0.1,0.23,9.51,0,0,0.0625,-0.009,0.9999,0.0125,0.0054
56:04.4,-0.11,0.22,9.48,-0.125,0,0,-0.009,0.9999,0.0125,0.0054
56:04.4,-0.1,0.24,9.48,0,0,0,-0.009,0.9999,0.0125,0.0054
56:04.5,-0.1,0.24,9.5,-0.1875,-0.0625,0.0625,-0.009,0.9999,0.0125,0.0054
56:04.5,-0.09,0.23,9.51,-0.125,0.1875,0.0625,-0.009,0.9999,0.0125,0.0054
56:04.5,-0.1,0.23,9.5,-0.25,-0.125,0.0625,-0.009,0.9999,0.0125,0.0054
56:04.5,-0.1,0.23,9.53,0.125,-0.1875,-0.0625,-0.009,0.9999,0.0125,0.0054
56:04.5,-0.09,0.23,9.48,-0.125,-0.0625,0,-0.009,0.9999,0.0125,0.0054
56:04.5,-0.09,0.24,9.51,0,-0.0625,0,-0.009,0.9999,0.0125,0.0054
56:04.5,-0.09,0.25,9.5,-0.125,0.0625,0.0625,-0.009,0.9999,0.0125,0.0054
56:04.5,-0.11,0.24,9.49,0,0.125,0.125,-0.009,0.9999,0.0125,0.0054
56:04.5,-0.11,0.25,9.5,-0.125,0.0625,0.125,-0.009,0.9999,0.0125,0.0054
56:04.5,-0.11,0.22,9.48,-0.125,0,-0.0625,-0.009,0.9999,0.0125,0.0054
56:04.5,-0.09,0.24,9.51,-0.125,0.0625,0,-0.009,0.9999,0.0125,0.0054
56:04.6,-0.1,0.24,9.51,0,0,-0.0625,-0.009,0.9999,0.0125,0.0054
56:04.6,-0.11,0.23,9.51,-0.125,-0.0625,0,-0.009,0.9999,0.0125,0.0054
56:04.6,-0.1,0.24,9.49,-0.0625,-0.0625,0.0625,-0.009,0.9999,0.0125,0.0054
56:04.6,-0.12,0.22,9.48,0,-0.0625,0.1875,-0.009,0.9999,0.0125,0.0054
56:04.6,-0.11,0.24,9.49,0,0,0.125,-0.009,0.9999,0.0125,0.0054
56:04.6,-0.11,0.22,9.51,-0.1875,0.125,0,-0.009,0.9999,0.0125,0.0054
56:04.6,-0.12,0.23,9.52,0.0625,0.0625,0.125,-0.009,0.9999,0.0125,0.0054
56:04.7,-0.09,0.24,9.48,0.0625,0.125,0,-0.009,0.9999,0.0125,0.0054
56:04.7,-0.11,0.23,9.49,-0.0625,0.0625,-0.0625,-0.009,0.9999,0.0125,0.0054
56:04.7,-0.11,0.25,9.5,-0.0625,0.0625,0,-0.009,0.9999,0.0125,0.0054
56:04.7,-0.09,0.23,9.5,0.0625,0,0.0625,-0.009,0.9999,0.0125,0.0054
56:04.7,-0.09,0.24,9.48,0,-0.0625,0.0625,-0.009,0.9999,0.0125,0.0054
56:04.7,-0.11,0.25,9.5,0,-0.1875,0,-0.009,0.9999,0.0125,0.0054
56:04.7,-0.1,0.23,9.48,0,-0.0625,0.0625,-0.009,0.9999,0.0125,0.0054
56:04.7,-0.1,0.23,9.48,-0.0625,0,-0.0625,-0.009,0.9999,0.0125,0.0054
56:04.7,-0.12,0.24,9.51,-0.0625,0,-0.0625,-0.009,0.9999,0.0125,0.0054
56:04.7,-0.09,0.23,9.5,0.125,0.0625,0.0625,-0.009,0.9999,0.0125,0.0054
56:04.7,-0.11,0.24,9.51,0.125,-0.1875,0.0625,-0.009,0.9999,0.0125,0.0054
56:04.7,-0.11,0.24,9.5,-0.0625,0,0,-0.009,0.9999,0.0125,0.0054
56:04.8,-0.08,0.24,9.5,-0.125,0.0625,0.0625,-0.009,0.9999,0.0125,0.0054
56:04.8,-0.1,0.23,9.5,-0.0625,0.125,-0.125,-0.009,0.9999,0.0125,0.0054
56:04.8,-0.11,0.22,9.52,0.0625,-0.0625,0.1875,-0.009,0.9999,0.0125,0.0054
56:04.8,-0.1,0.23,9.49,0,0,0,-0.009,0.9999,0.0125,0.0054
56:04.8,-0.1,0.22,9.5,0,-0.125,0.1875,-0.009,0.9999,0.0125,0.0054
56:04.8,-0.11,0.26,9.5,0.125,-0.0625,0.0625,-0.009,0.9999,0.0125,0.0054
56:04.8,-0.12,0.23,9.51,-0.0625,0.125,0.0625,-0.009,0.9999,0.0125,0.0054
56:04.8,-0.1,0.23,9.49,-0.0625,-0.0625,-0.0625,-0.009,0.9999,0.0125,0.0054
56:04.8,-0.1,0.23,9.47,-0.0625,-0.0625,-0.0625,-0.009,0.9999,0.0125,0.0054
56:04.8,-0.12,0.25,9.49,-0.0625,0.0625,0.0625,-0.009,0.9999,0.0125,0.0054
56:04.9,-0.1,0.22,9.5,-0.0625,-0.25,0.125,-0.009,0.9999,0.0125,0.0054
56:04.9,-0.1,0.25,9.5,-0.125,0.125,-0.125,-0.009,0.9999,0.0125,0.0054
56:04.9,-0.12,0.22,9.48,0,0.0625,0,-0.009,0.9999,0.0125,0.0054
56:04.9,-0.13,0.23,9.47,0,-0.0625,0,-0.009,0.9999,0.0125,0.0054
56:04.9,-0.09,0.25,9.51,-0.125,0,0.0625,-0.009,0.9999,0.0125,0.0054
56:04.9,-0.1,0.22,9.5,-0.0625,0.0625,-0.0625,-0.009,0.9999,0.0125,0.0054
56:04.9,-0.09,0.23,9.5,0.0625,0,0,-0.009,0.9999,0.0125,0.0054
56:04.9,-0.11,0.25,9.5,0.0625,0.125,-0.0625,-0.009,0.9999,0.0125,0.0054
56:04.9,-0.11,0.23,9.5,-0.0625,0.1875,-0.125,-0.009,0.9999,0.0125,0.0054
56:05.0,-0.1,0.22,9.45,-0.0625,-0.0625,0,-0.009,0.9999,0.0125,0.0054
56:05.0,-0.11,0.22,9.5,-0.125,0.0625,0.0625,-0.009,0.9999,0.0125,0.0054
56:05.0,-0.11,0.25,9.51,0.0625,0,0,-0.009,0.9999,0.0125,0.0054
56:05.0,-0.11,0.23,9.5,0,-0.0625,0,-0.009,0.9999,0.0125,0.0054
56:05.0,-0.11,0.22,9.49,-0.0625,0,0.125,-0.009,0.9999,0.0125,0.0054
56:05.0,-0.1,0.22,9.44,-0.0625,0.0625,0.0625,-0.009,0.9999,0.0125,0.0054
56:05.0,-0.1,0.25,9.5,0,0.0625,-0.0625,-0.009,0.9999,0.0125,0.0054
56:05.0,-0.09,0.23,9.5,0.125,0.125,0.0625,-0.009,0.9999,0.0125,0.0054
56:05.0,-0.11,0.24,9.5,0,0,-0.0625,-0.009,0.9999,0.0125,0.0054
56:05.0,-0.11,0.21,9.51,0.125,-0.0625,0.125,-0.009,0.9999,0.0125,0.0054
56:05.0,-0.11,0.22,9.49,0.125,0,0.0625,-0.009,0.9999,0.0125,0.0054
56:05.0,-0.11,0.24,9.49,0.1875,0,0.0625,-0.009,0.9999,0.0125,0.0054
56:05.1,-0.11,0.23,9.5,0,-0.0625,0.1875,-0.009,0.9999,0.0125,0.0054
56:05.1,-0.09,0.23,9.49,0.0625,0,0.0625,-0.009,0.9999,0.0125,0.0054
56:05.1,-0.11,0.24,9.48,0,0,0,-0.009,0.9999,0.0125,0.0054
56:05.1,-0.11,0.23,9.48,0.0625,0.0625,0.125,-0.009,0.9999,0.0125,0.0054
56:05.1,-0.1,0.23,9.5,0,0.0625,0,-0.009,0.9999,0.0125,0.0054
56:05.1,-0.1,0.24,9.51,-0.0625,0,0,-0.009,0.9999,0.0125,0.0054
56:05.1,-0.09,0.22,9.5,-0.125,0,0,-0.009,0.9999,0.0125,0.0054
56:05.1,-0.09,0.23,9.52,-0.0625,-0.0625,0.0625,-0.009,0.9999,0.0125,0.0054
56:05.1,-0.11,0.22,9.47,0.0625,-0.125,0.0625,-0.009,0.9999,0.0125,0.0054
56:05.2,-0.11,0.23,9.51,0,0,0,-0.009,0.9999,0.0125,0.0054
56:05.2,-0.09,0.25,9.52,0,-0.125,-0.0625,-0.009,0.9999,0.0125,0.0054
56:05.2,-0.1,0.22,9.49,0,0.0625,-0.0625,-0.009,0.9999,0.0125,0.0054
56:05.2,-0.11,0.22,9.5,-0.125,0.0625,0.0625,-0.009,0.9999,0.0125,0.0054
56:05.2,-0.1,0.23,9.49,-0.125,0.125,-0.125,-0.009,0.9999,0.0125,0.0054
56:05.2,-0.12,0.24,9.52,-0.125,-0.125,0.0625,-0.009,0.9999,0.0125,0.0054
56:05.2,-0.09,0.24,9.5,-0.0625,-0.0625,0.0625,-0.009,0.9999,0.0125,0.0054
56:05.2,-0.1,0.24,9.5,0,-0.125,0.0625,-0.009,0.9999,0.0125,0.0054
56:05.3,-0.1,0.23,9.5,0,-0.0625,0.125,-0.009,0.9999,0.0125,0.0054
56:05.3,-0.1,0.21,9.49,0.0625,0.125,0.125,-0.009,0.9999,0.0125,0.0054
56:05.3,-0.1,0.25,9.51,0.0625,-0.0625,0,-0.009,0.9999,0.0125,0.0054
56:05.3,-0.11,0.21,9.53,0,-0.125,0,-0.009,0.9999,0.0125,0.0054
56:05.3,-0.1,0.23,9.5,0,-0.0625,0.125,-0.009,0.9999,0.0125,0.0054
56:05.3,-0.11,0.24,9.49,-0.125,0.0625,0.125,-0.009,0.9999,0.0125,0.0054
56:05.3,-0.09,0.24,9.5,0.0625,0.0625,0,-0.009,0.9999,0.0125,0.0054
56:05.3,-0.11,0.22,9.51,-0.0625,0.0625,-0.125,-0.009,0.9999,0.0125,0.0054
56:05.3,-0.11,0.24,9.52,0,0,0.0625,-0.009,0.9999,0.0125,0.0054
56:05.3,-0.11,0.25,9.51,0.0625,0.125,-0.0625,-0.009,0.9999,0.0125,0.0054
56:05.3,-0.1,0.23,9.5,-0.125,-0.0625,0,-0.009,0.9999,0.0125,0.0054
56:05.3,-0.09,0.22,9.48,0,-0.0625,-0.125,-0.009,0.9999,0.0125,0.0054
56:05.4,-0.11,0.22,9.5,0,0,0,-0.009,0.9999,0.0125,0.0054
56:05.4,-0.1,0.24,9.52,-0.125,0.125,0,-0.009,0.9999,0.0125,0.0054
56:05.4,-0.11,0.25,9.52,-0.0625,0.1875,-0.0625,-0.009,0.9999,0.0125,0.0054
56:05.4,-0.11,0.24,9.52,0.0625,0.0625,-0.0625,-0.009,0.9999,0.0125,0.0054
56:05.4,-0.1,0.25,9.5,-0.0625,0.125,0.0625,-0.009,0.9999,0.0125,0.0054
56:05.4,-0.1,0.23,9.49,-0.125,0,0.25,-0.009,0.9999,0.0125,0.0054
56:05.4,-0.1,0.26,9.48,-0.0625,-0.0625,0,-0.009,0.9999,0.0125,0.0054
56:05.4,-0.13,0.24,9.5,-0.1875,-0.0625,0,-0.009,0.9999,0.0125,0.0054
56:05.4,-0.09,0.23,9.46,0.0625,0,0.1875,-0.009,0.9999,0.0125,0.0054
56:05.4,-0.11,0.23,9.5,-0.0625,-0.0625,0,-0.009,0.9999,0.0125,0.0054
56:05.5,-0.09,0.23,9.49,0,-0.125,0,-0.009,0.9999,0.0125,0.0054
56:05.5,-0.11,0.23,9.48,0.0625,-0.0625,0.0625,-0.009,0.9999,0.0125,0.0054
56:05.5,-0.11,0.22,9.52,0.0625,0,-0.0625,-0.009,0.9999,0.0125,0.0054
56:05.5,-0.11,0.23,9.49,0,0,0.0625,-0.009,0.9999,0.0125,0.0054
56:05.5,-0.1,0.26,9.5,0,0,0.125,-0.009,0.9999,0.0125,0.0054
56:05.5,-0.11,0.24,9.52,0,-0.0625,0,-0.009,0.9999,0.0125,0.0054
56:05.5,-0.1,0.25,9.53,0,-0.0625,0.0625,-0.009,0.9999,0.0125,0.0054
56:05.5,-0.1,0.24,9.5,-0.0625,0.1875,0,-0.009,0.9999,0.0125,0.0054
56:05.6,-0.11,0.24,9.48,-0.0625,0.0625,0.0625,-0.009,0.9999,0.0125,0.0054
56:05.6,-0.11,0.24,9.47,-0.0625,-0.125,-0.125,-0.009,0.9999,0.0125,0.0054
56:05.6,-0.1,0.22,9.48,-0.1875,0.0625,0.0625,-0.009,0.9999,0.0125,0.0054
56:05.6,-0.1,0.22,9.5,0,-0.125,0.0625,-0.009,0.9999,0.0125,0.0054
56:05.6,-0.08,0.22,9.52,0,-0.0625,0,-0.009,0.9999,0.0125,0.0054
56:05.6,-0.09,0.23,9.51,0,0.0625,0.0625,-0.009,0.9999,0.0125,0.0054
56:05.6,-0.1,0.24,9.47,0.0625,0,0,-0.009,0.9999,0.0125,0.0054
56:05.6,-0.11,0.24,9.48,0,0.0625,-0.0625,-0.009,0.9999,0.0125,0.0054
56:05.6,-0.09,0.26,9.51,0.0625,0,-0.125,-0.009,0.9999,0.0125,0.0054
56:05.6,-0.11,0.24,9.51,0,0,0,-0.009,0.9999,0.0125,0.0054
56:05.6,-0.1,0.24,9.51,0,-0.1875,0,-0.009,0.9999,0.0125,0.0054
56:05.6,-0.1,0.26,9.5,-0.0625,0,0.1875,-0.009,0.9999,0.0125,0.0054
56:05.7,-0.12,0.25,9.5,0.0625,0,0.125,-0.009,0.9999,0.0125,0.0054
56:05.7,-0.09,0.24,9.51,-0.125,0.0625,0.0625,-0.009,0.9999,0.0125,0.0054
56:05.7,-0.11,0.26,9.51,-0.0625,0,0.0625,-0.009,0.9999,0.0125,0.0054
56:05.7,-0.11,0.22,9.5,0,0.125,-0.125,-0.009,0.9999,0.0125,0.0054
56:05.7,-0.08,0.23,9.47,-0.0625,0.125,0.0625,-0.009,0.9999,0.0125,0.0054
56:05.7,-0.1,0.24,9.51,0.125,0,0.1875,-0.009,0.9999,0.0125,0.0054
56:05.7,-0.11,0.24,9.49,-0.0625,0,0.0625,-0.009,0.9999,0.0125,0.0054
56:05.7,-0.1,0.23,9.48,0,0.125,0.0625,-0.009,0.9999,0.0125,0.0054
56:05.7,-0.12,0.22,9.51,0,-0.1875,0.0625,-0.009,0.9999,0.0125,0.0054
56:05.7,-0.11,0.23,9.5,-0.0625,-0.0625,0.0625,-0.009,0.9999,0.0125,0.0054
56:05.7,-0.1,0.22,9.5,-0.125,0.0625,0,-0.009,0.9999,0.0125,0.0054
56:05.8,-0.12,0.22,9.5,-0.0625,-0.0625,0.0625,-0.009,0.9999,0.0125,0.0054
56:05.8,-0.12,0.22,9.5,-0.0625,0.125,-0.0625,-0.009,0.9999,0.0125,0.0054
56:05.8,-0.11,0.22,9.48,-0.1875,0.1875,-0.0625,-0.009,0.9999,0.0125,0.0054
56:05.8,-0.11,0.23,9.48,-0.1875,-0.0625,0.0625,-0.009,0.9999,0.0125,0.0054
56:05.8,-0.1,0.24,9.5,0.125,0,0.125,-0.009,0.9999,0.0125,0.0054
56:05.8,-0.12,0.23,9.51,0.125,-0.125,0.0625,-0.009,0.9999,0.0125,0.0054
56:05.8,-0.12,0.23,9.51,-0.0625,0.0625,0.25,-0.009,0.9999,0.0125,0.0054
56:05.9,-0.11,0.24,9.5,-0.0625,-0.0625,0,-0.009,0.9999,0.0125,0.0054
56:05.9,-0.1,0.25,9.47,0.0625,0.0625,0.0625,-0.009,0.9999,0.0125,0.0054
56:05.9,-0.1,0.24,9.52,0.125,0.0625,0,-0.009,0.9999,0.0125,0.0054
56:05.9,-0.1,0.24,9.52,0,-0.125,-0.125,-0.009,0.9999,0.0125,0.0054
56:05.9,-0.09,0.24,9.5,-0.0625,-0.0625,0.0625,-0.009,0.9999,0.0125,0.0054
56:05.9,-0.11,0.22,9.49,0,-0.125,-0.0625,-0.009,0.9999,0.0125,0.0054
56:05.9,-0.11,0.24,9.51,-0.0625,-0.0625,-0.125,-0.009,0.9999,0.0125,0.0054
56:05.9,-0.09,0.24,9.5,-0.0625,0.0625,0.125,-0.009,0.9999,0.0125,0.0054
56:05.9,-0.11,0.23,9.5,-0.125,0.125,-0.125,-0.009,0.9999,0.0125,0.0054
56:05.9,-0.11,0.24,9.5,0.125,-0.0625,-0.0625,-0.009,0.9999,0.0125,0.0054
56:05.9,-0.11,0.25,9.52,-0.1875,-0.0625,-0.0625,-0.009,0.9999,0.0125,0.0054
56:05.9,-0.1,0.22,9.52,0,-0.0625,0.0625,-0.009,0.9999,0.0125,0.0054
56:05.9,-0.09,0.24,9.49,0,0.0625,0.0625,-0.009,0.9999,0.0125,0.0054
56:06.0,-0.11,0.24,9.5,-0.1875,-0.125,0.0625,-0.009,0.9999,0.0125,0.0054
56:06.0,-0.1,0.23,9.49,-0.1875,-0.125,0.0625,-0.009,0.9999,0.0125,0.0054
56:06.0,-0.11,0.23,9.5,-0.125,-0.0625,0,-0.009,0.9999,0.0125,0.0054
56:06.0,-0.11,0.24,9.5,-0.0625,-0.0625,0,-0.009,0.9999,0.0125,0.0054
56:06.0,-0.11,0.23,9.51,-0.0625,-0.125,0.0625,-0.009,0.9999,0.0125,0.0054
56:06.0,-0.1,0.25,9.5,-0.0625,0,-0.0625,-0.009,0.9999,0.0125,0.0054
56:06.0,-0.12,0.23,9.51,-0.0625,-0.0625,0,-0.009,0.9999,0.0125,0.0054
56:06.0,-0.11,0.25,9.48,0.125,0.0625,-0.0625,-0.009,0.9999,0.0125,0.0054
56:06.0,-0.1,0.23,9.49,-0.0625,0.125,0.0625,-0.009,0.9999,0.0125,0.0054
56:06.1,-0.11,0.25,9.51,0.0625,-0.0625,-0.125,-0.009,0.9999,0.0125,0.0054
56:06.1,-0.1,0.25,9.49,0,0,-0.0625,-0.009,0.9999,0.0125,0.0054
56:06.1,-0.1,0.24,9.53,-0.0625,-0.125,-0.0625,-0.009,0.9999,0.0125,0.0054
56:06.1,-0.1,0.23,9.49,-0.125,0,0,-0.009,0.9999,0.0125,0.0054
56:06.1,-0.09,0.23,9.52,-0.125,0,0,-0.009,0.9999,0.0125,0.0054
56:06.2,-0.1,0.24,9.53,0,0.125,-0.0625,-0.009,0.9999,0.0125,0.0054
56:06.2,-0.11,0.23,9.49,0.0625,-0.125,-0.125,-0.009,0.9999,0.0125,0.0054
56:06.2,-0.1,0.22,9.51,0,0.0625,0,-0.009,0.9999,0.0125,0.0054
56:06.2,-0.09,0.25,9.5,-0.125,0.125,0,-0.009,0.9999,0.0125,0.0054
56:06.2,-0.1,0.24,9.5,-0.125,0.0625,0,-0.009,0.9999,0.0125,0.0054
56:06.2,-0.08,0.24,9.51,-0.125,-0.0625,0,-0.009,0.9999,0.0125,0.0054
56:06.2,-0.1,0.22,9.53,0.125,-0.125,0,-0.009,0.9999,0.0125,0.0054
56:06.3,-0.11,0.23,9.48,0,0.125,-0.0625,-0.009,0.9999,0.0125,0.0054
56:06.3,-0.11,0.24,9.51,0,0,0.0625,-0.009,0.9999,0.0125,0.0054
56:06.3,-0.11,0.23,9.5,0.0625,0.1875,0,-0.009,0.9999,0.0125,0.0054
56:06.3,-0.11,0.22,9.47,-0.0625,0,-0.125,-0.009,0.9999,0.0125,0.0054
56:06.3,-0.11,0.25,9.47,0.0625,-0.125,0,-0.009,0.9999,0.0125,0.0054
56:06.3,-0.11,0.22,9.5,-0.0625,0,0,-0.009,0.9999,0.0125,0.0054
56:06.4,-0.11,0.26,9.5,0,0,0.0625,-0.009,0.9999,0.0125,0.0054
56:06.4,-0.1,0.22,9.49,-0.3125,0.125,0,-0.009,0.9999,0.0125,0.0054
56:06.4,-0.11,0.22,9.52,-0.125,0.1875,-0.0625,-0.009,0.9999,0.0125,0.0054
56:06.4,-0.11,0.22,9.5,0,0.1875,0.0625,-0.009,0.9999,0.0125,0.0054
56:06.4,-0.1,0.25,9.49,0.125,0.0625,0.0625,-0.009,0.9999,0.0125,0.0054
56:06.5,-0.1,0.22,9.51,0,0,0,-0.009,0.9999,0.0125,0.0054
56:06.5,-0.11,0.23,9.5,0.0625,0.0625,0.125,-0.009,0.9999,0.0125,0.0054
56:06.5,-0.11,0.23,9.51,0,-0.125,-0.125,-0.009,0.9999,0.0125,0.0054
56:06.5,-0.1,0.25,9.51,0,0,0,-0.009,0.9999,0.0125,0.0054
56:06.5,-0.12,0.24,9.5,0,-0.125,0.1875,-0.009,0.9999,0.0125,0.0054
56:06.5,-0.11,0.24,9.5,0,0,-0.1875,-0.009,0.9999,0.0125,0.0054
56:06.5,-0.09,0.22,9.5,0.0625,-0.0625,0.0625,-0.009,0.9999,0.0125,0.0054
56:06.6,-0.13,0.24,9.46,0.125,0,0.0625,-0.009,0.9999,0.0125,0.0054
56:06.6,-0.11,0.23,9.49,0.125,-0.0625,0.0625,-0.009,0.9999,0.0125,0.0054
56:06.6,-0.1,0.23,9.5,0.0625,0.0625,0.0625,-0.009,0.9999,0.0125,0.0054
56:06.6,-0.09,0.22,9.51,0.1875,0.125,0,-0.009,0.9999,0.0125,0.0054
56:06.6,-0.1,0.23,9.5,0,0.125,0.0625,-0.009,0.9999,0.0125,0.0054
56:06.6,-0.09,0.23,9.5,0.0625,0,0.0625,-0.009,0.9999,0.0125,0.0054
56:06.6,-0.11,0.22,9.53,0,-0.1875,0.125,-0.009,0.9999,0.0125,0.0054
56:06.6,-0.09,0.23,9.49,0.1875,-0.0625,0.125,-0.009,0.9999,0.0125,0.0054
56:06.6,-0.11,0.25,9.51,0.0625,-0.125,-0.0625,-0.009,0.9999,0.0125,0.0054
56:06.6,-0.1,0.24,9.5,0,-0.0625,0.0625,-0.009,0.9999,0.0125,0.0054
56:06.6,-0.1,0.25,9.5,0,0,-0.0625,-0.009,0.9999,0.0125,0.0054
56:06.7,-0.1,0.22,9.52,0.1875,-0.0625,0.125,-0.009,0.9999,0.0125,0.0054
56:06.7,-0.1,0.23,9.5,0,-0.125,0.0625,-0.009,0.9999,0.0125,0.0054
56:06.7,-0.1,0.23,9.5,0.0625,0,-0.0625,-0.009,0.9999,0.0125,0.0054
56:06.7,-0.11,0.23,9.49,0.0625,0,-0.0625,-0.009,0.9999,0.0125,0.0054
56:06.7,-0.1,0.23,9.46,0,0,0.0625,-0.009,0.9999,0.0125,0.0054
56:06.7,-0.11,0.25,9.49,0,-0.125,0.0625,-0.009,0.9999,0.0125,0.0054
56:06.7,-0.1,0.23,9.48,0.0625,0.0625,0.0625,-0.009,0.9999,0.0125,0.0054
56:06.7,-0.11,0.22,9.51,0,0.0625,0,-0.009,0.9999,0.0125,0.0054
56:06.7,-0.1,0.22,9.51,-0.0625,0.0625,0.125,-0.009,0.9999,0.0125,0.0054
56:06.8,-0.1,0.22,9.47,0.1875,-0.0625,0.0625,-0.009,0.9999,0.0125,0.0054
56:06.8,-0.11,0.23,9.45,-0.0625,0,0,-0.009,0.9999,0.0125,0.0054
56:06.8,-0.11,0.22,9.53,0.125,-0.0625,0.125,-0.009,0.9999,0.0125,0.0054
56:06.8,-0.11,0.23,9.49,0.125,0.125,0,-0.009,0.9999,0.0125,0.0054
56:06.8,-0.11,0.25,9.51,0,0.25,0,-0.009,0.9999,0.0125,0.0054
56:06.8,-0.11,0.22,9.49,0,0.0625,0.0625,-0.009,0.9999,0.0125,0.0054
56:06.8,-0.09,0.23,9.5,0.125,0.125,0.125,-0.009,0.9999,0.0125,0.0054
56:06.8,-0.09,0.23,9.49,0,0.0625,0,-0.009,0.9999,0.0125,0.0054
56:06.8,-0.1,0.26,9.5,0.0625,0.125,0.125,-0.009,0.9999,0.0125,0.0054
56:06.8,-0.11,0.25,9.53,0.0625,0.125,-0.0625,-0.009,0.9999,0.0125,0.0054
56:06.8,-0.11,0.24,9.47,-0.0625,0.125,-0.0625,-0.009,0.9999,0.0125,0.0054
56:06.9,-0.11,0.23,9.51,-0.0625,0.125,0,-0.009,0.9999,0.0125,0.0054
56:06.9,-0.1,0.22,9.5,0.0625,-0.125,0.0625,-0.009,0.9999,0.0125,0.0054
56:06.9,-0.11,0.24,9.5,0.0625,0,0.125,-0.009,0.9999,0.0125,0.0054
56:06.9,-0.1,0.24,9.5,0.0625,0.125,-0.125,-0.009,0.9999,0.0125,0.0054
56:06.9,-0.11,0.23,9.48,-0.125,0.1875,-0.1875,-0.009,0.9999,0.0125,0.0054
56:06.9,-0.11,0.23,9.49,-0.125,0.0625,0,-0.009,0.9999,0.0125,0.0054
56:06.9,-0.1,0.23,9.5,0.0625,0.125,-0.25,-0.009,0.9999,0.0125,0.0054
56:06.9,-0.1,0.24,9.5,0.125,0,-0.0625,-0.009,0.9999,0.0125,0.0054
56:06.9,-0.1,0.23,9.5,-0.0625,0.125,-0.0625,-0.009,0.9999,0.0125,0.0054
56:07.0,-0.11,0.22,9.48,-0.125,0.125,0,-0.009,0.9999,0.0125,0.0054
56:07.0,-0.09,0.22,9.5,-0.125,-0.125,-0.125,-0.009,0.9999,0.0125,0.0054
56:07.0,-0.11,0.23,9.49,-0.0625,0.0625,0,-0.009,0.9999,0.0125,0.0054
56:07.0,-0.1,0.25,9.5,0.0625,0,-0.0625,-0.009,0.9999,0.0125,0.0054
56:07.0,-0.1,0.22,9.53,0,0,0.125,-0.009,0.9999,0.0125,0.0054
56:07.0,-0.1,0.23,9.48,-0.125,0.125,-0.0625,-0.009,0.9999,0.0125,0.0054
56:07.0,-0.1,0.22,9.5,-0.0625,-0.0625,-0.0625,-0.009,0.9999,0.0125,0.0054
56:07.0,-0.09,0.24,9.5,0,-0.0625,-0.0625,-0.009,0.9999,0.0125,0.0054
56:07.1,-0.1,0.24,9.51,-0.0625,-0.0625,-0.0625,-0.009,0.9999,0.0125,0.0054
56:07.1,-0.11,0.24,9.49,0,0,0,-0.009,0.9999,0.0125,0.0054
56:07.1,-0.09,0.25,9.48,-0.0625,0.1875,-0.1875,-0.009,0.9999,0.0125,0.0054
56:07.1,-0.09,0.23,9.49,0.0625,0.125,0.0625,-0.009,0.9999,0.0125,0.0054
56:07.1,-0.11,0.23,9.5,-0.0625,0.125,-0.0625,-0.009,0.9999,0.0125,0.0054
56:07.1,-0.11,0.23,9.51,-0.0625,0.125,0,-0.009,0.9999,0.0125,0.0054
56:07.1,-0.11,0.25,9.51,0,0.0625,0,-0.009,0.9999,0.0125,0.0054
56:07.1,-0.11,0.23,9.51,-0.125,0.0625,-0.125,-0.009,0.9999,0.0125,0.0054
56:07.1,-0.09,0.24,9.52,-0.0625,0,-0.0625,-0.009,0.9999,0.0125,0.0054
56:07.1,-0.1,0.2,9.5,0,0,-0.125,-0.009,0.9999,0.0125,0.0054
56:07.1,-0.11,0.23,9.48,0.0625,0.125,-0.125,-0.009,0.9999,0.0125,0.0054
56:07.1,-0.11,0.25,9.49,0.0625,0,0,-0.009,0.9999,0.0125,0.0054
56:07.1,-0.11,0.23,9.52,-0.0625,0.1875,-0.0625,-0.009,0.9999,0.0125,0.0054
56:07.2,-0.11,0.24,9.53,-0.0625,-0.0625,-0.0625,-0.009,0.9999,0.0125,0.0054
56:07.2,-0.11,0.22,9.49,0,0.0625,-0.0625,-0.009,0.9999,0.0125,0.0054
56:07.2,-0.1,0.25,9.49,-0.0625,-0.0625,0.1875,-0.009,0.9999,0.0125,0.0054
56:07.2,-0.11,0.24,9.48,0,0.125,0.0625,-0.009,0.9999,0.0125,0.0054
56:07.2,-0.1,0.24,9.47,-0.125,-0.0625,0,-0.009,0.9999,0.0125,0.0054
56:07.2,-0.1,0.23,9.55,-0.0625,0,0.0625,-0.009,0.9999,0.0125,0.0054
56:07.2,-0.1,0.22,9.5,0,-0.125,-0.0625,-0.009,0.9999,0.0125,0.0054
56:07.2,-0.11,0.22,9.47,0,-0.0625,0.0625,-0.009,0.9999,0.0125,0.0054
56:07.2,-0.11,0.23,9.49,0,0,-0.0625,-0.009,0.9999,0.0125,0.0054
56:07.2,-0.11,0.24,9.49,0,0.0625,-0.1875,-0.009,0.9999,0.0125,0.0054
56:07.3,-0.09,0.22,9.5,0,-0.125,-0.125,-0.009,0.9999,0.0125,0.0054
56:07.3,-0.1,0.24,9.54,0,0,0,-0.009,0.9999,0.0125,0.0054
56:07.3,-0.1,0.22,9.5,-0.0625,0.125,0.0625,-0.009,0.9999,0.0125,0.0054
56:07.3,-0.11,0.24,9.45,-0.0625,0.1875,0,-0.009,0.9999,0.0125,0.0054
56:07.3,-0.1,0.23,9.45,-0.0625,0.125,0.0625,-0.009,0.9999,0.0125,0.0054
56:07.3,-0.1,0.22,9.49,0,-0.0625,-0.0625,-0.009,0.9999,0.0125,0.0054
56:07.3,-0.1,0.24,9.52,0.0625,-0.0625,-0.0625,-0.009,0.9999,0.0125,0.0054
56:07.4,-0.1,0.25,9.5,-0.1875,0,-0.0625,-0.009,0.9999,0.0125,0.0054
56:07.4,-0.12,0.21,9.52,0,0.1875,-0.1875,-0.009,0.9999,0.0125,0.0054
56:07.4,-0.11,0.23,9.46,-0.0625,0.0625,-0.0625,-0.009,0.9999,0.0125,0.0054
56:07.4,-0.09,0.24,9.49,-0.0625,-0.125,-0.0625,-0.009,0.9999,0.0125,0.0054
56:07.4,-0.1,0.25,9.54,0.0625,-0.0625,0,-0.009,0.9999,0.0125,0.0054
56:07.4,-0.1,0.25,9.51,0.0625,-0.0625,0.0625,-0.009,0.9999,0.0125,0.0054
56:07.4,-0.1,0.24,9.5,0.0625,0.0625,-0.0625,-0.009,0.9999,0.0125,0.0054
56:07.4,-0.11,0.23,9.46,-0.0625,0.125,-0.125,-0.009,0.9999,0.0125,0.0054
56:07.4,-0.09,0.23,9.49,0,0.0625,0,-0.009,0.9999,0.0125,0.0054
56:07.4,-0.12,0.22,9.51,0,-0.0625,-0.0625,-0.009,0.9999,0.0125,0.0054
56:07.4,-0.1,0.25,9.55,0,0.0625,0.0625,-0.009,0.9999,0.0125,0.0054
56:07.4,-0.1,0.24,9.51,0,0,-0.0625,-0.009,0.9999,0.0125,0.0054
56:07.5,-0.11,0.23,9.5,0,0.0625,-0.25,-0.009,0.9999,0.0125,0.0054
56:07.5,-0.1,0.23,9.48,0.0625,0,0,-0.009,0.9999,0.0125,0.0054
56:07.5,-0.12,0.22,9.5,-0.0625,0.125,-0.0625,-0.009,0.9999,0.0125,0.0054
56:07.5,-0.1,0.26,9.5,0,0,-0.0625,-0.009,0.9999,0.0125,0.0054
56:07.5,-0.11,0.23,9.52,-0.125,0,0.125,-0.009,0.9999,0.0125,0.0054
56:07.5,-0.11,0.23,9.5,0.0625,0,-0.0625,-0.009,0.9999,0.0125,0.0054
56:07.5,-0.11,0.21,9.48,0.0625,0,-0.0625,-0.009,0.9999,0.0125,0.0054
56:07.5,-0.1,0.26,9.49,0,0,0,-0.009,0.9999,0.0125,0.0054
56:07.5,-0.1,0.25,9.53,-0.125,0.0625,-0.125,-0.009,0.9999,0.0125,0.0054
56:07.6,-0.09,0.23,9.52,0.0625,0.125,-0.0625,-0.009,0.9999,0.0125,0.0054
56:07.6,-0.11,0.24,9.5,0,0,-0.0625,-0.009,0.9999,0.0125,0.0054
56:07.6,-0.1,0.22,9.5,-0.0625,0.125,-0.0625,-0.009,0.9999,0.0125,0.0054
56:07.6,-0.11,0.23,9.49,-0.0625,0,-0.0625,-0.009,0.9999,0.0125,0.0054
56:07.6,-0.11,0.22,9.49,-0.0625,0.0625,0,-0.009,0.9999,0.0125,0.0054
56:07.6,-0.1,0.24,9.51,0,0,0.0625,-0.009,0.9999,0.0125,0.0054
56:07.6,-0.12,0.23,9.48,-0.125,-0.0625,0.0625,-0.009,0.9999,0.0125,0.0054
56:07.6,-0.1,0.25,9.48,0.0625,0,0.0625,-0.009,0.9999,0.0125,0.0054
56:07.6,-0.11,0.24,9.49,0.0625,0.1875,-0.0625,-0.009,0.9999,0.0125,0.0054
56:07.7,-0.11,0.24,9.5,-0.0625,-0.0625,0.0625,-0.009,0.9999,0.0125,0.0054
56:07.7,-0.1,0.25,9.5,-0.0625,-0.0625,0.0625,-0.009,0.9999,0.0125,0.0054
56:07.7,-0.09,0.23,9.48,-0.0625,0.125,-0.125,-0.009,0.9999,0.0125,0.0054
56:07.7,-0.12,0.23,9.5,0,0.125,-0.1875,-0.009,0.9999,0.0125,0.0054
56:07.7,-0.1,0.23,9.5,0,-0.1875,0,-0.009,0.9999,0.0125,0.0054
56:07.7,-0.1,0.24,9.51,-0.0625,0,0.0625,-0.009,0.9999,0.0125,0.0054
56:07.7,-0.08,0.22,9.52,0.0625,-0.125,0,-0.009,0.9999,0.0125,0.0054
56:07.7,-0.11,0.23,9.47,-0.125,0.125,-0.125,-0.009,0.9999,0.0125,0.0054
56:07.7,-0.11,0.21,9.5,-0.0625,0.125,-0.125,-0.009,0.9999,0.0125,0.0054
56:07.7,-0.1,0.22,9.51,-0.0625,-0.125,0,-0.009,0.9999,0.0125,0.0054
56:07.7,-0.08,0.25,9.5,0,0.125,-0.0625,-0.009,0.9999,0.0125,0.0054
56:07.7,-0.1,0.23,9.55,-0.125,0.1875,-0.125,-0.009,0.9999,0.0125,0.0054
56:07.7,-0.11,0.23,9.5,-0.0625,0.0625,-0.125,-0.009,0.9999,0.0125,0.0054
56:07.8,-0.1,0.23,9.48,-0.0625,-0.125,0,-0.009,0.9999,0.0125,0.0054
56:07.8,-0.11,0.24,9.47,-0.0625,0.25,0.0625,-0.009,0.9999,0.0125,0.0054
56:07.8,-0.1,0.22,9.48,0,-0.125,-0.0625,-0.009,0.9999,0.0125,0.0054
56:07.8,-0.09,0.24,9.51,-0.0625,-0.1875,-0.125,-0.009,0.9999,0.0125,0.0054
56:07.8,-0.11,0.24,9.5,-0.125,0,-0.125,-0.009,0.9999,0.0125,0.0054
56:07.8,-0.12,0.22,9.5,0,0.0625,-0.125,-0.009,0.9999,0.0125,0.0054
56:07.8,-0.09,0.24,9.47,0,0.125,-0.0625,-0.009,0.9999,0.0125,0.0054
56:07.8,-0.11,0.27,9.52,-0.125,0.0625,0,-0.009,0.9999,0.0125,0.0054
56:07.8,-0.11,0.24,9.5,0,-0.0625,-0.125,-0.009,0.9999,0.0125,0.0054
56:07.9,-0.1,0.24,9.49,0,0.0625,0,-0.009,0.9999,0.0125,0.0054
56:07.9,-0.11,0.23,9.48,0,0,0,-0.009,0.9999,0.0125,0.0054
56:07.9,-0.11,0.22,9.5,-0.125,0,0.125,-0.009,0.9999,0.0125,0.0054
56:07.9,-0.11,0.21,9.5,0,0.0625,-0.0625,-0.009,0.9999,0.0125,0.0054
56:07.9,-0.08,0.22,9.5,-0.0625,-0.0625,0.125,-0.009,0.9999,0.0125,0.0054
56:07.9,-0.11,0.24,9.47,0,0,-0.0625,-0.009,0.9999,0.0125,0.0054
56:07.9,-0.11,0.25,9.52,0.0625,0.0625,0.125,-0.009,0.9999,0.0125,0.0054
56:07.9,-0.11,0.24,9.52,0,0.125,0.125,-0.009,0.9999,0.0125,0.0054
56:08.0,-0.09,0.24,9.51,0.0625,0.125,0,-0.009,0.9999,0.0125,0.0054
56:08.0,-0.1,0.23,9.48,0,-0.0625,0,-0.009,0.9999,0.0125,0.0054
56:08.0,-0.11,0.24,9.48,-0.0625,-0.125,0.125,-0.009,0.9999,0.0125,0.0054
56:08.0,-0.11,0.23,9.51,0.0625,0.0625,0.0625,-0.009,0.9999,0.0125,0.0054
56:08.0,-0.1,0.23,9.5,0.1875,0.1875,0,-0.009,0.9999,0.0125,0.0054
56:08.0,-0.11,0.22,9.49,-0.1875,-0.125,0.0625,-0.009,0.9999,0.0125,0.0054
56:08.0,-0.11,0.23,9.5,-0.125,0,0,-0.009,0.9999,0.0125,0.0054
56:08.0,-0.11,0.22,9.51,0.125,0.0625,0,-0.009,0.9999,0.0125,0.0054
56:08.0,-0.12,0.22,9.5,0.0625,0.125,-0.0625,-0.009,0.9999,0.0125,0.0054
56:08.0,-0.12,0.24,9.5,0,-0.0625,0,-0.009,0.9999,0.0125,0.0054
56:08.0,-0.12,0.24,9.5,0.0625,-0.0625,0.0625,-0.009,0.9999,0.0125,0.0054
56:08.0,-0.09,0.22,9.52,0.0625,-0.0625,0.0625,-0.009,0.9999,0.0125,0.0054
56:08.1,-0.11,0.24,9.47,0,0.0625,0.0625,-0.009,0.9999,0.0125,0.0054
56:08.1,-0.11,0.24,9.51,0.0625,0.1875,0,-0.009,0.9999,0.0125,0.0054
56:08.1,-0.11,0.23,9.5,0,0.0625,-0.0625,-0.009,0.9999,0.0125,0.0054
56:08.1,-0.11,0.23,9.5,0.0625,0.0625,0.125,-0.009,0.9999,0.0125,0.0054
56:08.1,-0.11,0.24,9.48,-0.0625,0.0625,0,-0.009,0.9999,0.0125,0.0054
56:08.1,-0.11,0.25,9.5,0.125,0,0.0625,-0.009,0.9999,0.0125,0.0054
56:08.1,-0.11,0.22,9.5,0,0,0,-0.009,0.9999,0.0125,0.0054
56:08.1,-0.11,0.22,9.5,0,0,0.125,-0.009,0.9999,0.0125,0.0054
56:08.1,-0.11,0.22,9.5,-0.0625,0.125,0,-0.009,0.9999,0.0125,0.0054
56:08.1,-0.1,0.23,9.5,-0.0625,0.0625,0.0625,-0.009,0.9999,0.0125,0.0054
56:08.2,-0.11,0.24,9.51,0.0625,0,0,-0.009,0.9999,0.0125,0.0054
56:08.2,-0.12,0.24,9.48,0.0625,0,0.125,-0.009,0.9999,0.0125,0.0054
56:08.2,-0.09,0.23,9.5,0.125,-0.125,0,-0.009,0.9999,0.0125,0.0054
56:08.2,-0.1,0.23,9.51,-0.0625,0,0,-0.009,0.9999,0.0125,0.0054
56:08.2,-0.11,0.22,9.49,0,-0.0625,0.125,-0.009,0.9999,0.0125,0.0054
56:08.2,-0.11,0.22,9.49,0.1875,-0.0625,-0.0625,-0.009,0.9999,0.0125,0.0054
56:08.2,-0.1,0.25,9.51,0.125,0,0,-0.009,0.9999,0.0125,0.0054
56:08.3,-0.11,0.22,9.53,0.125,0.0625,-0.0625,-0.009,0.9999,0.0125,0.0054
56:08.3,-0.11,0.23,9.51,0.125,-0.0625,0,-0.009,0.9999,0.0125,0.0054
56:08.3,-0.09,0.23,9.5,0.0625,0,0.0625,-0.009,0.9999,0.0125,0.0054
56:08.3,-0.11,0.22,9.5,0.0625,-0.1875,0.0625,-0.009,0.9999,0.0125,0.0054
56:08.3,-0.11,0.24,9.46,0.0625,-0.0625,0.0625,-0.009,0.9999,0.0125,0.0054
56:08.3,-0.09,0.22,9.5,0,0.125,0,-0.009,0.9999,0.0125,0.0054
56:08.3,-0.08,0.23,9.5,0,0.125,0,-0.009,0.9999,0.0125,0.0054
56:08.3,-0.09,0.22,9.53,-0.0625,0.125,-0.125,-0.009,0.9999,0.0125,0.0054
56:08.3,-0.09,0.23,9.52,0.0625,-0.125,0.125,-0.009,0.9999,0.0125,0.0054
56:08.3,-0.14,0.24,9.46,0.0625,0.0625,0,-0.009,0.9999,0.0125,0.0054
56:08.3,-0.11,0.21,9.5,0.0625,0.125,-0.0625,-0.009,0.9999,0.0125,0.0054
56:08.3,-0.11,0.21,9.5,0.0625,0,0.0625,-0.009,0.9999,0.0125,0.0054
56:08.3,-0.12,0.25,9.51,0.0625,0.0625,0,-0.009,0.9999,0.0125,0.0054
56:08.4,-0.11,0.23,9.48,0.0625,-0.25,-0.0625,-0.009,0.9999,0.0125,0.0054
56:08.4,-0.11,0.24,9.48,-0.125,-0.125,0,-0.009,0.9999,0.0125,0.0054
56:08.4,-0.09,0.23,9.48,0,-0.125,0.125,-0.009,0.9999,0.0125,0.0054
56:08.4,-0.09,0.23,9.5,-0.0625,0,-0.125,-0.009,0.9999,0.0125,0.0054
56:08.4,-0.11,0.22,9.52,-0.125,0,0,-0.009,0.9999,0.0125,0.0054
56:08.4,-0.11,0.24,9.5,0,0.125,0.1875,-0.009,0.9999,0.0125,0.0054
56:08.5,-0.09,0.24,9.5,0,0.0625,0.0625,-0.009,0.9999,0.0125,0.0054
56:08.5,-0.09,0.23,9.51,0,0.125,0.0625,-0.009,0.9999,0.0125,0.0054
56:08.5,-0.11,0.21,9.54,-0.1875,0,-0.0625,-0.009,0.9999,0.0125,0.0054
56:08.5,-0.11,0.23,9.51,0.0625,0,0.125,-0.009,0.9999,0.0125,0.0054
56:08.6,-0.11,0.23,9.5,-0.125,0,-0.0625,-0.009,0.9999,0.0125,0.0054
56:08.6,-0.11,0.25,9.5,0,0.125,0,-0.009,0.9999,0.0125,0.0054
56:08.6,-0.09,0.22,9.48,-0.0625,0,0,-0.009,0.9999,0.0125,0.0054
56:08.6,-0.11,0.23,9.48,-0.0625,0.0625,0.0625,-0.009,0.9999,0.0125,0.0054
56:08.6,-0.12,0.22,9.51,-0.0625,-0.0625,0,-0.009,0.9999,0.0125,0.0054
56:08.6,-0.11,0.25,9.45,0.0625,0.0625,-0.0625,-0.009,0.9999,0.0125,0.0054
56:08.6,-0.1,0.22,9.51,0.0625,0.0625,0.125,-0.009,0.9999,0.0125,0.0054
56:08.6,-0.08,0.24,9.5,0,0.0625,0,-0.009,0.9999,0.0125,0.0054
56:08.7,-0.11,0.24,9.5,-0.0625,-0.125,0,-0.009,0.9999,0.0125,0.0054
56:08.7,-0.1,0.23,9.49,-0.125,0.1875,-0.0625,-0.009,0.9999,0.0125,0.0054
56:08.7,-0.12,0.22,9.52,0.125,-0.125,0,-0.009,0.9999,0.0125,0.0054
56:08.7,-0.12,0.24,9.49,-0.0625,-0.125,0.0625,-0.009,0.9999,0.0125,0.0054
56:08.7,-0.11,0.26,9.49,0,-0.0625,0.0625,-0.009,0.9999,0.0125,0.0054
56:08.7,-0.1,0.25,9.49,0.0625,-0.0625,0,-0.009,0.9999,0.0125,0.0054
56:08.8,-0.12,0.26,9.47,-0.0625,0.0625,0.125,-0.009,0.9999,0.0125,0.0054
56:08.8,-0.11,0.22,9.5,0.0625,-0.0625,0.0625,-0.009,0.9999,0.0125,0.0054
56:08.8,-0.1,0.24,9.49,-0.125,0,-0.0625,-0.009,0.9999,0.0125,0.0054
56:08.8,-0.1,0.25,9.49,0,-0.0625,0.0625,-0.009,0.9999,0.0125,0.0054
56:08.8,-0.09,0.23,9.51,0,0.0625,-0.125,-0.009,0.9999,0.0125,0.0054
56:08.9,-0.11,0.23,9.49,0.0625,-0.125,-0.0625,-0.009,0.9999,0.0125,0.0054
56:08.9,-0.11,0.24,9.52,-0.0625,-0.1875,0.125,-0.009,0.9999,0.0125,0.0054
56:08.9,-0.11,0.24,9.5,-0.25,0,0.0625,-0.009,0.9999,0.0125,0.0054
56:08.9,-0.11,0.23,9.49,0.0625,-0.0625,0.125,-0.009,0.9999,0.0125,0.0054
56:08.9,-0.08,0.22,9.49,0,-0.0625,0.125,-0.009,0.9999,0.0125,0.0054
56:08.9,-0.12,0.25,9.51,0.0625,0.0625,0,-0.009,0.9999,0.0125,0.0054
56:08.9,-0.1,0.23,9.47,0,0.0625,0.1875,-0.009,0.9999,0.0125,0.0054
56:08.9,-0.11,0.24,9.5,0,0.0625,-0.0625,-0.009,0.9999,0.0125,0.0054
56:08.9,-0.11,0.24,9.49,-0.0625,-0.0625,0,-0.009,0.9999,0.0125,0.0054
56:08.9,-0.11,0.22,9.52,-0.0625,0.1875,0,-0.009,0.9999,0.0125,0.0054
56:08.9,-0.11,0.24,9.53,-0.0625,0.0625,-0.0625,-0.009,0.9999,0.0125,0.0054
56:09.0,-0.12,0.24,9.48,0,0.1875,-0.0625,-0.009,0.9999,0.0125,0.0054
56:09.0,-0.1,0.22,9.49,0.0625,0.125,-0.125,-0.009,0.9999,0.0125,0.0054
56:09.0,-0.1,0.23,9.51,0.125,0,0,-0.009,0.9999,0.0125,0.0054
56:09.0,-0.1,0.22,9.49,-0.0625,0.1875,-0.0625,-0.009,0.9999,0.0125,0.0054
56:09.0,-0.11,0.23,9.5,-0.1875,0.3125,-0.125,-0.009,0.9999,0.0125,0.0054
56:09.0,-0.11,0.22,9.53,-0.0625,0.0625,-0.125,-0.009,0.9999,0.0125,0.0054
56:09.0,-0.1,0.25,9.5,0,0.125,-0.0625,-0.009,0.9999,0.0125,0.0054
56:09.0,-0.08,0.22,9.5,-0.0625,0.1875,0,-0.009,0.9999,0.0125,0.0054
56:09.0,-0.11,0.23,9.5,0,0.1875,0.125,-0.009,0.9999,0.0125,0.0054
56:09.0,-0.1,0.24,9.51,0.0625,0,0.0625,-0.009,0.9999,0.0125,0.0054
56:09.1,-0.1,0.23,9.49,0,-0.125,0.0625,-0.009,0.9999,0.0125,0.0054
56:09.1,-0.1,0.24,9.52,0,0.1875,0.0625,-0.009,0.9999,0.0125,0.0054
56:09.1,-0.11,0.25,9.49,-0.0625,0.125,-0.125,-0.009,0.9999,0.0125,0.0054
56:09.1,-0.11,0.23,9.49,-0.0625,0.0625,-0.125,-0.009,0.9999,0.0125,0.0054
56:09.1,-0.13,0.24,9.49,0,0.0625,-0.0625,-0.009,0.9999,0.0125,0.0054
56:09.1,-0.11,0.22,9.5,0.0625,0,-0.0625,-0.009,0.9999,0.0125,0.0054
56:09.1,-0.11,0.22,9.5,0.0625,0.1875,0.125,-0.009,0.9999,0.0125,0.0054
56:09.2,-0.09,0.25,9.51,0,0.0625,-0.0625,-0.009,0.9999,0.0125,0.0054
56:09.2,-0.1,0.23,9.51,-0.0625,0.125,-0.0625,-0.009,0.9999,0.0125,0.0054
56:09.2,-0.1,0.23,9.51,0,0.1875,-0.0625,-0.009,0.9999,0.0125,0.0054
56:09.2,-0.09,0.23,9.5,-0.0625,0.125,-0.125,-0.009,0.9999,0.0125,0.0054
56:09.2,-0.11,0.25,9.48,0,0.0625,-0.0625,-0.009,0.9999,0.0125,0.0054
56:09.2,-0.09,0.23,9.52,-0.125,-0.0625,0,-0.009,0.9999,0.0125,0.0054
56:09.2,-0.11,0.23,9.5,-0.0625,0,-0.125,-0.009,0.9999,0.0125,0.0054
56:09.2,-0.11,0.26,9.5,-0.0625,-0.0625,-0.0625,-0.009,0.9999,0.0125,0.0054
56:09.2,-0.11,0.25,9.49,0,0.0625,-0.125,-0.009,0.9999,0.0125,0.0054
56:09.2,-0.1,0.25,9.5,-0.0625,0.0625,0.0625,-0.009,0.9999,0.0125,0.0054
56:09.2,-0.09,0.24,9.5,-0.0625,0.1875,0,-0.009,0.9999,0.0125,0.0054
56:09.2,-0.11,0.24,9.52,-0.0625,0.0625,-0.0625,-0.009,0.9999,0.0125,0.0054
56:09.3,-0.1,0.22,9.46,-0.0625,0.125,0.0625,-0.009,0.9999,0.0125,0.0054
56:09.3,-0.11,0.23,9.47,-0.125,0,0,-0.009,0.9999,0.0125,0.0054
56:09.3,-0.11,0.24,9.5,0,0,0,-0.009,0.9999,0.0125,0.0054
56:09.3,-0.1,0.22,9.5,-0.0625,0.125,-0.0625,-0.009,0.9999,0.0125,0.0054
56:09.3,-0.12,0.24,9.51,0,0.125,0,-0.009,0.9999,0.0125,0.0054
56:09.3,-0.13,0.22,9.5,0.0625,0.1875,-0.125,-0.009,0.9999,0.0125,0.0054
56:09.3,-0.1,0.22,9.5,-0.125,0.1875,0,-0.009,0.9999,0.0125,0.0054
56:09.3,-0.11,0.26,9.5,-0.0625,0.1875,-0.0625,-0.009,0.9999,0.0125,0.0054
56:09.3,-0.09,0.22,9.49,-0.125,0.125,-0.0625,-0.009,0.9999,0.0125,0.0054
56:09.3,-0.11,0.22,9.52,-0.125,0.125,-0.1875,-0.009,0.9999,0.0125,0.0054
56:09.3,-0.09,0.25,9.5,0,0.125,-0.0625,-0.009,0.9999,0.0125,0.0054
56:09.4,-0.1,0.22,9.5,0,-0.0625,-0.0625,-0.009,0.9999,0.0125,0.0054
56:09.4,-0.09,0.23,9.51,0,-0.0625,0.125,-0.009,0.9999,0.0125,0.0054
56:09.4,-0.1,0.23,9.51,0,0.125,-0.0625,-0.009,0.9999,0.0125,0.0054
56:09.4,-0.11,0.23,9.48,-0.0625,0.25,-0.0625,-0.009,0.9999,0.0125,0.0054
56:09.4,-0.1,0.24,9.53,0,-0.25,0.1875,-0.009,0.9999,0.0125,0.0054
56:09.4,-0.11,0.25,9.48,0.125,-0.0625,0.0625,-0.009,0.9999,0.0125,0.0054
56:09.4,-0.1,0.22,9.51,0,0,0.0625,-0.009,0.9999,0.0125,0.0054
56:09.5,-0.11,0.24,9.52,-0.0625,0.0625,0.0625,-0.009,0.9999,0.0125,0.0054
56:09.5,-0.11,0.24,9.5,-0.0625,-0.0625,-0.125,-0.009,0.9999,0.0125,0.0054
56:09.5,-0.09,0.21,9.5,-0.0625,-0.0625,-0.0625,-0.009,0.9999,0.0125,0.0054
56:09.5,-0.09,0.23,9.52,0.125,0,0,-0.009,0.9999,0.0125,0.0054
56:09.5,-0.08,0.22,9.49,0,-0.0625,0,-0.009,0.9999,0.0125,0.0054
56:09.5,-0.1,0.25,9.5,0,-0.125,0.0625,-0.009,0.9999,0.0125,0.0054
56:09.5,-0.09,0.22,9.5,0,0,-0.0625,-0.009,0.9999,0.0125,0.0054
56:09.5,-0.11,0.23,9.51,0.125,0,0.0625,-0.009,0.9999,0.0125,0.0054
56:09.5,-0.11,0.25,9.48,0.125,0,0.0625,-0.009,0.9999,0.0125,0.0054
56:09.5,-0.11,0.24,9.5,-0.0625,0.0625,0.0625,-0.009,0.9999,0.0125,0.0054
56:09.5,-0.11,0.23,9.5,0.0625,-0.125,0,-0.009,0.9999,0.0125,0.0054
56:09.5,-0.11,0.24,9.52,0.125,-0.0625,-0.125,-0.009,0.9999,0.0125,0.0054
56:09.5,-0.08,0.23,9.53,0,0,0.125,-0.009,0.9999,0.0125,0.0054
56:09.6,-0.09,0.25,9.47,0.0625,0.0625,0,-0.009,0.9999,0.0125,0.0054
56:09.6,-0.11,0.22,9.53,0,-0.0625,0.125,-0.009,0.9999,0.0125,0.0054
56:09.6,-0.11,0.23,9.48,0.0625,0.0625,0.1875,-0.009,0.9999,0.0125,0.0054
56:09.6,-0.09,0.25,9.49,0.0625,-0.0625,0,-0.009,0.9999,0.0125,0.0054
56:09.6,-0.11,0.22,9.5,0.125,-0.0625,0.0625,-0.009,0.9999,0.0125,0.0054
56:09.6,-0.11,0.23,9.5,0.0625,-0.0625,0.0625,-0.009,0.9999,0.0125,0.0054
56:09.6,-0.09,0.23,9.5,0,0,0.0625,-0.009,0.9999,0.0125,0.0054
56:09.6,-0.08,0.25,9.5,0,0.0625,0.0625,-0.009,0.9999,0.0125,0.0054
56:09.6,-0.11,0.22,9.5,0,0.125,0.125,-0.009,0.9999,0.0125,0.0054
56:09.7,-0.1,0.23,9.51,0,0.0625,0,-0.009,0.9999,0.0125,0.0054
56:09.7,-0.11,0.23,9.47,-0.0625,0.1875,-0.0625,-0.009,0.9999,0.0125,0.0054
56:09.7,-0.1,0.23,9.5,-0.0625,0.0625,0,-0.009,0.9999,0.0125,0.0054
56:09.7,-0.11,0.26,9.51,0,0.1875,-0.0625,-0.009,0.9999,0.0125,0.0054
56:09.7,-0.11,0.24,9.48,0,0.0625,-0.0625,-0.009,0.9999,0.0125,0.0054
56:09.7,-0.11,0.23,9.52,0,0.1875,0.0625,-0.009,0.9999,0.0125,0.0054
56:09.7,-0.1,0.24,9.48,0,0.125,-0.0625,-0.009,0.9999,0.0125,0.0054
56:09.7,-0.1,0.24,9.53,0.1875,-0.1875,0.125,-0.009,0.9999,0.0125,0.0054
56:09.8,-0.11,0.24,9.51,-0.0625,0,0.125,-0.009,0.9999,0.0125,0.0054
56:09.8,-0.1,0.23,9.51,0.1875,0,0,-0.009,0.9999,0.0125,0.0054
56:09.8,-0.1,0.25,9.49,0.125,0,0,-0.009,0.9999,0.0125,0.0054
56:09.8,-0.09,0.25,9.46,0.0625,0,-0.0625,-0.009,0.9999,0.0125,0.0054
56:09.8,-0.11,0.23,9.5,0,-0.0625,0,-0.009,0.9999,0.0125,0.0054
56:09.8,-0.07,0.22,9.48,0.125,-0.125,0,-0.009,0.9999,0.0125,0.0054
56:09.8,-0.11,0.24,9.5,0.1875,-0.0625,0.1875,-0.009,0.9999,0.0125,0.0054
56:09.8,-0.1,0.25,9.51,0.1875,0,0.0625,-0.009,0.9999,0.0125,0.0054
56:09.8,-0.12,0.24,9.49,0,0,0,-0.009,0.9999,0.0125,0.0054
56:09.8,-0.11,0.22,9.51,0.1875,0.0625,0,-0.009,0.9999,0.0125,0.0054
56:09.8,-0.11,0.22,9.52,0.0625,-0.0625,0.0625,-0.009,0.9999,0.0125,0.0054
56:09.8,-0.11,0.25,9.52,0,0.0625,-0.0625,-0.009,0.9999,0.0125,0.0054
56:09.9,-0.1,0.22,9.5,-0.125,0,0,-0.009,0.9999,0.0125,0.0054
56:09.9,-0.11,0.22,9.47,0.125,0,-0.0625,-0.009,0.9999,0.0125,0.0054
56:09.9,-0.1,0.23,9.47,-0.0625,-0.0625,0.0625,-0.009,0.9999,0.0125,0.0054
56:09.9,-0.11,0.21,9.5,0.125,0.125,-0.0625,-0.009,0.9999,0.0125,0.0054
56:09.9,-0.11,0.24,9.5,0.125,-0.0625,0.125,-0.009,0.9999,0.0125,0.0054
56:09.9,-0.11,0.23,9.5,-0.0625,0.0625,0.0625,-0.009,0.9999,0.0125,0.0054
56:09.9,-0.12,0.24,9.5,-0.0625,0,0.1875,-0.009,0.9999,0.0125,0.0054
56:09.9,-0.11,0.23,9.5,-0.0625,-0.0625,0.125,-0.009,0.9999,0.0125,0.0054
56:09.9,-0.11,0.25,9.51,-0.1875,-0.125,0,-0.009,0.9999,0.0125,0.0054
56:09.9,-0.11,0.23,9.5,-0.0625,0.125,0.0625,-0.009,0.9999,0.0125,0.0054
56:09.9,-0.11,0.23,9.51,-0.0625,0.125,-0.125,-0.009,0.9999,0.0125,0.0054
56:10.0,-0.1,0.23,9.52,-0.0625,0.125,-0.125,-0.009,0.9999,0.0125,0.0054
56:10.0,-0.12,0.22,9.5,-0.0625,-0.0625,0.125,-0.009,0.9999,0.0125,0.0054
56:10.0,-0.11,0.23,9.52,-0.0625,0,0.125,-0.009,0.9999,0.0125,0.0054
56:10.0,-0.12,0.23,9.5,-0.125,0.125,0.0625,-0.009,0.9999,0.0125,0.0054
56:10.0,-0.1,0.23,9.49,-0.0625,0.1875,-0.125,-0.009,0.9999,0.0125,0.0054
56:10.1,-0.13,0.24,9.48,-0.0625,0,0,-0.009,0.9999,0.0125,0.0054
56:10.1,-0.09,0.24,9.47,0.0625,0.0625,-0.0625,-0.009,0.9999,0.0125,0.0054
56:10.1,-0.09,0.24,9.49,0.125,-0.125,0.25,-0.009,0.9999,0.0125,0.0054
56:10.1,-0.11,0.24,9.51,0.125,-0.0625,0,-0.009,0.9999,0.0125,0.0054
56:10.1,-0.12,0.24,9.51,0.0625,-0.125,-0.0625,-0.009,0.9999,0.0125,0.0054
56:10.1,-0.1,0.25,9.52,-0.0625,0,-0.0625,-0.009,0.9999,0.0125,0.0054
56:10.1,-0.1,0.25,9.49,0.125,-0.0625,0.0625,-0.009,0.9999,0.0125,0.0054
56:10.1,-0.11,0.24,9.49,0,0,0.0625,-0.009,0.9999,0.0125,0.0054
56:10.1,-0.11,0.23,9.5,-0.1875,0,0.0625,-0.009,0.9999,0.0125,0.0054
56:10.1,-0.1,0.24,9.49,0.0625,0.125,-0.0625,-0.009,0.9999,0.0125,0.0054
56:10.1,-0.11,0.25,9.47,0,0.125,-0.125,-0.009,0.9999,0.0125,0.0054
56:10.1,-0.1,0.23,9.53,0,-0.125,-0.0625,-0.009,0.9999,0.0125,0.0054
56:10.1,-0.09,0.24,9.5,-0.0625,-0.0625,0.1875,-0.009,0.9999,0.0125,0.0054
56:10.1,-0.11,0.23,9.5,0,0.0625,0.0625,-0.009,0.9999,0.0125,0.0054
56:10.1,-0.11,0.24,9.51,0,-0.1875,0.125,-0.009,0.9999,0.0125,0.0054
56:10.2,-0.11,0.23,9.47,-0.0625,-0.0625,0.0625,-0.009,0.9999,0.0125,0.0054
56:10.2,-0.1,0.24,9.5,-0.125,0,0,-0.009,0.9999,0.0125,0.0054
56:10.2,-0.1,0.24,9.52,-0.0625,-0.0625,0.0625,-0.009,0.9999,0.0125,0.0054
56:10.2,-0.11,0.23,9.47,0,0.0625,0.1875,-0.009,0.9999,0.0125,0.0054
56:10.2,-0.09,0.23,9.47,0.1875,-0.1875,0.0625,-0.009,0.9999,0.0125,0.0054
56:10.2,-0.11,0.23,9.5,-0.0625,0,-0.125,-0.009,0.9999,0.0125,0.0054
56:10.2,-0.1,0.23,9.5,0,0,0.0625,-0.009,0.9999,0.0125,0.0054
56:10.2,-0.11,0.23,9.5,-0.0625,0,0,-0.009,0.9999,0.0125,0.0054
56:10.2,-0.11,0.26,9.52,0,-0.0625,0.25,-0.009,0.9999,0.0125,0.0054
56:10.3,-0.09,0.24,9.5,0,0,-0.0625,-0.009,0.9999,0.0125,0.0054
56:10.3,-0.11,0.23,9.48,0,-0.125,0.125,-0.009,0.9999,0.0125,0.0054
56:10.3,-0.1,0.23,9.5,-0.0625,0,0.0625,-0.009,0.9999,0.0125,0.0054
56:10.3,-0.11,0.25,9.51,-0.0625,0,-0.0625,-0.009,0.9999,0.0125,0.0054
56:10.3,-0.09,0.22,9.52,-0.0625,-0.0625,0.125,-0.009,0.9999,0.0125,0.0054
56:10.3,-0.11,0.26,9.52,-0.0625,0.125,-0.0625,-0.009,0.9999,0.0125,0.0054
56:10.3,-0.13,0.25,9.48,0.1875,0,0.1875,-0.009,0.9999,0.0125,0.0054
56:10.3,-0.08,0.22,9.5,0.0625,0.0625,0,-0.009,0.9999,0.0125,0.0054
56:10.4,-0.12,0.23,9.52,0.0625,0.125,0.0625,-0.009,0.9999,0.0125,0.0054
56:10.4,-0.11,0.23,9.5,-0.1875,-0.0625,0.125,-0.009,0.9999,0.0125,0.0054
56:10.4,-0.1,0.24,9.49,-0.1875,0.125,-0.125,-0.009,0.9999,0.0125,0.0054
56:10.4,-0.1,0.23,9.51,-0.125,0.0625,0,-0.009,0.9999,0.0125,0.0054
56:10.4,-0.1,0.22,9.5,-0.0625,0.125,-0.0625,-0.009,0.9999,0.0125,0.0054
56:10.4,-0.11,0.24,9.51,-0.125,0.125,0,-0.009,0.9999,0.0125,0.0054
56:10.4,-0.11,0.24,9.51,0.0625,0.0625,0.0625,-0.009,0.9999,0.0125,0.0054
56:10.4,-0.1,0.23,9.52,0.0625,0.0625,0,-0.009,0.9999,0.0125,0.0054
56:10.4,-0.09,0.24,9.5,-0.0625,-0.0625,0,-0.009,0.9999,0.0125,0.0054
56:10.4,-0.09,0.25,9.49,-0.0625,-0.125,0.0625,-0.009,0.9999,0.0125,0.0054
56:10.4,-0.11,0.24,9.5,0,0,-0.125,-0.009,0.9999,0.0125,0.0054
56:10.4,-0.11,0.24,9.5,0,0,0.0625,-0.009,0.9999,0.0125,0.0054
56:10.5,-0.12,0.25,9.5,-0.0625,0.0625,0,-0.009,0.9999,0.0125,0.0054
56:10.5,-0.12,0.25,9.5,-0.0625,0.125,-0.0625,-0.009,0.9999,0.0125,0.0054
56:10.5,-0.09,0.23,9.47,-0.0625,-0.0625,-0.125,-0.009,0.9999,0.0125,0.0054
56:10.5,-0.11,0.22,9.5,0.125,-0.125,-0.125,-0.009,0.9999,0.0125,0.0054
56:10.5,-0.08,0.23,9.51,0.0625,-0.0625,0.0625,-0.009,0.9999,0.0125,0.0054
56:10.5,-0.11,0.22,9.52,-0.0625,0.0625,-0.0625,-0.009,0.9999,0.0125,0.0054
56:10.5,-0.11,0.24,9.51,-0.125,-0.0625,0,-0.009,0.9999,0.0125,0.0054
56:10.5,-0.11,0.24,9.5,-0.1875,-0.0625,-0.125,-0.009,0.9999,0.0125,0.0054
56:10.5,-0.11,0.23,9.5,-0.125,0.0625,0,-0.009,0.9999,0.0125,0.0054
56:10.5,-0.1,0.24,9.5,0,-0.0625,0.0625,-0.009,0.9999,0.0125,0.0054
56:10.5,-0.1,0.24,9.52,0.0625,0,0,-0.009,0.9999,0.0125,0.0054
56:10.6,-0.11,0.22,9.51,-0.125,0,-0.125,-0.009,0.9999,0.0125,0.0054
56:10.6,-0.1,0.24,9.48,0.0625,-0.0625,-0.1875,-0.009,0.9999,0.0125,0.0054
56:10.6,-0.12,0.23,9.48,-0.0625,-0.125,0.0625,-0.009,0.9999,0.0125,0.0054
56:10.6,-0.08,0.23,9.51,-0.0625,0.1875,0,-0.009,0.9999,0.0125,0.0054
56:10.6,-0.08,0.22,9.5,-0.0625,0,0,-0.009,0.9999,0.0125,0.0054
56:10.6,-0.1,0.25,9.5,-0.125,-0.1875,0,-0.009,0.9999,0.0125,0.0054
56:10.7,-0.09,0.24,9.5,0.0625,-0.125,-0.1875,-0.009,0.9999,0.0125,0.0054
56:10.7,-0.09,0.24,9.49,0.0625,-0.125,-0.1875,-0.009,0.9999,0.0125,0.0054
56:10.7,-0.11,0.24,9.52,0,0.1875,-0.1875,-0.009,0.9999,0.0125,0.0054
56:10.7,-0.11,0.23,9.5,0.0625,-0.0625,-0.125,-0.009,0.9999,0.0125,0.0054
56:10.7,-0.09,0.24,9.5,0.0625,-0.1875,0,-0.009,0.9999,0.0125,0.0054
56:10.7,-0.12,0.26,9.5,-0.0625,0.0625,-0.125,-0.009,0.9999,0.0125,0.0054
56:10.7,-0.12,0.23,9.5,0,0,-0.125,-0.009,0.9999,0.0125,0.0054
56:10.7,-0.1,0.23,9.49,-0.1875,0.0625,-0.125,-0.009,0.9999,0.0125,0.0054
56:10.7,-0.08,0.28,9.5,0,0.125,0,-0.009,0.9999,0.0125,0.0054
56:10.7,-0.11,0.24,9.5,-0.125,0.0625,-0.125,-0.009,0.9999,0.0125,0.0054
56:10.8,-0.11,0.23,9.5,0,0.0625,-0.125,-0.009,0.9999,0.0125,0.0054
56:10.8,-0.11,0.24,9.5,-0.0625,0.1875,-0.0625,-0.009,0.9999,0.0125,0.0054
56:10.8,-0.11,0.23,9.53,-0.0625,0.125,-0.0625,-0.009,0.9999,0.0125,0.0054
56:10.8,-0.1,0.25,9.49,0,-0.1875,-0.0625,-0.009,0.9999,0.0125,0.0054
56:10.8,-0.11,0.25,9.5,-0.0625,-0.125,0,-0.009,0.9999,0.0125,0.0054
56:10.9,-0.1,0.24,9.51,-0.0625,-0.0625,-0.0625,-0.009,0.9999,0.0125,0.0054
56:10.9,-0.11,0.23,9.49,-0.1875,-0.0625,0,-0.009,0.9999,0.0125,0.0054
56:10.9,-0.11,0.24,9.5,-0.125,0,-0.0625,-0.009,0.9999,0.0125,0.0054
56:10.9,-0.12,0.25,9.48,-0.1875,0,-0.125,-0.009,0.9999,0.0125,0.0054
56:10.9,-0.09,0.22,9.5,0,0,0,-0.009,0.9999,0.0125,0.0054
56:11.0,-0.09,0.24,9.51,-0.0625,0,0.0625,-0.009,0.9999,0.0125,0.0054
56:11.0,-0.11,0.22,9.5,-0.125,-0.0625,0.125,-0.009,0.9999,0.0125,0.0054
56:11.0,-0.11,0.22,9.51,0.0625,0.0625,0.0625,-0.009,0.9999,0.0125,0.0054
56:11.0,-0.09,0.26,9.5,0.125,0.1875,0.125,-0.009,0.9999,0.0125,0.0054
56:11.0,-0.1,0.24,9.52,0.0625,-0.0625,0.0625,-0.009,0.9999,0.0125,0.0054
56:11.1,-0.1,0.22,9.5,0.0625,0.125,-0.0625,-0.009,0.9999,0.0125,0.0054
56:11.1,-0.12,0.24,9.5,0.0625,0.1875,-0.1875,-0.009,0.9999,0.0125,0.0054
56:11.1,-0.1,0.27,9.5,0.0625,-0.0625,0.125,-0.009,0.9999,0.0125,0.0054
56:11.1,-0.11,0.23,9.5,0.125,0,0.0625,-0.009,0.9999,0.0125,0.0054
56:11.1,-0.1,0.24,9.5,0.0625,0.1875,0,-0.009,0.9999,0.0125,0.0054
56:11.1,-0.09,0.25,9.49,0,0.0625,-0.0625,-0.009,0.9999,0.0125,0.0054
56:11.2,-0.1,0.23,9.52,0.1875,0,0.125,-0.009,0.9999,0.0125,0.0054
56:11.2,-0.12,0.24,9.48,0.0625,-0.125,0,-0.009,0.9999,0.0125,0.0054
56:11.2,-0.11,0.25,9.51,0.125,-0.125,0.0625,-0.009,0.9999,0.0125,0.0054
56:11.2,-0.11,0.24,9.49,0,0.0625,0.0625,-0.009,0.9999,0.0125,0.0054
56:11.2,-0.1,0.24,9.47,0.0625,-0.0625,0.0625,-0.009,0.9999,0.0125,0.0054
56:11.2,-0.11,0.23,9.49,0.125,-0.125,0,-0.009,0.9999,0.0125,0.0054
56:11.3,-0.08,0.24,9.5,0.125,0,0,-0.009,0.9999,0.0125,0.0054
56:11.3,-0.11,0.24,9.53,0.0625,0.0625,0,-0.009,0.9999,0.0125,0.0054
56:11.3,-0.1,0.22,9.5,-0.0625,0.125,0.0625,-0.009,0.9999,0.0125,0.0054
56:11.3,-0.11,0.23,9.46,0.125,0.125,-0.0625,-0.009,0.9999,0.0125,0.0054
56:11.3,-0.08,0.23,9.5,0.125,0.0625,0,-0.009,0.9999,0.0125,0.0054
56:11.3,-0.1,0.24,9.48,0.0625,0,0.125,-0.009,0.9999,0.0125,0.0054
56:11.3,-0.1,0.24,9.51,0.0625,-0.0625,0,-0.009,0.9999,0.0125,0.0054
56:11.3,-0.13,0.22,9.51,0.125,-0.125,0.125,-0.009,0.9999,0.0125,0.0054
56:11.3,-0.1,0.25,9.49,0,-0.0625,0.0625,-0.009,0.9999,0.0125,0.0054
56:11.3,-0.11,0.23,9.52,0.0625,-0.0625,0.0625,-0.009,0.9999,0.0125,0.0054
56:11.3,-0.11,0.22,9.49,0.0625,0.125,0.125,-0.009,0.9999,0.0125,0.0054
56:11.4,-0.1,0.24,9.5,0.125,-0.0625,0.125,-0.009,0.9999,0.0125,0.0054
56:11.4,-0.11,0.25,9.49,0,-0.0625,0.0625,-0.009,0.9999,0.0125,0.0054
56:11.4,-0.12,0.24,9.48,0.0625,0,0.125,-0.009,0.9999,0.0125,0.0054
56:11.4,-0.11,0.25,9.49,0.0625,0.0625,0,-0.009,0.9999,0.0125,0.0054
56:11.4,-0.11,0.25,9.51,0,-0.0625,0.0625,-0.009,0.9999,0.0125,0.0054
56:11.4,-0.1,0.25,9.53,0,-0.0625,0,-0.009,0.9999,0.0125,0.0054
56:11.4,-0.11,0.24,9.53,-0.125,0.125,-0.125,-0.009,0.9999,0.0125,0.0054
56:11.4,-0.1,0.24,9.46,-0.0625,0.0625,-0.0625,-0.009,0.9999,0.0125,0.0054
56:11.4,-0.1,0.22,9.5,0.0625,-0.125,-0.0625,-0.009,0.9999,0.0125,0.0054
56:11.4,-0.11,0.23,9.5,0,0.1875,0.0625,-0.009,0.9999,0.0125,0.0054
56:11.4,-0.1,0.23,9.53,0,-0.0625,0,-0.009,0.9999,0.0125,0.0054
56:11.5,-0.09,0.25,9.5,0,0.25,-0.125,-0.009,0.9999,0.0125,0.0054
56:11.5,-0.11,0.24,9.46,0.125,-0.0625,0.125,-0.009,0.9999,0.0125,0.0054
56:11.5,-0.08,0.24,9.49,-0.0625,0.0625,-0.1875,-0.009,0.9999,0.0125,0.0054
56:11.5,-0.1,0.24,9.52,0,0,-0.0625,-0.009,0.9999,0.0125,0.0054
56:11.5,-0.11,0.24,9.48,0,0.0625,0,-0.009,0.9999,0.0125,0.0054
56:11.5,-0.11,0.23,9.51,-0.125,0,-0.125,-0.009,0.9999,0.0125,0.0054
56:11.5,-0.11,0.27,9.46,-0.125,0,-0.0625,-0.009,0.9999,0.0125,0.0054
56:11.6,-0.11,0.24,9.5,0.1875,0,-0.0625,-0.009,0.9999,0.0125,0.0054
56:11.6,-0.11,0.23,9.49,0,0.0625,-0.125,-0.009,0.9999,0.0125,0.0054
56:11.6,-0.11,0.24,9.5,-0.1875,0.0625,0.0625,-0.009,0.9999,0.0125,0.0054
56:11.6,-0.1,0.23,9.52,0,0.0625,-0.125,-0.009,0.9999,0.0125,0.0054
56:11.6,-0.1,0.23,9.5,-0.0625,0.1875,-0.0625,-0.009,0.9999,0.0125,0.0054
56:11.6,-0.11,0.23,9.5,0,-0.0625,0,-0.009,0.9999,0.0125,0.0054
56:11.6,-0.11,0.25,9.51,-0.0625,0.125,0,-0.009,0.9999,0.0125,0.0054
56:11.6,-0.1,0.23,9.51,-0.0625,-0.0625,-0.0625,-0.009,0.9999,0.0125,0.0054
56:11.6,-0.1,0.22,9.49,-0.0625,0.0625,-0.1875,-0.009,0.9999,0.0125,0.0054
56:11.6,-0.12,0.25,9.49,-0.0625,-0.0625,-0.0625,-0.009,0.9999,0.0125,0.0054
56:11.6,-0.11,0.22,9.48,-0.0625,0,0.0625,-0.009,0.9999,0.0125,0.0054
56:11.6,-0.08,0.23,9.5,-0.125,-0.0625,-0.0625,-0.009,0.9999,0.0125,0.0054
56:11.6,-0.11,0.24,9.49,0,0,-0.125,-0.009,0.9999,0.0125,0.0054
56:11.7,-0.11,0.24,9.5,-0.0625,-0.0625,-0.125,-0.009,0.9999,0.0125,0.0054
56:11.7,-0.11,0.24,9.51,0.0625,-0.0625,0.0625,-0.009,0.9999,0.0125,0.0054
56:11.7,-0.11,0.23,9.53,-0.125,0,0,-0.009,0.9999,0.0125,0.0054
56:11.7,-0.1,0.26,9.5,-0.125,-0.0625,-0.125,-0.009,0.9999,0.0125,0.0054
56:11.7,-0.09,0.25,9.5,-0.0625,0.0625,-0.0625,-0.009,0.9999,0.0125,0.0054
56:11.7,-0.1,0.24,9.53,-0.0625,0.0625,-0.125,-0.009,0.9999,0.0125,0.0054
56:11.7,-0.1,0.25,9.5,0,0.0625,-0.125,-0.009,0.9999,0.0125,0.0054
56:11.7,-0.09,0.24,9.51,-0.1875,0.125,-0.0625,-0.009,0.9999,0.0125,0.0054
56:11.7,-0.11,0.23,9.49,-0.125,0.0625,-0.0625,-0.009,0.9999,0.0125,0.0054
56:11.7,-0.1,0.26,9.54,0,0.0625,-0.125,-0.009,0.9999,0.0125,0.0054
56:11.7,-0.11,0.24,9.52,-0.0625,0,-0.0625,-0.009,0.9999,0.0125,0.0054
56:11.8,-0.1,0.25,9.49,-0.125,-0.125,0,-0.009,0.9999,0.0125,0.0054
56:11.8,-0.11,0.25,9.52,0,0.0625,-0.0625,-0.009,0.9999,0.0125,0.0054
56:11.8,-0.12,0.23,9.5,-0.0625,0.0625,0.0625,-0.009,0.9999,0.0125,0.0054
56:11.8,-0.11,0.24,9.51,-0.125,0,0,-0.009,0.9999,0.0125,0.0054
56:11.8,-0.11,0.23,9.52,0,0.0625,-0.0625,-0.009,0.9999,0.0125,0.0054
56:11.8,-0.09,0.23,9.48,0.0625,-0.0625,0.125,-0.009,0.9999,0.0125,0.0054
56:11.8,-0.11,0.24,9.5,-0.125,-0.0625,-0.125,-0.009,0.9999,0.0125,0.0054
56:11.9,-0.11,0.22,9.5,0.0625,0,-0.0625,-0.009,0.9999,0.0125,0.0054
56:11.9,-0.11,0.26,9.5,-0.125,0,0,-0.009,0.9999,0.0125,0.0054
56:11.9,-0.1,0.22,9.5,0.0625,-0.0625,0,-0.009,0.9999,0.0125,0.0054
56:11.9,-0.1,0.24,9.48,0,-0.0625,0,-0.009,0.9999,0.0125,0.0054
56:11.9,-0.09,0.24,9.5,0,0,-0.0625,-0.009,0.9999,0.0125,0.0054
56:11.9,-0.1,0.24,9.51,0.0625,0,0,-0.009,0.9999,0.0125,0.0054
56:11.9,-0.12,0.24,9.5,0,0.0625,-0.0625,-0.009,0.9999,0.0125,0.0054
56:11.9,-0.1,0.21,9.5,0.125,0,0,-0.009,0.9999,0.0125,0.0054
56:11.9,-0.11,0.22,9.51,0,0,-0.0625,-0.009,0.9999,0.0125,0.0054
56:11.9,-0.1,0.22,9.5,-0.0625,-0.0625,0,-0.009,0.9999,0.0125,0.0054
56:11.9,-0.12,0.21,9.5,-0.0625,-0.125,0.125,-0.009,0.9999,0.0125,0.0054
56:11.9,-0.11,0.24,9.49,0.0625,0,-0.125,-0.009,0.9999,0.0125,0.0054
56:12.0,-0.11,0.23,9.5,0.0625,-0.25,0,-0.009,0.9999,0.0125,0.0054
56:12.0,-0.1,0.22,9.48,0.0625,0,0.0625,-0.009,0.9999,0.0125,0.0054
56:12.0,-0.11,0.24,9.5,0.125,-0.0625,0,-0.009,0.9999,0.0125,0.0054
56:12.0,-0.09,0.24,9.46,0.125,0,0.125,-0.009,0.9999,0.0125,0.0054
56:12.0,-0.1,0.24,9.5,0.1875,0,0.125,-0.009,0.9999,0.0125,0.0054
56:12.0,-0.09,0.25,9.5,0.125,0.0625,0.0625,-0.009,0.9999,0.0125,0.0054
56:12.0,-0.1,0.24,9.5,0.25,-0.1875,-0.0625,-0.009,0.9999,0.0125,0.0054
56:12.0,-0.1,0.24,9.5,0.125,0,0,-0.009,0.9999,0.0125,0.0054
56:12.0,-0.1,0.22,9.5,0.0625,0.0625,0,-0.009,0.9999,0.0125,0.0054
56:12.0,-0.1,0.23,9.51,0.0625,0,0.0625,-0.009,0.9999,0.0125,0.0054
56:12.1,-0.11,0.25,9.51,0.0625,0,-0.0625,-0.009,0.9999,0.0125,0.0054
56:12.1,-0.1,0.24,9.47,0.1875,0.0625,0.0625,-0.009,0.9999,0.0125,0.0054
56:12.1,-0.1,0.25,9.51,0,0.0625,0,-0.009,0.9999,0.0125,0.0054
56:12.1,-0.11,0.24,9.5,-0.0625,0,-0.0625,-0.009,0.9999,0.0125,0.0054
56:12.1,-0.1,0.23,9.52,0.125,-0.0625,0.125,-0.009,0.9999,0.0125,0.0054
56:12.1,-0.11,0.22,9.5,0.1875,0,-0.125,-0.009,0.9999,0.0125,0.0054
56:12.1,-0.09,0.23,9.5,0.0625,-0.0625,0,-0.009,0.9999,0.0125,0.0054
56:12.1,-0.11,0.23,9.5,0.0625,0,0,-0.009,0.9999,0.0125,0.0054
56:12.1,-0.12,0.23,9.5,0.0625,0.125,0.125,-0.009,0.9999,0.0125,0.0054
56:12.1,-0.1,0.25,9.5,0,0.125,-0.0625,-0.009,0.9999,0.0125,0.0054
56:12.2,-0.12,0.24,9.52,-0.0625,0.125,0,-0.009,0.9999,0.0125,0.0054
56:12.2,-0.11,0.23,9.47,0,0,0.0625,-0.009,0.9999,0.0125,0.0054
56:12.2,-0.1,0.25,9.5,0,0.0625,-0.0625,-0.009,0.9999,0.0125,0.0054
56:12.2,-0.09,0.24,9.53,0,0.125,0,-0.009,0.9999,0.0125,0.0054
56:12.2,-0.11,0.25,9.49,-0.0625,0.0625,-0.0625,-0.009,0.9999,0.0125,0.0054
56:12.2,-0.11,0.24,9.48,-0.0625,0.1875,0,-0.009,0.9999,0.0125,0.0054
56:12.2,-0.1,0.23,9.47,0.0625,-0.1875,-0.125,-0.009,0.9999,0.0125,0.0054
56:12.2,-0.1,0.22,9.51,-0.0625,0,0.125,-0.009,0.9999,0.0125,0.0054
56:12.2,-0.1,0.25,9.49,0.0625,-0.0625,0.0625,-0.009,0.9999,0.0125,0.0054
56:12.3,-0.08,0.22,9.52,0,-0.0625,0,-0.009,0.9999,0.0125,0.0054
56:12.3,-0.1,0.23,9.51,-0.0625,0,0.0625,-0.009,0.9999,0.0125,0.0054
56:12.3,-0.1,0.23,9.48,-0.125,0.0625,0.0625,-0.009,0.9999,0.0125,0.0054
56:12.3,-0.11,0.27,9.5,0,0.0625,0.0625,-0.009,0.9999,0.0125,0.0054
56:12.3,-0.1,0.24,9.5,-0.0625,0.0625,-0.0625,-0.009,0.9999,0.0125,0.0054
56:12.3,-0.1,0.24,9.5,0.0625,0,0.125,-0.009,0.9999,0.0125,0.0054
56:12.3,-0.08,0.23,9.5,0.125,0,0.125,-0.009,0.9999,0.0125,0.0054
56:12.3,-0.11,0.22,9.47,0.125,0.125,0.0625,-0.009,0.9999,0.0125,0.0054
56:12.3,-0.08,0.24,9.48,0.0625,-0.0625,-0.0625,-0.009,0.9999,0.0125,0.0054
56:12.3,-0.12,0.23,9.51,0.125,-0.0625,0.0625,-0.009,0.9999,0.0125,0.0054
56:12.3,-0.12,0.22,9.5,0.125,0,0,-0.009,0.9999,0.0125,0.0054
56:12.4,-0.12,0.24,9.5,0.125,-0.0625,0,-0.009,0.9999,0.0125,0.0054
56:12.4,-0.11,0.26,9.47,0.125,0.0625,0,-0.009,0.9999,0.0125,0.0054
56:12.4,-0.1,0.24,9.49,-0.0625,-0.125,-0.0625,-0.009,0.9999,0.0125,0.0054
56:12.4,-0.12,0.25,9.5,0,0.1875,0.0625,-0.009,0.9999,0.0125,0.0054
56:12.4,-0.07,0.22,9.5,0,0.0625,-0.125,-0.009,0.9999,0.0125,0.0054
56:12.4,-0.11,0.24,9.52,0,0.125,0,-0.009,0.9999,0.0125,0.0054
56:12.4,-0.1,0.23,9.47,0.125,0.125,0.0625,-0.009,0.9999,0.0125,0.0054
56:12.4,-0.1,0.25,9.5,0.0625,0,0.125,-0.009,0.9999,0.0125,0.0054
56:12.5,-0.09,0.25,9.51,0,-0.0625,0.125,-0.009,0.9999,0.0125,0.0054
56:12.5,-0.09,0.24,9.46,0,-0.1875,0.125,-0.009,0.9999,0.0125,0.0054
56:12.5,-0.1,0.23,9.5,-0.0625,0,-0.0625,-0.009,0.9999,0.0125,0.0054
56:12.5,-0.08,0.26,9.5,-0.0625,0,0,-0.009,0.9999,0.0125,0.0054
56:12.5,-0.1,0.24,9.5,0.125,-0.125,0,-0.009,0.9999,0.0125,0.0054
56:12.5,-0.11,0.23,9.5,0.0625,0.0625,0,-0.009,0.9999,0.0125,0.0054
56:12.5,-0.1,0.24,9.51,-0.0625,0.125,0,-0.009,0.9999,0.0125,0.0054
56:12.5,-0.11,0.25,9.53,0,0.125,-0.0625,-0.009,0.9999,0.0125,0.0054
56:12.5,-0.11,0.24,9.47,-0.125,0.0625,0,-0.009,0.9999,0.0125,0.0054
56:12.5,-0.11,0.23,9.5,-0.0625,0.0625,0.0625,-0.009,0.9999,0.0125,0.0054
56:12.5,-0.1,0.23,9.5,0.1875,0,0,-0.009,0.9999,0.0125,0.0054
56:12.6,-0.11,0.23,9.5,0.0625,-0.1875,0.125,-0.009,0.9999,0.0125,0.0054
56:12.6,-0.12,0.24,9.5,0,-0.0625,-0.0625,-0.009,0.9999,0.0125,0.0054
56:12.6,-0.11,0.23,9.49,0,0.125,0.125,-0.009,0.9999,0.0125,0.0054
56:12.6,-0.1,0.25,9.51,0,0.125,0,-0.009,0.9999,0.0125,0.0054
56:12.6,-0.11,0.26,9.49,0.0625,0.125,0.0625,-0.009,0.9999,0.0125,0.0054
56:12.6,-0.09,0.24,9.51,0.0625,0,0,-0.009,0.9999,0.0125,0.0054
56:12.6,-0.11,0.23,9.49,0,0,0.0625,-0.009,0.9999,0.0125,0.0054
56:12.6,-0.1,0.23,9.46,0.0625,0.0625,-0.0625,-0.009,0.9999,0.0125,0.0054
56:12.6,-0.1,0.23,9.51,0.125,-0.125,0.0625,-0.009,0.9999,0.0125,0.0054
56:12.7,-0.08,0.24,9.51,0,-0.0625,-0.0625,-0.009,0.9999,0.0125,0.0054
56:12.7,-0.11,0.23,9.48,0.125,-0.0625,0.0625,-0.009,0.9999,0.0125,0.0054
56:12.7,-0.11,0.24,9.49,0.0625,-0.125,0.0625,-0.009,0.9999,0.0125,0.0054
56:12.7,-0.1,0.22,9.48,0.0625,0,0.0625,-0.009,0.9999,0.0125,0.0054
56:12.7,-0.11,0.24,9.51,0,0.125,0.0625,-0.009,0.9999,0.0125,0.0054
56:12.7,-0.1,0.24,9.51,0.0625,-0.0625,0.25,-0.009,0.9999,0.0125,0.0054
56:12.7,-0.11,0.25,9.51,0,0,0.0625,-0.009,0.9999,0.0125,0.0054
56:12.7,-0.1,0.23,9.49,0,0.125,0.0625,-0.009,0.9999,0.0125,0.0054
56:12.7,-0.1,0.24,9.51,0.0625,0.125,-0.125,-0.009,0.9999,0.0125,0.0054
56:12.7,-0.11,0.25,9.48,0.1875,0.0625,-0.0625,-0.009,0.9999,0.0125,0.0054
56:12.7,-0.11,0.24,9.53,-0.125,-0.125,0.125,-0.009,0.9999,0.0125,0.0054
56:12.8,-0.09,0.22,9.5,0,0.0625,0,-0.009,0.9999,0.0125,0.0054
56:12.8,-0.09,0.27,9.5,0,0.0625,0,-0.009,0.9999,0.0125,0.0054
56:12.8,-0.1,0.23,9.48,0.1875,0,0.1875,-0.009,0.9999,0.0125,0.0054
56:12.8,-0.1,0.22,9.49,0.0625,0,-0.0625,-0.009,0.9999,0.0125,0.0054
56:12.8,-0.09,0.25,9.51,0,0.125,-0.0625,-0.009,0.9999,0.0125,0.0054
56:12.8,-0.09,0.25,9.51,0.0625,0,-0.0625,-0.009,0.9999,0.0125,0.0054
56:12.8,-0.1,0.26,9.5,0,0,0,-0.009,0.9999,0.0125,0.0054
56:12.8,-0.11,0.23,9.48,0,0.125,-0.125,-0.009,0.9999,0.0125,0.0054
56:12.8,-0.11,0.23,9.5,-0.0625,0.0625,-0.0625,-0.009,0.9999,0.0125,0.0054
56:12.8,-0.11,0.23,9.49,0.0625,0.1875,0,-0.009,0.9999,0.0125,0.0054
56:12.9,-0.11,0.23,9.49,0,0.0625,0.0625,-0.009,0.9999,0.0125,0.0054
56:12.9,-0.11,0.23,9.5,-0.0625,0,0,-0.009,0.9999,0.0125,0.0054
56:12.9,-0.09,0.23,9.47,0.0625,0.0625,-0.125,-0.009,0.9999,0.0125,0.0054
56:12.9,-0.09,0.23,9.47,0,-0.0625,0.0625,-0.009,0.9999,0.0125,0.0054
56:12.9,-0.11,0.25,9.48,-0.0625,-0.0625,0.0625,-0.009,0.9999,0.0125,0.0054
56:12.9,-0.12,0.23,9.52,0.0625,0.0625,0.0625,-0.009,0.9999,0.0125,0.0054
56:12.9,-0.12,0.23,9.55,-0.0625,-0.0625,0,-0.009,0.9999,0.0125,0.0054
56:12.9,-0.1,0.23,9.5,-0.0625,0.125,0.0625,-0.009,0.9999,0.0125,0.0054
56:12.9,-0.11,0.23,9.5,-0.125,0.1875,-0.0625,-0.009,0.9999,0.0125,0.0054
56:12.9,-0.1,0.24,9.5,0.0625,0.0625,0.0625,-0.009,0.9999,0.0125,0.0054
56:13.0,-0.11,0.25,9.51,0.0625,0.0625,0.0625,-0.009,0.9999,0.0125,0.0054
56:13.0,-0.11,0.23,9.51,0.0625,0,-0.0625,-0.009,0.9999,0.0125,0.0054
56:13.0,-0.12,0.24,9.5,0,-0.0625,-0.0625,-0.009,0.9999,0.0125,0.0054
56:13.0,-0.11,0.22,9.48,0,0.0625,0,-0.009,0.9999,0.0125,0.0054
56:13.0,-0.1,0.25,9.52,0,0.0625,0,-0.009,0.9999,0.0125,0.0054
56:13.0,-0.09,0.23,9.51,0.0625,-0.0625,0.125,-0.009,0.9999,0.0125,0.0054
56:13.0,-0.11,0.2,9.5,0.0625,-0.0625,0.125,-0.009,0.9999,0.0125,0.0054
56:13.0,-0.11,0.24,9.46,0.3125,-0.125,0.0625,-0.009,0.9999,0.0125,0.0054
56:13.0,-0.1,0.24,9.46,0,-0.1875,0,-0.009,0.9999,0.0125,0.0054
56:13.0,-0.11,0.23,9.52,0,-0.1875,0,-0.009,0.9999,0.0125,0.0054
56:13.1,-0.1,0.25,9.5,-0.1875,0,-0.125,-0.009,0.9999,0.0125,0.0054
56:13.1,-0.11,0.25,9.5,0.0625,-0.1875,0.0625,-0.009,0.9999,0.0125,0.0054
56:13.1,-0.09,0.25,9.51,-0.0625,0,0.125,-0.009,0.9999,0.0125,0.0054
56:13.1,-0.11,0.24,9.5,0.0625,-0.0625,0.0625,-0.009,0.9999,0.0125,0.0054
56:13.1,-0.11,0.22,9.49,0,0,0.0625,-0.009,0.9999,0.0125,0.0054
56:13.1,-0.09,0.25,9.5,0.0625,-0.125,0.0625,-0.009,0.9999,0.0125,0.0054
56:13.1,-0.09,0.24,9.52,0.0625,-0.25,0.0625,-0.009,0.9999,0.0125,0.0054
56:13.2,-0.1,0.25,9.51,0.125,0,0.125,-0.009,0.9999,0.0125,0.0054
56:13.2,-0.11,0.24,9.47,0.125,-0.125,0,-0.009,0.9999,0.0125,0.0054
56:13.2,-0.11,0.24,9.5,0.0625,-0.0625,-0.1875,-0.009,0.9999,0.0125,0.0054
56:13.2,-0.09,0.24,9.5,-0.0625,-0.125,0.125,-0.009,0.9999,0.0125,0.0054
56:13.2,-0.12,0.24,9.5,0.0625,0,0,-0.009,0.9999,0.0125,0.0054
56:13.3,-0.11,0.22,9.52,-0.0625,-0.0625,-0.0625,-0.009,0.9999,0.0125,0.0054
56:13.3,-0.1,0.23,9.51,-0.125,0,0.125,-0.009,0.9999,0.0125,0.0054
56:13.3,-0.1,0.24,9.46,-0.0625,-0.0625,0,-0.009,0.9999,0.0125,0.0054
56:13.3,-0.08,0.25,9.5,0,0.0625,0.0625,-0.009,0.9999,0.0125,0.0054
56:13.3,-0.09,0.24,9.5,-0.0625,0,-0.0625,-0.009,0.9999,0.0125,0.0054
56:13.3,-0.11,0.26,9.5,0,-0.0625,-0.0625,-0.009,0.9999,0.0125,0.0054
56:13.3,-0.11,0.23,9.49,0.0625,0,0.125,-0.009,0.9999,0.0125,0.0054
56:13.4,-0.11,0.25,9.51,0.0625,-0.1875,0.1875,-0.009,0.9999,0.0125,0.0054
56:13.4,-0.09,0.22,9.48,0.0625,0,0.0625,-0.009,0.9999,0.0125,0.0054
56:13.4,-0.11,0.22,9.51,0.0625,0,0,-0.009,0.9999,0.0125,0.0054
56:13.4,-0.1,0.25,9.5,0,-0.0625,0,-0.009,0.9999,0.0125,0.0054
56:13.4,-0.1,0.22,9.48,0.0625,0.0625,0.1875,-0.009,0.9999,0.0125,0.0054
56:13.4,-0.12,0.24,9.5,0.0625,0,0,-0.009,0.9999,0.0125,0.0054
56:13.5,-0.09,0.24,9.53,-0.0625,0.0625,-0.0625,-0.009,0.9999,0.0125,0.0054
56:13.5,-0.1,0.23,9.48,0.0625,-0.0625,0.0625,-0.009,0.9999,0.0125,0.0054
56:13.5,-0.11,0.23,9.49,0,0.0625,-0.0625,-0.009,0.9999,0.0125,0.0054
56:13.5,-0.11,0.23,9.49,0,0,0.1875,-0.009,0.9999,0.0125,0.0054
56:13.5,-0.1,0.25,9.53,0.125,-0.0625,-0.0625,-0.009,0.9999,0.0125,0.0054
56:13.5,-0.1,0.22,9.53,-0.0625,0.125,0,-0.009,0.9999,0.0125,0.0054
56:13.6,-0.09,0.22,9.51,0.0625,-0.1875,0,-0.009,0.9999,0.0125,0.0054
56:13.6,-0.09,0.24,9.49,0.0625,0.0625,0,-0.009,0.9999,0.0125,0.0054
56:13.6,-0.1,0.24,9.51,0,0.0625,0,-0.009,0.9999,0.0125,0.0054
56:13.6,-0.11,0.25,9.53,0.0625,0.0625,0.0625,-0.009,0.9999,0.0125,0.0054
56:13.6,-0.11,0.23,9.51,0,0,0.125,-0.009,0.9999,0.0125,0.0054
56:13.6,-0.09,0.23,9.5,-0.0625,0,0,-0.009,0.9999,0.0125,0.0054
56:13.6,-0.08,0.24,9.52,-0.0625,-0.0625,0.0625,-0.009,0.9999,0.0125,0.0054
56:13.7,-0.1,0.25,9.51,0.0625,-0.0625,0.0625,-0.009,0.9999,0.0125,0.0054
56:13.7,-0.11,0.23,9.5,0.0625,0.1875,-0.25,-0.009,0.9999,0.0125,0.0054
56:13.7,-0.09,0.25,9.47,0.125,0.1875,0,-0.009,0.9999,0.0125,0.0054
56:13.7,-0.1,0.24,9.5,0,0,0.125,-0.009,0.9999,0.0125,0.0054
56:13.7,-0.08,0.24,9.53,0.0625,0,-0.125,-0.009,0.9999,0.0125,0.0054
56:13.7,-0.09,0.24,9.47,0.0625,-0.0625,0,-0.009,0.9999,0.0125,0.0054
56:13.7,-0.1,0.24,9.48,-0.0625,-0.0625,0.125,-0.009,0.9999,0.0125,0.0054
56:13.7,-0.11,0.24,9.5,0,0,0.0625,-0.009,0.9999,0.0125,0.0054
56:13.7,-0.11,0.22,9.51,0,0,0,-0.009,0.9999,0.0125,0.0054
56:13.8,-0.11,0.25,9.49,0,-0.0625,-0.0625,-0.009,0.9999,0.0125,0.0054
56:13.8,-0.1,0.22,9.51,0.0625,-0.0625,0,-0.009,0.9999,0.0125,0.0054
56:13.8,-0.13,0.24,9.5,0.0625,0.125,0.1875,-0.009,0.9999,0.0125,0.0054
56:13.8,-0.11,0.23,9.48,0,-0.0625,0,-0.009,0.9999,0.0125,0.0054
56:13.8,-0.11,0.24,9.5,0,0,0,-0.009,0.9999,0.0125,0.0054
56:13.8,-0.11,0.22,9.5,0.0625,-0.0625,0.0625,-0.009,0.9999,0.0125,0.0054
56:13.8,-0.1,0.22,9.5,0,-0.0625,0,-0.009,0.9999,0.0125,0.0054
56:13.8,-0.09,0.23,9.5,-0.0625,0.125,-0.0625,-0.009,0.9999,0.0125,0.0054
56:13.8,-0.11,0.25,9.48,0,0,0.0625,-0.009,0.9999,0.0125,0.0054
56:13.9,-0.1,0.23,9.5,0.125,0.0625,0.0625,-0.009,0.9999,0.0125,0.0054
56:13.9,-0.1,0.22,9.51,0,0,0.125,-0.009,0.9999,0.0125,0.0054
56:13.9,-0.11,0.24,9.5,0,-0.0625,0.125,-0.009,0.9999,0.0125,0.0054
56:13.9,-0.11,0.24,9.45,0,-0.125,0.1875,-0.009,0.9999,0.0125,0.0054
56:13.9,-0.1,0.24,9.52,0.0625,-0.0625,0,-0.009,0.9999,0.0125,0.0054
56:13.9,-0.1,0.23,9.47,0,0.125,0.0625,-0.009,0.9999,0.0125,0.0054
56:13.9,-0.09,0.22,9.52,0.0625,0.125,0.125,-0.009,0.9999,0.0125,0.0054
56:13.9,-0.09,0.23,9.51,-0.0625,0,-0.0625,-0.009,0.9999,0.0125,0.0054
56:13.9,-0.1,0.23,9.47,-0.125,0.0625,-0.1875,-0.009,0.9999,0.0125,0.0054
56:13.9,-0.11,0.26,9.5,0.125,-0.125,0,-0.009,0.9999,0.0125,0.0054
56:14.0,-0.11,0.24,9.51,0,-0.0625,-0.0625,-0.009,0.9999,0.0125,0.0054
56:14.0,-0.11,0.22,9.5,-0.125,0.0625,-0.0625,-0.009,0.9999,0.0125,0.0054
56:14.0,-0.11,0.23,9.5,0,0.0625,-0.0625,-0.009,0.9999,0.0125,0.0054
56:14.0,-0.11,0.25,9.48,0,0.0625,-0.0625,-0.009,0.9999,0.0125,0.0054
56:14.0,-0.11,0.25,9.47,-0.125,0.125,-0.125,-0.009,0.9999,0.0125,0.0054
56:14.0,-0.08,0.24,9.49,0.0625,-0.125,-0.0625,-0.009,0.9999,0.0125,0.0054
56:14.0,-0.12,0.22,9.5,-0.0625,0.125,-0.125,-0.009,0.9999,0.0125,0.0054
56:14.0,-0.1,0.24,9.53,0.0625,-0.125,0,-0.009,0.9999,0.0125,0.0054
56:14.0,-0.12,0.23,9.5,-0.0625,0.0625,0,-0.009,0.9999,0.0125,0.0054
56:14.0,-0.11,0.24,9.5,0.0625,0.0625,0,-0.009,0.9999,0.0125,0.0054
56:14.0,-0.11,0.24,9.52,-0.125,0,0,-0.009,0.9999,0.0125,0.0054
56:14.1,-0.1,0.25,9.5,0.0625,0.0625,-0.125,-0.009,0.9999,0.0125,0.0054
56:14.1,-0.1,0.24,9.5,-0.125,0,-0.0625,-0.009,0.9999,0.0125,0.0054
56:14.1,-0.1,0.24,9.5,-0.0625,0,0,-0.009,0.9999,0.0125,0.0054
56:14.1,-0.11,0.24,9.5,0,-0.1875,-0.125,-0.009,0.9999,0.0125,0.0054
56:14.1,-0.1,0.23,9.53,0.0625,0,-0.125,-0.009,0.9999,0.0125,0.0054
56:14.1,-0.1,0.23,9.51,-0.0625,0.0625,-0.0625,-0.009,0.9999,0.0125,0.0054
56:14.1,-0.1,0.22,9.51,-0.0625,0,-0.125,-0.009,0.9999,0.0125,0.0054
56:14.1,-0.1,0.25,9.5,0.0625,-0.125,-0.0625,-0.009,0.9999,0.0125,0.0054
56:14.1,-0.11,0.23,9.5,0,-0.0625,0.125,-0.009,0.9999,0.0125,0.0054
56:14.2,-0.11,0.24,9.52,-0.0625,0,0.1875,-0.009,0.9999,0.0125,0.0054
56:14.2,-0.1,0.25,9.51,-0.0625,0,-0.125,-0.009,0.9999,0.0125,0.0054
56:14.2,-0.11,0.23,9.51,-0.125,0,-0.0625,-0.009,0.9999,0.0125,0.0054
56:14.2,-0.1,0.23,9.49,0.0625,0,0,-0.009,0.9999,0.0125,0.0054
56:14.2,-0.1,0.24,9.51,0,0.0625,0,-0.009,0.9999,0.0125,0.0054
56:14.2,-0.09,0.25,9.51,-0.0625,-0.0625,0,-0.009,0.9999,0.0125,0.0054
56:14.2,-0.11,0.23,9.49,0,0,-0.125,-0.009,0.9999,0.0125,0.0054
56:14.2,-0.09,0.25,9.49,0.1875,-0.1875,0,-0.009,0.9999,0.0125,0.0054
56:14.2,-0.11,0.23,9.49,0.0625,0,-0.0625,-0.009,0.9999,0.0125,0.0054
56:14.2,-0.1,0.23,9.5,0.0625,-0.0625,-0.0625,-0.009,0.9999,0.0125,0.0054
56:14.2,-0.1,0.25,9.5,0,-0.125,0.0625,-0.009,0.9999,0.0125,0.0054
56:14.3,-0.1,0.22,9.51,-0.0625,-0.0625,-0.125,-0.009,0.9999,0.0125,0.0054
56:14.3,-0.1,0.24,9.5,-0.0625,0.0625,-0.125,-0.009,0.9999,0.0125,0.0054
56:14.3,-0.1,0.25,9.47,0,0,-0.0625,-0.009,0.9999,0.0125,0.0054
56:14.3,-0.11,0.22,9.5,0,-0.0625,0.0625,-0.009,0.9999,0.0125,0.0054
56:14.3,-0.11,0.24,9.52,-0.0625,-0.0625,-0.125,-0.009,0.9999,0.0125,0.0054
56:14.3,-0.1,0.25,9.5,0,0.0625,0,-0.009,0.9999,0.0125,0.0054
56:14.3,-0.12,0.23,9.49,0.0625,0.1875,-0.1875,-0.009,0.9999,0.0125,0.0054
56:14.3,-0.12,0.24,9.49,0,-0.0625,-0.0625,-0.009,0.9999,0.0125,0.0054
56:14.3,-0.09,0.24,9.5,-0.1875,-0.0625,-0.0625,-0.009,0.9999,0.0125,0.0054
56:14.3,-0.1,0.25,9.51,-0.125,0.0625,-0.125,-0.009,0.9999,0.0125,0.0054
56:14.4,-0.1,0.23,9.52,-0.0625,0,-0.0625,-0.009,0.9999,0.0125,0.0054
56:14.4,-0.11,0.22,9.52,-0.0625,0.0625,-0.0625,-0.009,0.9999,0.0125,0.0054
56:14.4,-0.1,0.26,9.47,-0.0625,-0.125,0.0625,-0.009,0.9999,0.0125,0.0054
56:14.4,-0.1,0.22,9.51,0.0625,0,-0.0625,-0.009,0.9999,0.0125,0.0054
56:14.4,-0.11,0.24,9.51,0,0,0,-0.009,0.9999,0.0125,0.0054
56:14.4,-0.11,0.23,9.5,-0.0625,0,0,-0.009,0.9999,0.0125,0.0054
56:14.4,-0.1,0.22,9.47,0.0625,-0.125,0.125,-0.009,0.9999,0.0125,0.0054
56:14.4,-0.09,0.24,9.5,0.0625,0,0.0625,-0.009,0.9999,0.0125,0.0054
56:14.4,-0.11,0.24,9.5,-0.125,-0.0625,0,-0.009,0.9999,0.0125,0.0054
56:14.4,-0.11,0.23,9.51,0,0,-0.0625,-0.009,0.9999,0.0125,0.0054
56:14.5,-0.11,0.25,9.5,-0.0625,-0.0625,0.125,-0.009,0.9999,0.0125,0.0054
56:14.5,-0.1,0.22,9.52,0,0,-0.0625,-0.009,0.9999,0.0125,0.0054
56:14.5,-0.11,0.23,9.48,0.1875,-0.0625,0.0625,-0.009,0.9999,0.0125,0.0054
56:14.5,-0.1,0.25,9.48,0,0.125,0.0625,-0.009,0.9999,0.0125,0.0054
56:14.5,-0.11,0.23,9.52,-0.125,0.125,-0.0625,-0.009,0.9999,0.0125,0.0054
56:14.5,-0.1,0.27,9.51,0,0,-0.0625,-0.009,0.9999,0.0125,0.0054
56:14.5,-0.11,0.23,9.5,-0.125,0,0.1875,-0.009,0.9999,0.0125,0.0054
56:14.5,-0.1,0.24,9.48,0.0625,0.1875,0.0625,-0.009,0.9999,0.0125,0.0054
56:14.5,-0.1,0.25,9.52,-0.0625,0.0625,0,-0.009,0.9999,0.0125,0.0054
56:14.5,-0.1,0.26,9.51,0,-0.0625,0.0625,-0.009,0.9999,0.0125,0.0054
56:14.6,-0.11,0.24,9.51,-0.125,0,0.125,-0.009,0.9999,0.0125,0.0054
56:14.6,-0.11,0.24,9.51,-0.125,0.0625,0.0625,-0.009,0.9999,0.0125,0.0054
56:14.6,-0.11,0.22,9.48,0,0.0625,-0.0625,-0.009,0.9999,0.0125,0.0054
56:14.6,-0.09,0.23,9.49,0,0,-0.0625,-0.009,0.9999,0.0125,0.0054
56:14.6,-0.1,0.25,9.5,-0.0625,0,0.125,-0.009,0.9999,0.0125,0.0054
56:14.6,-0.09,0.22,9.5,0.0625,0,0,-0.009,0.9999,0.0125,0.0054
56:14.6,-0.11,0.22,9.51,-0.125,-0.0625,-0.0625,-0.009,0.9999,0.0125,0.0054
56:14.6,-0.09,0.22,9.49,0.0625,0,0,-0.009,0.9999,0.0125,0.0054
56:14.6,-0.09,0.22,9.5,-0.0625,0.125,-0.0625,-0.009,0.9999,0.0125,0.0054
56:14.7,-0.1,0.23,9.51,-0.1875,0.0625,0,-0.009,0.9999,0.0125,0.0054
56:14.7,-0.09,0.23,9.5,-0.125,0,0.0625,-0.009,0.9999,0.0125,0.0054
56:14.7,-0.09,0.22,9.52,0,0.0625,0,-0.009,0.9999,0.0125,0.0054
56:14.7,-0.11,0.24,9.5,0,0,0,-0.009,0.9999,0.0125,0.0054
56:14.7,-0.11,0.24,9.5,-0.125,0,0.125,-0.009,0.9999,0.0125,0.0054
56:14.7,-0.09,0.24,9.5,0,0.125,-0.0625,-0.009,0.9999,0.0125,0.0054
56:14.7,-0.11,0.25,9.52,0.0625,0,0.0625,-0.009,0.9999,0.0125,0.0054
56:14.7,-0.11,0.23,9.48,-0.125,-0.0625,0.125,-0.009,0.9999,0.0125,0.0054
56:14.8,-0.1,0.25,9.47,-0.0625,0,0,-0.009,0.9999,0.0125,0.0054
56:14.8,-0.09,0.25,9.5,-0.125,0.0625,0.0625,-0.009,0.9999,0.0125,0.0054
56:14.8,-0.11,0.24,9.5,0,-0.125,0.0625,-0.009,0.9999,0.0125,0.0054
56:14.8,-0.1,0.25,9.49,0.125,-0.0625,0.125,-0.009,0.9999,0.0125,0.0054
56:14.8,-0.11,0.25,9.5,0,0.0625,-0.0625,-0.009,0.9999,0.0125,0.0054
56:14.8,-0.1,0.23,9.5,0,0.0625,0,-0.009,0.9999,0.0125,0.0054
56:14.8,-0.1,0.23,9.51,-0.1875,-0.0625,0.0625,-0.009,0.9999,0.0125,0.0054
56:14.8,-0.11,0.22,9.5,-0.125,0,0.0625,-0.009,0.9999,0.0125,0.0054
56:14.8,-0.11,0.25,9.5,-0.125,0,0.125,-0.009,0.9999,0.0125,0.0054
56:14.8,-0.11,0.23,9.5,0,-0.0625,0.0625,-0.009,0.9999,0.0125,0.0054
56:14.8,-0.11,0.24,9.47,0,-0.1875,0.0625,-0.009,0.9999,0.0125,0.0054
56:14.8,-0.09,0.25,9.5,-0.0625,0.1875,0,-0.009,0.9999,0.0125,0.0054
56:14.8,-0.1,0.23,9.5,-0.0625,0.0625,0.125,-0.009,0.9999,0.0125,0.0054
56:14.9,-0.1,0.22,9.51,0,0,0.0625,-0.009,0.9999,0.0125,0.0054
56:14.9,-0.11,0.25,9.48,0,0,0,-0.009,0.9999,0.0125,0.0054
56:14.9,-0.1,0.26,9.5,0.1875,-0.25,0.0625,-0.009,0.9999,0.0125,0.0054
56:14.9,-0.08,0.23,9.52,0,-0.0625,0,-0.009,0.9999,0.0125,0.0054
56:14.9,-0.11,0.25,9.5,0.0625,0.125,0.0625,-0.009,0.9999,0.0125,0.0054
56:14.9,-0.1,0.24,9.52,0.0625,0.0625,-0.0625,-0.009,0.9999,0.0125,0.0054
56:14.9,-0.09,0.24,9.52,0.0625,0,-0.0625,-0.009,0.9999,0.0125,0.0054
56:14.9,-0.09,0.23,9.48,-0.0625,0.0625,0,-0.009,0.9999,0.0125,0.0054
56:14.9,-0.1,0.26,9.48,-0.125,0.125,0,-0.009,0.9999,0.0125,0.0054
56:14.9,-0.1,0.23,9.5,-0.0625,0.0625,0.0625,-0.009,0.9999,0.0125,0.0054
56:15.0,-0.1,0.22,9.51,0,0.0625,0,-0.009,0.9999,0.0125,0.0054
56:15.0,-0.13,0.25,9.5,-0.125,0,-0.0625,-0.009,0.9999,0.0125,0.0054
56:15.0,-0.1,0.24,9.47,-0.0625,0.0625,-0.125,-0.009,0.9999,0.0125,0.0054
56:15.0,-0.1,0.24,9.52,-0.0625,0,0,-0.009,0.9999,0.0125,0.0054
56:15.0,-0.11,0.22,9.49,0,0.125,-0.0625,-0.009,0.9999,0.0125,0.0054
56:15.0,-0.1,0.24,9.51,-0.125,0.0625,-0.0625,-0.009,0.9999,0.0125,0.0054
56:15.0,-0.11,0.25,9.5,-0.0625,-0.125,0.125,-0.009,0.9999,0.0125,0.0054
56:15.0,-0.1,0.24,9.48,-0.1875,0.0625,0.125,-0.009,0.9999,0.0125,0.0054
56:15.0,-0.11,0.22,9.48,0.0625,0.125,-0.125,-0.009,0.9999,0.0125,0.0054
56:15.0,-0.11,0.24,9.51,-0.125,-0.0625,-0.0625,-0.009,0.9999,0.0125,0.0054
56:15.1,-0.09,0.24,9.51,0,0.0625,0,-0.009,0.9999,0.0125,0.0054
56:15.1,-0.11,0.22,9.49,0.1875,-0.125,0.0625,-0.009,0.9999,0.0125,0.0054
56:15.1,-0.11,0.25,9.48,0.0625,-0.0625,0,-0.009,0.9999,0.0125,0.0054
56:15.1,-0.12,0.22,9.48,0,-0.125,-0.0625,-0.009,0.9999,0.0125,0.0054
56:15.1,-0.11,0.23,9.5,0.0625,-0.0625,0,-0.009,0.9999,0.0125,0.0054
56:15.1,-0.11,0.25,9.52,0.0625,0.0625,-0.0625,-0.009,0.9999,0.0125,0.0054
56:15.1,-0.11,0.23,9.51,0,0.125,-0.125,-0.009,0.9999,0.0125,0.0054
56:15.1,-0.09,0.23,9.49,-0.0625,0,-0.0625,-0.009,0.9999,0.0125,0.0054
56:15.1,-0.1,0.22,9.48,-0.125,0,-0.0625,-0.009,0.9999,0.0125,0.0054
56:15.1,-0.11,0.22,9.52,0,-0.125,0.0625,-0.009,0.9999,0.0125,0.0054
56:15.2,-0.11,0.23,9.5,0.125,0.125,0,-0.009,0.9999,0.0125,0.0054
56:15.2,-0.12,0.23,9.49,-0.125,0,-0.0625,-0.009,0.9999,0.0125,0.0054
56:15.2,-0.09,0.25,9.48,0,-0.1875,0.0625,-0.009,0.9999,0.0125,0.0054
56:15.2,-0.1,0.26,9.53,0,-0.0625,-0.0625,-0.009,0.9999,0.0125,0.0054
56:15.2,-0.1,0.23,9.48,0,0,-0.1875,-0.009,0.9999,0.0125,0.0054
56:15.2,-0.1,0.23,9.48,-0.125,0,0.125,-0.009,0.9999,0.0125,0.0054
56:15.2,-0.1,0.24,9.51,0.0625,0.125,0,-0.009,0.9999,0.0125,0.0054
56:15.2,-0.09,0.26,9.49,-0.125,0.125,0.0625,-0.009,0.9999,0.0125,0.0054
56:15.2,-0.11,0.25,9.5,0,-0.0625,0,-0.009,0.9999,0.0125,0.0054
56:15.2,-0.1,0.24,9.53,0,0,-0.125,-0.009,0.9999,0.0125,0.0054
56:15.3,-0.1,0.24,9.53,0,0,0,-0.009,0.9999,0.0125,0.0054
56:15.3,-0.1,0.23,9.5,0,-0.0625,0,-0.009,0.9999,0.0125,0.0054
56:15.3,-0.11,0.23,9.47,-0.0625,0.0625,0,-0.009,0.9999,0.0125,0.0054
56:15.3,-0.11,0.24,9.45,0.0625,-0.1875,0,-0.009,0.9999,0.0125,0.0054
56:15.3,-0.1,0.23,9.5,0.0625,-0.125,0,-0.009,0.9999,0.0125,0.0054
56:15.3,-0.1,0.23,9.5,0.0625,-0.0625,-0.125,-0.009,0.9999,0.0125,0.0054
56:15.3,-0.12,0.22,9.5,0.0625,-0.0625,-0.0625,-0.009,0.9999,0.0125,0.0054
56:15.3,-0.09,0.25,9.5,0.0625,0.125,-0.0625,-0.009,0.9999,0.0125,0.0054
56:15.3,-0.09,0.25,9.5,0,0,-0.125,-0.009,0.9999,0.0125,0.0054
56:15.4,-0.11,0.23,9.5,-0.125,-0.125,0,-0.009,0.9999,0.0125,0.0054
56:15.4,-0.09,0.23,9.49,0,0.0625,-0.125,-0.009,0.9999,0.0125,0.0054
56:15.4,-0.13,0.22,9.5,0,0.0625,-0.0625,-0.009,0.9999,0.0125,0.0054
56:15.4,-0.1,0.23,9.49,0,-0.0625,0.125,-0.009,0.9999,0.0125,0.0054
56:15.4,-0.11,0.24,9.51,0.0625,0,0.0625,-0.009,0.9999,0.0125,0.0054
56:15.4,-0.11,0.25,9.46,0.0625,0,0.0625,-0.009,0.9999,0.0125,0.0054
56:15.4,-0.11,0.25,9.49,0.0625,0,0.0625,-0.009,0.9999,0.0125,0.0054
56:15.4,-0.1,0.24,9.5,0.0625,-0.125,0.0625,-0.009,0.9999,0.0125,0.0054
56:15.4,-0.11,0.24,9.48,0,0.0625,0,-0.009,0.9999,0.0125,0.0054
56:15.4,-0.1,0.22,9.48,0,0.0625,0.0625,-0.009,0.9999,0.0125,0.0054
56:15.5,-0.08,0.24,9.47,0,0.125,-0.0625,-0.009,0.9999,0.0125,0.0054
56:15.5,-0.08,0.22,9.51,-0.125,0,-0.0625,-0.009,0.9999,0.0125,0.0054
56:15.5,-0.11,0.22,9.51,0.0625,0,0.0625,-0.009,0.9999,0.0125,0.0054
56:15.5,-0.09,0.23,9.52,-0.0625,-0.0625,0,-0.009,0.9999,0.0125,0.0054
56:15.5,-0.1,0.23,9.5,-0.0625,0.0625,-0.0625,-0.009,0.9999,0.0125,0.0054
56:15.5,-0.1,0.26,9.51,0,-0.0625,0,-0.009,0.9999,0.0125,0.0054
56:15.5,-0.11,0.25,9.51,0,-0.0625,0,-0.009,0.9999,0.0125,0.0054
56:15.5,-0.12,0.23,9.49,0.0625,-0.0625,-0.125,-0.009,0.9999,0.0125,0.0054
56:15.5,-0.1,0.23,9.49,0,0.0625,-0.0625,-0.009,0.9999,0.0125,0.0054
56:15.6,-0.1,0.23,9.51,0,-0.0625,0,-0.009,0.9999,0.0125,0.0054
56:15.6,-0.11,0.25,9.5,-0.125,0.125,-0.125,-0.009,0.9999,0.0125,0.0054
56:15.6,-0.1,0.25,9.49,0,0.125,0,-0.009,0.9999,0.0125,0.0054
56:15.6,-0.1,0.24,9.5,-0.0625,-0.125,0,-0.009,0.9999,0.0125,0.0054
56:15.6,-0.11,0.24,9.49,0,0.125,-0.1875,-0.009,0.9999,0.0125,0.0054
56:15.6,-0.09,0.24,9.49,0,-0.0625,0,-0.009,0.9999,0.0125,0.0054
56:15.6,-0.12,0.25,9.51,-0.0625,0.125,-0.125,-0.009,0.9999,0.0125,0.0054
56:15.7,-0.11,0.21,9.48,-0.125,0,-0.0625,-0.009,0.9999,0.0125,0.0054
56:15.7,-0.1,0.23,9.5,0.0625,-0.1875,0,-0.009,0.9999,0.0125,0.0054
56:15.7,-0.11,0.22,9.48,0.0625,-0.1875,0.125,-0.009,0.9999,0.0125,0.0054
56:15.7,-0.1,0.24,9.5,-0.0625,0.1875,-0.0625,-0.009,0.9999,0.0125,0.0054
56:15.7,-0.1,0.26,9.51,-0.0625,0.125,0,-0.009,0.9999,0.0125,0.0054
56:15.7,-0.12,0.23,9.48,-0.125,0,0.0625,-0.009,0.9999,0.0125,0.0054
56:15.8,-0.1,0.22,9.49,0,0.0625,0,-0.009,0.9999,0.0125,0.0054
56:15.8,-0.12,0.24,9.5,0.0625,-0.0625,0,-0.009,0.9999,0.0125,0.0054
