A1,,,,,,,,,,,
time,accx,accy,accz,gyrox,gyroy,gyroz,w1,w2,w3,w4,
2025-03-08 23:13:57.778,-0.0500,0.1800,9.5300,-0.0625,-0.1250,0.0625,0.3750,-0.5000,0.0000,265.3750,
2025-03-08 23:13:57.846,-0.0500,0.1700,9.5400,-0.0625,0.0000,0.0000,0.3750,-0.5000,0.0000,265.3750,
2025-03-08 23:13:57.846,-0.0600,0.1900,9.5200,0.0000,0.0000,-0.0625,0.3750,-0.5000,0.0000,265.3750,
2025-03-08 23:13:57.847,-0.0800,0.1900,9.5300,0.0000,0.0625,-0.1250,0.3750,-0.5625,0.0000,265.3750,
2025-03-08 23:13:57.847,-0.0800,0.2000,9.5100,0.0000,0.1875,-0.0625,0.3125,-0.5625,0.0000,265.3750,
2025-03-08 23:13:57.862,-0.0700,0.1700,9.5000,0.0625,0.0000,0.0000,0.3125,-0.5625,0.0000,265.3750,
2025-03-08 23:13:57.879,-0.0800,0.2000,9.5100,-0.0625,-0.1250,0.1250,0.3125,-0.5625,0.0000,265.3750,
2025-03-08 23:13:57.897,-0.0700,0.2000,9.5100,0.0625,0.0000,0.0000,0.3125,-0.5625,0.0000,265.3750,
2025-03-08 23:13:57.908,-0.0600,0.1900,9.5200,-0.0625,-0.1250,0.0625,0.3125,-0.5625,0.0000,265.3750,
2025-03-08 23:13:57.930,-0.0700,0.1900,9.5100,-0.0625,0.0625,0.1250,0.3125,-0.5625,0.0000,265.3750,
2025-03-08 23:13:57.953,-0.0600,0.1800,9.5300,-0.1250,-0.0625,0.0000,0.3125,-0.5625,0.0000,265.3750,
2025-03-08 23:13:57.962,-0.0800,0.1900,9.5000,0.0000,0.0625,0.0000,0.3125,-0.5625,0.0000,265.3750,
2025-03-08 23:13:57.982,-0.0600,0.1900,9.5200,-0.0625,0.0000,0.0000,0.3125,-0.5625,0.0000,265.3750,
2025-03-08 23:13:58.035,-0.0700,0.1900,9.5100,0.1250,-0.1250,0.1250,0.2500,-0.6250,0.0000,265.3750,
2025-03-08 23:13:58.035,-0.0700,0.1800,9.5300,-0.1875,0.0000,0.0000,0.2500,-0.6250,0.0000,265.3750,
2025-03-08 23:13:58.035,-0.0500,0.2000,9.4900,0.0000,-0.1250,-0.0625,0.2500,-0.6250,0.0000,265.3750,
2025-03-08 23:13:58.049,-0.0600,0.1800,9.5200,-0.0625,0.0625,0.1250,0.2500,-0.6250,0.0000,265.3750,
2025-03-08 23:13:58.062,-0.0600,0.1800,9.5100,0.0000,0.0000,0.1250,0.2500,-0.6250,0.0000,265.3750,
2025-03-08 23:13:58.078,-0.0900,0.1900,9.5100,0.0000,0.0000,0.0625,0.2500,-0.6250,0.0000,265.3750,
2025-03-08 23:13:58.097,-0.0600,0.1900,9.5300,-0.0625,0.0000,0.0625,0.2500,-0.6250,0.0000,265.3750,
2025-03-08 23:13:58.110,-0.0500,0.2200,9.5300,0.0000,0.0000,0.1875,0.2500,-0.6250,0.0000,265.3750,
2025-03-08 23:13:58.133,-0.0700,0.1800,9.4900,-0.1250,0.0000,-0.0625,0.2500,-0.6250,0.0000,265.3750,
2025-03-08 23:13:58.153,-0.0800,0.2000,9.5300,-0.0625,-0.1250,0.0625,0.2500,-0.6250,0.0000,265.3750,
2025-03-08 23:13:58.162,-0.0600,0.1900,9.5000,-0.0625,0.0625,-0.0625,0.2500,-0.6250,0.0000,265.3750,
2025-03-08 23:13:58.194,-0.0700,0.1900,9.5000,-0.0625,-0.1875,-0.0625,0.1875,-0.6250,0.0000,265.3750,
2025-03-08 23:13:58.205,-0.0700,0.1900,9.5200,-0.0625,-0.0625,0.0625,0.1875,-0.6250,0.0000,265.3750,
2025-03-08 23:13:58.215,-0.0600,0.1900,9.5200,0.0000,0.0000,0.0625,0.1875,-0.6250,0.0000,265.3750,
2025-03-08 23:13:58.230,-0.0600,0.2100,9.5000,0.0000,0.0625,0.0000,0.1875,-0.6250,0.0000,265.3750,
2025-03-08 23:13:58.247,-0.0600,0.2000,9.5000,0.0625,0.0000,0.1875,0.1875,-0.6875,0.0000,265.3750,
2025-03-08 23:13:58.262,-0.0500,0.1800,9.5100,0.0625,0.0625,0.0625,0.1875,-0.6875,0.0000,265.3750,
2025-03-08 23:13:58.282,-0.0800,0.2000,9.5000,0.0000,0.0000,0.0000,0.1875,-0.6875,0.0000,265.3750,
2025-03-08 23:13:58.335,-0.0600,0.1900,9.5100,0.0000,0.0625,0.0000,0.1875,-0.6875,0.0000,265.3750,
2025-03-08 23:13:58.335,-0.0500,0.2000,9.5000,0.0000,0.0000,-0.1250,0.1875,-0.6875,0.0000,265.3750,
2025-03-08 23:13:58.335,-0.0700,0.2000,9.5300,0.0625,0.0000,0.0000,0.1875,-0.6875,0.0000,265.3750,
2025-03-08 23:13:58.341,-0.0600,0.1900,9.5200,0.0625,0.0625,0.0000,0.1875,-0.6875,0.0000,265.3750,
2025-03-08 23:13:58.360,-0.0700,0.1800,9.5400,-0.0625,0.0000,-0.1250,0.1875,-0.6875,0.0000,265.3750,
2025-03-08 23:13:58.378,-0.0700,0.1700,9.5000,0.0625,0.1250,0.1250,0.1250,-0.6875,0.0000,265.3750,
2025-03-08 23:13:58.395,-0.0500,0.2000,9.5100,-0.1875,-0.0625,0.0000,0.1250,-0.6875,0.0000,265.3750,
2025-03-08 23:13:58.408,-0.0700,0.2000,9.5100,0.0625,0.1250,0.0000,0.1250,-0.6875,0.0000,265.3750,
2025-03-08 23:13:58.423,-0.0500,0.2100,9.4900,0.0625,0.0625,0.0000,0.1250,-0.6875,0.0000,265.3750,
2025-03-08 23:13:58.437,-0.0600,0.1900,9.5300,0.0000,-0.0625,-0.0625,0.1250,-0.6875,0.0000,265.3750,
2025-03-08 23:13:58.449,-0.0500,0.2000,9.5000,0.0000,0.0625,0.0000,0.1250,-0.6875,0.0000,265.3750,
2025-03-08 23:13:58.460,-0.0500,0.1900,9.5200,-0.1250,0.1875,0.0000,0.1250,-0.6875,0.0000,265.3750,
2025-03-08 23:13:58.478,-0.0600,0.2100,9.4700,-0.0625,-0.0625,0.0625,0.1250,-0.6875,0.0000,265.3750,
2025-03-08 23:13:58.497,-0.0600,0.1800,9.5400,0.0625,-0.1250,0.0625,0.1250,-0.6875,0.0000,265.3750,
2025-03-08 23:13:58.509,-0.0700,0.1800,9.5200,0.0000,-0.0625,0.1875,0.1250,-0.6875,0.0000,265.3750,
2025-03-08 23:13:58.520,-0.0800,0.1800,9.5300,-0.0625,-0.0625,0.1250,0.1250,-0.6875,0.0000,265.3750,
2025-03-08 23:13:58.538,-0.0700,0.1700,9.5100,0.0625,0.0625,0.0000,0.1250,-0.6875,0.0000,265.3750,
2025-03-08 23:13:58.546,-0.0600,0.2000,9.5300,-0.0625,0.1250,0.0625,0.1250,-0.6875,0.0000,265.3750,
2025-03-08 23:13:58.557,-0.0700,0.1800,9.5200,0.0625,0.1875,0.0000,0.1250,-0.6875,0.0000,265.3750,
2025-03-08 23:13:58.571,-0.0700,0.1900,9.5000,-0.0625,0.0000,-0.0625,0.1250,-0.6875,0.0000,265.3750,
2025-03-08 23:13:58.584,-0.0600,0.1800,9.5000,-0.0625,0.0625,-0.0625,0.1250,-0.6875,0.0000,265.3750,
2025-03-08 23:13:58.587,-0.0500,0.1800,9.4800,-0.0625,0.0000,0.0000,0.1250,-0.6875,0.0000,265.3750,
2025-03-08 23:13:58.631,-0.0700,0.2000,9.5300,0.0625,-0.0625,0.0000,0.1250,-0.6875,0.0000,265.3750,
2025-03-08 23:13:58.631,-0.0700,0.1800,9.5000,-0.1250,0.0625,0.1250,0.1250,-0.6875,0.0000,265.3750,
2025-03-08 23:13:58.633,-0.0500,0.2100,9.5000,-0.0625,0.1250,0.0625,0.1250,-0.6875,0.0000,265.3750,
2025-03-08 23:13:58.633,-0.0500,0.2100,9.4900,-0.0625,0.0000,0.0000,0.1250,-0.6875,0.0000,265.3750,
2025-03-08 23:13:58.637,-0.0500,0.1900,9.5200,-0.1875,0.1250,-0.0625,0.1250,-0.6875,0.0000,265.3750,
2025-03-08 23:13:58.650,-0.0700,0.1700,9.5300,0.0000,0.0625,0.0625,0.1250,-0.6875,0.0000,265.3750,
2025-03-08 23:13:58.656,-0.0600,0.1900,9.5200,-0.0625,0.0625,-0.0625,0.1250,-0.6875,0.0000,265.3750,
2025-03-08 23:13:58.666,-0.0800,0.2000,9.5300,0.1250,0.1250,0.0625,0.1250,-0.6875,0.0000,265.3750,
2025-03-08 23:13:58.683,-0.0700,0.1900,9.4800,0.0625,0.0000,-0.0625,0.1250,-0.6875,0.0000,265.3750,
2025-03-08 23:13:58.686,-0.0700,0.1800,9.5100,0.0000,0.1250,-0.0625,0.1250,-0.6875,0.0000,265.3750,
2025-03-08 23:13:58.702,-0.0500,0.2100,9.5300,-0.0625,0.0000,0.0000,0.1250,-0.6875,0.0000,265.3750,
2025-03-08 23:13:58.709,-0.0700,0.2000,9.5200,0.0000,0.0000,-0.1250,0.1250,-0.6875,0.0000,265.3750,
2025-03-08 23:13:58.718,-0.0700,0.2100,9.5000,0.0000,0.1250,0.0000,0.1250,-0.6875,0.0000,265.3750,
2025-03-08 23:13:58.727,-0.0700,0.1900,9.5000,0.0625,-0.1250,-0.1250,0.1250,-0.6875,0.0000,265.3750,
2025-03-08 23:13:58.736,-0.0600,0.1900,9.4800,-0.0625,-0.1250,0.0625,0.1250,-0.6875,0.0000,265.3750,
2025-03-08 23:13:58.750,-0.0600,0.1900,9.5000,0.0625,0.0000,0.0000,0.1250,-0.6875,0.0000,265.3750,
2025-03-08 23:13:58.756,-0.0800,0.1900,9.5500,0.0625,0.0000,-0.1250,0.1250,-0.6875,0.0000,265.3750,
2025-03-08 23:13:58.780,-0.0700,0.2100,9.5500,0.0625,0.0625,0.0625,0.1250,-0.6875,0.0000,265.3750,
2025-03-08 23:13:58.780,-0.0600,0.1800,9.4800,0.0000,0.1250,0.0625,0.1250,-0.6875,0.0000,265.3750,
2025-03-08 23:13:58.786,-0.0700,0.1800,9.5300,0.0625,0.0000,0.0000,0.1250,-0.6875,0.0000,265.3750,
2025-03-08 23:13:58.801,-0.0600,0.2000,9.5100,-0.0625,0.0000,0.1250,0.1250,-0.6875,0.0000,265.3750,
2025-03-08 23:13:58.821,-0.0600,0.2000,9.5300,0.1250,-0.0625,-0.0625,0.1250,-0.6875,0.0000,265.3750,
2025-03-08 23:13:58.821,-0.0400,0.1800,9.5000,0.0000,-0.1250,0.0625,0.1250,-0.6875,0.0000,265.3750,
2025-03-08 23:13:58.827,-0.0700,0.1700,9.5000,-0.1875,-0.0625,0.0000,0.1250,-0.6875,0.0000,265.3750,
2025-03-08 23:13:58.840,-0.0800,0.1900,9.5300,-0.0625,0.1250,0.0625,0.1250,-0.6875,0.0000,265.3750,
2025-03-08 23:13:58.855,-0.0500,0.1900,9.5100,0.1250,0.0000,0.0625,0.1250,-0.6875,0.0000,265.3750,
2025-03-08 23:13:58.859,-0.0700,0.2000,9.5000,-0.1250,0.0625,-0.0625,0.1250,-0.6875,0.0000,265.3750,
2025-03-08 23:13:58.867,-0.0500,0.2000,9.5000,0.0000,0.0625,0.0000,0.1250,-0.6875,0.0000,265.3750,
2025-03-08 23:13:58.877,-0.0700,0.1800,9.4600,0.0625,-0.0625,0.0625,0.1250,-0.6875,0.0000,265.3750,
2025-03-08 23:13:58.889,-0.0500,0.1900,9.5200,0.1250,0.0000,0.0625,0.1250,-0.6875,0.0000,265.3750,
2025-03-08 23:13:58.929,-0.0600,0.1800,9.5100,-0.0625,0.0000,0.0000,0.1250,-0.6875,0.0000,265.3750,
2025-03-08 23:13:58.941,-0.0700,0.1700,9.5200,0.0000,0.1250,-0.0625,0.1250,-0.6875,0.0000,265.3750,
2025-03-08 23:13:58.943,-0.0700,0.2100,9.5000,0.0000,0.0625,0.0000,0.1250,-0.6875,0.0000,265.3750,
2025-03-08 23:13:58.943,-0.0800,0.1900,9.5000,0.0625,0.1250,0.0625,0.1250,-0.6875,0.0000,265.3750,
2025-03-08 23:13:58.943,-0.0700,0.1900,9.5000,0.0000,-0.1250,0.0000,0.1250,-0.6875,0.0000,265.3750,
2025-03-08 23:13:58.950,-0.0700,0.1800,9.5100,0.0000,-0.0625,0.1250,0.1250,-0.6875,0.0000,265.3750,
2025-03-08 23:13:58.959,-0.0600,0.1800,9.5300,-0.0625,0.0000,-0.0625,0.1250,-0.6875,0.0000,265.3750,
2025-03-08 23:13:58.969,-0.0500,0.1900,9.4900,-0.1250,0.0625,0.0000,0.1250,-0.6875,0.0000,265.3750,
2025-03-08 23:13:58.977,-0.0700,0.1600,9.5000,-0.1250,0.0000,0.0625,0.1250,-0.6875,0.0000,265.3750,
2025-03-08 23:13:58.988,-0.0500,0.1700,9.5300,-0.0625,0.1875,0.0000,0.1250,-0.6875,0.0000,265.3750,
2025-03-08 23:13:59.001,-0.0500,0.1800,9.4900,0.0000,0.0625,0.0000,0.1250,-0.6875,0.0000,265.3750,
2025-03-08 23:13:59.007,-0.0600,0.1900,9.5100,0.0625,0.0000,0.0625,0.1250,-0.6875,0.0000,265.3750,
2025-03-08 23:13:59.024,-0.0600,0.1800,9.5000,0.0625,0.0625,-0.0625,0.1250,-0.6875,0.0000,265.3750,
2025-03-08 23:13:59.031,-0.0400,0.2000,9.5200,0.0000,0.0000,0.1250,0.1250,-0.6875,0.0000,265.3750,
2025-03-08 23:13:59.039,-0.0700,0.2000,9.5000,0.0000,-0.0625,-0.0625,0.1250,-0.6875,0.0000,265.3750,
2025-03-08 23:13:59.053,-0.0600,0.1700,9.5500,-0.0625,0.0625,-0.0625,0.1250,-0.6875,0.0000,265.3750,
2025-03-08 23:13:59.061,-0.0400,0.2000,9.5300,-0.1250,0.0000,-0.0625,0.1250,-0.6875,0.0000,265.3750,
2025-03-08 23:13:59.069,-0.0600,0.1800,9.5000,0.0000,0.1250,0.0000,0.1250,-0.6875,0.0000,265.3750,
2025-03-08 23:13:59.078,-0.0500,0.1900,9.5100,0.0000,0.2500,-0.0625,0.1250,-0.6875,0.0000,265.3750,
2025-03-08 23:13:59.099,-0.0600,0.1800,9.5200,0.0000,0.0000,0.0625,0.1250,-0.6875,0.0000,265.3750,
2025-03-08 23:13:59.100,-0.0700,0.2000,9.5000,0.0000,0.0000,0.1250,0.1250,-0.6875,0.0000,265.3750,
2025-03-08 23:13:59.109,-0.0600,0.2000,9.5100,0.0625,0.0625,-0.0625,0.1250,-0.6875,0.0000,265.3750,
2025-03-08 23:13:59.132,-0.0700,0.1700,9.5300,0.0625,-0.1250,0.1250,0.1250,-0.6875,0.0000,265.3750,
2025-03-08 23:13:59.132,-0.0600,0.2000,9.5000,0.0000,0.0625,0.0625,0.1250,-0.6875,0.0000,265.3750,
2025-03-08 23:13:59.139,-0.0600,0.1900,9.5000,-0.1250,-0.0625,-0.0625,0.1250,-0.6875,0.0000,265.3750,
2025-03-08 23:13:59.152,-0.0600,0.2000,9.5200,0.0000,0.0625,0.0625,0.1250,-0.6875,0.0000,265.3750,
2025-03-08 23:13:59.175,-0.0600,0.2100,9.5200,0.0625,-0.1250,0.1250,0.1250,-0.6875,0.0000,265.3750,
2025-03-08 23:13:59.184,-0.0700,0.1800,9.5100,0.0625,-0.1250,0.1875,0.1250,-0.6875,0.0000,265.3750,
2025-03-08 23:13:59.230,-0.0500,0.2000,9.5200,0.0000,-0.0625,0.0625,0.1250,-0.6875,0.0000,265.3750,
2025-03-08 23:13:59.230,-0.0600,0.2000,9.5300,0.0000,0.0625,-0.1250,0.1250,-0.6875,0.0000,265.3750,
2025-03-08 23:13:59.243,-0.0600,0.2100,9.5500,0.0000,0.1250,-0.1250,0.1250,-0.6875,0.0000,265.3750,
2025-03-08 23:13:59.259,-0.0600,0.2200,9.5100,0.0625,0.1875,0.0000,0.1250,-0.6875,0.0000,265.3750,
2025-03-08 23:13:59.278,-0.0800,0.2100,9.5000,0.0000,0.1250,0.0000,0.1250,-0.6875,0.0000,265.3750,
2025-03-08 23:13:59.306,-0.0500,0.2000,9.5400,-0.1250,0.1250,0.0625,0.1250,-0.6875,0.0000,265.3750,
2025-03-08 23:13:59.321,-0.0600,0.1800,9.5000,-0.1875,0.1250,-0.1250,0.1250,-0.6875,0.0000,265.3750,
2025-03-08 23:13:59.339,-0.0500,0.1800,9.5400,0.0625,0.1250,-0.0625,0.1250,-0.6875,0.0000,265.3750,
2025-03-08 23:13:59.362,-0.0600,0.2000,9.5300,-0.1250,0.0000,-0.0625,0.1250,-0.6875,0.0000,265.3750,
2025-03-08 23:13:59.379,-0.0600,0.1900,9.5000,-0.0625,0.0000,0.0000,0.1250,-0.6875,0.0000,265.3750,
2025-03-08 23:13:59.401,-0.0600,0.1900,9.5200,0.0000,-0.0625,-0.0625,0.1250,-0.6875,0.0000,265.3750,
2025-03-08 23:13:59.425,-0.0500,0.1900,9.5000,0.1250,-0.0625,0.0625,0.1250,-0.6875,0.0000,265.3750,
2025-03-08 23:13:59.438,-0.0800,0.1900,9.5000,0.0000,0.0625,0.0625,0.1250,-0.6875,0.0000,265.3750,
2025-03-08 23:13:59.459,-0.0500,0.1900,9.5300,0.0625,-0.0625,0.0000,0.1250,-0.6875,0.0000,265.3750,
2025-03-08 23:13:59.482,-0.0500,0.1900,9.4900,0.0000,0.1250,0.0625,0.1250,-0.6875,0.0000,265.3750,
2025-03-08 23:13:59.528,-0.0600,0.1800,9.5400,0.0625,-0.0625,0.0625,0.1250,-0.6875,0.0000,265.3750,
2025-03-08 23:13:59.534,-0.0900,0.1600,9.5200,0.0625,-0.0625,-0.1250,0.1250,-0.6875,0.0000,265.3750,
2025-03-08 23:13:59.543,-0.0700,0.2000,9.5100,-0.0625,0.0625,0.0000,0.1250,-0.6875,0.0000,265.3750,
2025-03-08 23:13:59.559,-0.0700,0.2000,9.5200,-0.1250,-0.0625,0.1250,0.1250,-0.6875,0.0000,265.3750,
2025-03-08 23:13:59.572,-0.0700,0.1900,9.5300,0.0000,0.1875,-0.0625,0.1250,-0.6875,0.0000,265.3750,
2025-03-08 23:13:59.589,-0.0600,0.1900,9.5000,0.0000,0.0625,0.0625,0.1250,-0.6875,0.0000,265.3750,
2025-03-08 23:13:59.610,-0.0500,0.2000,9.5100,0.0000,-0.0625,0.1250,0.1250,-0.6875,0.0000,265.3750,
2025-03-08 23:13:59.619,-0.0700,0.1900,9.5500,0.0000,0.0625,0.0000,0.1250,-0.6875,0.0000,265.3750,
2025-03-08 23:13:59.641,-0.0400,0.1800,9.6100,0.0000,0.2500,0.0000,0.1250,-0.6875,0.0000,265.3750,
2025-03-08 23:13:59.662,-0.0400,0.1800,9.5600,0.0000,0.2500,0.0000,0.1250,-0.6875,0.0000,265.3750,
2025-03-08 23:13:59.670,-0.0600,0.1900,9.4900,0.0625,0.2500,0.0625,0.1250,-0.6875,0.0000,265.3750,
2025-03-08 23:13:59.693,-0.0500,0.1800,9.4700,0.0000,0.1250,-0.1250,0.1250,-0.6875,0.0000,265.3750,
2025-03-08 23:13:59.713,-0.0600,0.2100,9.5100,-0.1250,0.1875,-0.0625,0.1250,-0.6875,0.0000,265.3750,
2025-03-08 23:13:59.721,-0.0400,0.1900,9.5400,-0.0625,-0.0625,0.0000,0.1250,-0.6875,0.0000,265.3750,
2025-03-08 23:13:59.739,-0.0600,0.1900,9.5000,-0.0625,0.1250,0.1250,0.1250,-0.6875,0.0000,265.3750,
2025-03-08 23:13:59.760,-0.0700,0.1700,9.5200,-0.1875,0.0625,-0.0625,0.1250,-0.6875,0.0000,265.3750,
2025-03-08 23:13:59.770,-0.0700,0.2000,9.4900,0.1250,0.0625,0.0000,0.1250,-0.6875,0.0000,265.3750,
2025-03-08 23:13:59.828,-0.0700,0.2000,9.4200,0.1250,0.0625,-0.1250,0.1250,-0.6875,0.0000,265.3750,
2025-03-08 23:13:59.829,-0.0800,0.1800,9.5300,-0.1250,0.0000,0.0625,0.1250,-0.6875,0.0000,265.3750,
2025-03-08 23:13:59.833,-0.0600,0.1900,9.5600,-0.1250,-0.1250,0.0625,0.1250,-0.6875,0.0000,265.3750,
2025-03-08 23:13:59.841,-0.0900,0.1700,9.4900,0.0000,-0.1875,0.1250,0.1250,-0.6875,0.0000,265.3750,
2025-03-08 23:13:59.867,-0.0800,0.2000,9.5000,-0.0625,-0.0625,0.0000,0.1250,-0.6875,0.0000,265.3750,
2025-03-08 23:13:59.872,-0.0700,0.1900,9.5400,0.0000,-0.1250,0.1875,0.1250,-0.6875,0.0000,265.3750,
2025-03-08 23:13:59.890,-0.0600,0.1900,9.4900,-0.0625,-0.0625,-0.0625,0.1250,-0.6875,0.0000,265.3750,
2025-03-08 23:13:59.911,-0.0900,0.1800,9.5000,-0.0625,0.0000,0.0000,0.1250,-0.6875,0.0000,265.3750,
2025-03-08 23:13:59.918,-0.0800,0.1900,9.5100,-0.1250,0.0000,0.0000,0.1250,-0.6875,0.0000,265.3750,
2025-03-08 23:13:59.943,-0.0800,0.1700,9.5300,-0.1250,-0.0625,-0.0625,0.1250,-0.6875,0.0000,265.3750,
2025-03-08 23:13:59.956,-0.0600,0.1800,9.5000,-0.0625,0.0000,-0.1250,0.1250,-0.6875,0.0000,265.3750,
2025-03-08 23:13:59.970,-0.1000,0.2000,9.5000,-0.1875,-0.1875,-0.0625,0.1250,-0.6875,0.0000,265.3750,
2025-03-08 23:13:59.992,-0.0700,0.2000,9.5500,0.1250,-0.0625,0.1250,0.1250,-0.6875,0.0000,265.3750,
2025-03-08 23:14:00.009,-0.0700,0.2100,9.5100,-0.0625,0.1875,-0.0625,0.1250,-0.6875,0.0000,265.3750,
2025-03-08 23:14:00.032,-0.0800,0.1700,9.5000,-0.0625,-0.1250,-0.1250,0.1250,-0.6875,0.0000,265.3750,
2025-03-08 23:14:00.039,-0.0500,0.1900,9.5200,-0.1875,-0.3125,0.1250,0.1250,-0.6875,0.0000,265.3750,
2025-03-08 23:14:00.061,-0.0600,0.1900,9.5300,0.1250,0.1250,-0.0625,0.1250,-0.6875,0.0000,265.3750,
2025-03-08 23:14:00.075,-0.0800,0.1800,9.4900,0.1875,0.3125,0.0625,0.1250,-0.6875,0.0000,265.3750,
2025-03-08 23:14:00.088,-0.0700,0.1800,9.5200,-0.0625,-0.0625,0.0625,0.1250,-0.6875,0.0000,265.3750,
2025-03-08 23:14:00.136,-0.0600,0.1900,9.5200,0.0625,0.0000,-0.0625,0.1250,-0.6875,0.0000,265.3750,
2025-03-08 23:14:00.136,-0.0600,0.2000,9.5100,-0.1250,0.0625,0.1250,0.1250,-0.6875,0.0000,265.3750,
2025-03-08 23:14:00.136,-0.0600,0.2200,9.5300,0.0000,0.0000,-0.0625,0.1250,-0.6875,0.0000,265.3750,
2025-03-08 23:14:00.149,-0.0500,0.1800,9.5300,-0.1875,-0.1250,-0.1250,0.1250,-0.6875,0.0000,265.3750,
2025-03-08 23:14:00.172,-0.0700,0.1900,9.5800,0.0000,-0.0625,0.0625,0.1250,-0.6875,0.0000,265.3750,
2025-03-08 23:14:00.188,-0.0700,0.1800,9.4600,0.0625,0.0625,0.0000,0.1250,-0.6875,0.0000,265.3750,
2025-03-08 23:14:00.207,-0.0700,0.1800,9.4800,0.0000,0.0625,-0.1250,0.1250,-0.6875,0.0000,265.3750,
2025-03-08 23:14:00.207,-0.0400,0.2000,9.5100,0.3750,-0.6250,-0.0625,0.1250,-0.6875,0.0000,265.3750,
2025-03-08 23:14:00.223,-0.0700,0.1700,9.5800,-0.3125,-0.3750,-0.3125,0.1250,-0.6875,0.0000,265.3750,
2025-03-08 23:14:00.227,0.4500,0.1000,9.5600,-0.3750,-0.5000,-1.8125,0.1250,-0.6875,0.0000,265.3750,
2025-03-08 23:14:00.237,-0.1000,0.0700,9.5000,-0.2500,-0.5625,-11.3750,0.1250,-0.6875,0.0000,265.5000,
2025-03-08 23:14:00.247,-0.0600,0.1300,9.4200,-0.5000,-0.3750,-11.2500,0.1250,-0.6875,0.0000,265.5625,
2025-03-08 23:14:00.261,-0.0900,0.2200,9.4600,-0.7500,-0.5000,-10.3125,0.1250,-0.6875,0.0000,265.6875,
2025-03-08 23:14:00.278,-0.1600,0.2500,9.5200,-1.2500,-0.8125,-9.0625,0.1250,-0.6875,0.0000,265.7500,
2025-03-08 23:14:00.278,-0.2500,0.2500,9.5700,-1.2500,-1.0625,-5.8750,0.1250,-0.6875,0.0000,265.8125,
2025-03-08 23:14:00.286,-0.1700,0.2600,9.5700,-0.5625,-1.4375,-3.8750,0.1875,-0.6875,0.0000,265.8750,
2025-03-08 23:14:00.296,-0.0600,0.1600,9.5300,-0.2500,-2.0625,-0.6875,0.1875,-0.6875,0.0000,265.8750,
2025-03-08 23:14:00.307,-0.0300,0.2000,9.4700,-0.0625,-1.8750,-0.3125,0.1875,-0.6875,0.0000,265.8750,
2025-03-08 23:14:00.316,-0.0400,0.1900,9.5300,-0.1250,-1.3750,-0.2500,0.1875,-0.6875,0.0000,265.8750,
2025-03-08 23:14:00.325,-0.0400,0.1600,9.5600,0.0000,-0.8750,-0.3125,0.2500,-0.6875,0.0000,265.8750,
2025-03-08 23:14:00.338,-0.0500,0.1800,9.4800,0.1875,-1.6875,-0.5625,0.2500,-0.6875,0.0000,265.8750,
2025-03-08 23:14:00.353,-0.0400,0.1800,9.5000,0.5000,-1.5000,-0.3750,0.2500,-0.6875,0.0000,265.8750,
2025-03-08 23:14:00.371,-0.0200,0.1800,9.4900,0.2500,-1.3125,-0.2500,0.2500,-0.6875,0.0000,265.8750,
2025-03-08 23:14:00.371,-0.0500,0.2000,9.5600,0.1875,-1.1875,0.1250,0.2500,-0.6875,0.0000,265.8750,
2025-03-08 23:14:00.377,-0.0400,0.2100,9.4800,-0.0625,-1.2500,0.1875,0.3125,-0.6875,0.0000,265.8750,
2025-03-08 23:14:00.391,0.0000,0.1800,9.4900,0.1875,-1.3125,0.2500,0.3125,-0.6875,0.0000,265.8750,
2025-03-08 23:14:00.449,-0.0100,0.2000,9.5400,0.1875,-0.5625,0.5000,0.3125,-0.6875,0.0000,265.8750,
2025-03-08 23:14:00.451,-0.0500,0.2000,9.5700,0.0000,0.2500,0.5000,0.3125,-0.6875,0.0000,265.8750,
2025-03-08 23:14:00.451,-0.0300,0.1800,9.4900,-0.1875,0.1250,0.5000,0.3125,-0.6875,0.0000,265.8750,
2025-03-08 23:14:00.451,-0.0400,0.1800,9.5000,0.0000,0.5625,0.6875,0.3125,-0.6875,0.0000,265.8750,
2025-03-08 23:14:00.451,-0.0300,0.1700,9.5300,0.1250,1.1250,0.5625,0.3125,-0.6875,0.0000,265.8750,
2025-03-08 23:14:00.451,-0.0400,0.1700,9.5400,-0.1875,1.0000,0.5000,0.3125,-0.6875,0.0000,265.8750,
2025-03-08 23:14:00.463,-0.0500,0.1900,9.5400,0.0625,0.6875,0.5625,0.2500,-0.6875,0.0000,265.8750,
2025-03-08 23:14:00.467,-0.0500,0.1700,9.5200,0.0625,0.6250,0.5000,0.2500,-0.6875,0.0000,265.8750,
2025-03-08 23:14:00.477,-0.0400,0.1600,9.4900,-0.1250,0.7500,0.6875,0.2500,-0.6875,0.0000,265.8750,
2025-03-08 23:14:00.489,-0.0500,0.1700,9.4000,-0.1250,0.7500,0.5000,0.2500,-0.6875,0.0000,265.8750,
2025-03-08 23:14:00.496,-0.0500,0.1700,9.5400,-0.1875,1.3125,0.3750,0.2500,-0.6875,0.0000,265.8750,
2025-03-08 23:14:00.508,-0.0200,0.1700,9.5600,-0.2500,1.2500,0.1875,0.2500,-0.6875,0.0000,265.8750,
2025-03-08 23:14:00.523,-0.0400,0.1700,9.5000,-0.2500,1.1875,0.1875,0.2500,-0.6875,0.0000,265.8750,
2025-03-08 23:14:00.527,-0.0500,0.1900,9.5100,-0.0625,1.1875,0.3750,0.1875,-0.6875,0.0000,265.8750,
2025-03-08 23:14:00.537,-0.0600,0.1900,9.4900,-0.1875,1.0000,0.2500,0.1875,-0.6875,0.0000,265.8750,
2025-03-08 23:14:00.546,-0.0500,0.1600,9.5200,-0.2500,0.5625,0.2500,0.1875,-0.6875,0.0000,265.8750,
2025-03-08 23:14:00.563,-0.0200,0.1900,9.5300,-0.1250,0.6250,0.1875,0.1875,-0.6875,0.0000,265.8750,
2025-03-08 23:14:00.567,-0.0700,0.2000,9.5400,-0.1875,0.8750,0.1250,0.1875,-0.6875,0.0000,265.8750,
2025-03-08 23:14:00.581,-0.0500,0.1900,9.5200,-0.1250,0.6250,0.0000,0.1875,-0.6875,0.0000,265.8750,
2025-03-08 23:14:00.587,-0.0500,0.1900,9.4800,-0.1875,0.4375,0.1250,0.1875,-0.6875,0.0000,265.8750,
2025-03-08 23:14:00.597,-0.0600,0.1700,9.5100,-0.1875,0.5625,-0.0625,0.1875,-0.6875,0.0000,265.8750,
2025-03-08 23:14:00.606,-0.0600,0.2000,9.5200,-0.1875,0.5625,-0.0625,0.1875,-0.6875,0.0000,265.8750,
2025-03-08 23:14:00.620,-0.0500,0.1600,9.5500,-0.1875,0.2500,0.1250,0.1875,-0.6875,0.0000,265.8750,
2025-03-08 23:14:00.627,-0.0500,0.1800,9.5200,-0.0625,0.2500,0.0000,0.1875,-0.6875,0.0000,265.8750,
2025-03-08 23:14:00.639,-0.0300,0.1800,9.4800,-0.0625,0.3750,0.0625,0.1875,-0.6875,0.0000,265.8750,
2025-03-08 23:14:00.651,-0.0400,0.1800,9.4900,-0.1250,0.1250,-0.0625,0.1875,-0.6875,0.0000,265.8750,
2025-03-08 23:14:00.657,-0.0600,0.1800,9.5200,0.1250,0.3125,0.0000,0.1875,-0.6875,0.0000,265.8750,
2025-03-08 23:14:00.670,-0.0600,0.1900,9.5400,0.1875,0.2500,0.0000,0.1875,-0.6875,0.0000,265.8750,
2025-03-08 23:14:00.681,-0.0600,0.2000,9.5300,0.2500,0.1875,-0.0625,0.1875,-0.6875,0.0000,265.8750,
2025-03-08 23:14:00.690,-0.0500,0.1800,9.5000,0.2500,0.0000,0.0625,0.1875,-0.6875,0.0000,265.8750,
2025-03-08 23:14:00.722,-0.0500,0.1700,9.5100,0.3125,0.1875,-0.0625,0.1875,-0.6875,0.0000,265.8750,
2025-03-08 23:14:00.722,-0.0700,0.1800,9.5300,0.2500,0.1875,0.0000,0.1875,-0.6875,0.0000,265.8750,
2025-03-08 23:14:00.735,-0.0800,0.1800,9.5500,0.1250,0.0625,0.0625,0.1875,-0.6875,0.0000,265.8750,
2025-03-08 23:14:00.735,-0.0500,0.1800,9.5300,0.0625,0.1875,0.0000,0.1875,-0.6875,0.0000,265.8750,
2025-03-08 23:14:00.741,-0.0600,0.1800,9.5100,0.0000,0.3125,0.1250,0.1875,-0.6875,0.0000,265.8750,
2025-03-08 23:14:00.747,-0.0500,0.1800,9.5300,-0.0625,0.0625,0.1250,0.1875,-0.6875,0.0000,265.8750,
2025-03-08 23:14:00.758,-0.0700,0.1900,9.5300,-0.2500,0.2500,0.2500,0.1875,-0.6875,0.0000,265.8750,
2025-03-08 23:14:00.778,-0.0500,0.1700,9.5000,-0.2500,0.0625,0.2500,0.1875,-0.6875,0.0000,265.8750,
2025-03-08 23:14:00.787,-0.0300,0.1700,9.5100,-0.3125,0.1875,0.6250,0.1875,-0.6875,0.0000,265.8750,
2025-03-08 23:14:00.802,-0.0600,0.1800,9.5300,-0.3750,0.3125,0.4375,0.1875,-0.6875,0.0000,265.8750,
2025-03-08 23:14:00.809,-0.0700,0.1800,9.5000,-0.2500,0.0625,0.3750,0.1875,-0.6875,0.0000,265.8750,
2025-03-08 23:14:00.831,-0.1100,0.3100,9.5200,-0.3125,0.1250,0.3750,0.1875,-0.6875,0.0000,265.8750,
2025-03-08 23:14:00.837,-0.0500,0.0900,9.5100,-0.4375,0.0625,2.1875,0.1875,-0.6875,0.0000,265.8750,
2025-03-08 23:14:00.848,-0.0600,0.1100,9.5600,-0.5000,0.1875,2.7500,0.1875,-0.6875,0.0000,265.8125,
2025-03-08 23:14:00.862,-0.0600,0.1200,9.5300,-0.5000,0.1875,3.5625,0.1875,-0.6875,0.0000,265.8125,
2025-03-08 23:14:00.879,-0.0500,0.1900,9.5300,-0.5000,0.0625,1.6250,0.1875,-0.6875,0.0000,265.7500,
2025-03-08 23:14:00.891,-0.0500,0.1800,9.5200,-0.4375,0.1250,1.1250,0.1875,-0.6875,0.0000,265.7500,
2025-03-08 23:14:00.915,-0.0600,0.1700,9.5200,-0.1250,0.0625,0.0625,0.1875,-0.6875,0.0000,265.7500,
2025-03-08 23:14:00.928,-0.0700,0.1600,9.5000,-0.1875,0.0000,0.1250,0.1875,-0.6875,0.0000,265.7500,
2025-03-08 23:14:00.948,-0.0600,0.1800,9.5000,0.0625,-0.1875,0.1875,0.1875,-0.6875,0.0000,265.7500,
2025-03-08 23:14:00.973,-0.0600,0.1900,9.5300,0.0000,0.0000,0.0625,0.1875,-0.6875,0.0000,265.7500,
2025-03-08 23:14:00.983,-0.0500,0.1700,9.5400,0.0000,0.0625,-0.0625,0.1875,-0.6875,0.0000,265.7500,
2025-03-08 23:14:01.029,-0.0800,0.1600,9.5000,-0.0625,0.1875,-0.0625,0.1875,-0.6875,0.0000,265.7500,
2025-03-08 23:14:01.041,-0.0400,0.1800,9.5200,0.0000,0.1250,0.1250,0.1875,-0.6875,0.0000,265.7500,
2025-03-08 23:14:01.041,-0.0600,0.1500,9.5300,-0.0625,-0.0625,0.0625,0.1875,-0.6875,0.0000,265.7500,
2025-03-08 23:14:01.051,-0.0800,0.1900,9.5200,-0.0625,0.0000,0.0000,0.1875,-0.6875,0.0000,265.7500,
2025-03-08 23:14:01.073,-0.0900,0.1800,9.5400,0.0000,0.0000,0.1250,0.1875,-0.6875,0.0000,265.7500,
2025-03-08 23:14:01.078,-0.0700,0.1900,9.5300,-0.1250,0.1250,0.0625,0.1875,-0.6875,0.0000,265.7500,
2025-03-08 23:14:01.101,-0.0600,0.1900,9.5300,-0.1250,0.1250,0.0625,0.1875,-0.6875,0.0000,265.7500,
2025-03-08 23:14:01.123,-0.0600,0.1900,9.5000,-0.1875,-0.0625,0.1875,0.1875,-0.6875,0.0000,265.7500,
2025-03-08 23:14:01.133,-0.0600,0.1700,9.5200,-0.2500,0.1250,0.0625,0.1875,-0.6875,0.0000,265.7500,
2025-03-08 23:14:01.148,-0.1000,0.1500,9.5200,-0.3125,0.2500,0.1250,0.1875,-0.6875,0.0000,265.7500,
2025-03-08 23:14:01.165,-0.1800,0.3300,9.4800,-0.3750,0.3125,0.2500,0.1875,-0.6875,0.0000,265.7500,
2025-03-08 23:14:01.175,-0.1400,0.2000,9.5100,-0.8125,0.1875,3.6875,0.1875,-0.6875,0.0000,265.6875,
2025-03-08 23:14:01.191,-0.0600,0.1300,9.5000,-0.6250,0.1875,5.3750,0.1875,-0.6875,0.0000,265.6250,
2025-03-08 23:14:01.209,-0.0200,0.1300,9.5200,-0.3750,-0.0625,3.7500,0.1875,-0.6250,0.0000,265.5625,
2025-03-08 23:14:01.225,-0.0600,0.1800,9.4900,-0.4375,0.0000,3.0000,0.1875,-0.6250,0.0000,265.4375,
2025-03-08 23:14:01.241,-0.0600,0.2200,9.4800,-0.7500,0.1250,1.8125,0.1875,-0.6250,0.0000,265.4375,
2025-03-08 23:14:01.263,-0.0900,0.1100,9.5200,-0.1875,0.1875,6.0000,0.1875,-0.6250,0.0000,265.3750,
2025-03-08 23:14:01.276,-0.0800,0.1200,9.5300,-0.4375,-0.1250,3.2500,0.1875,-0.6250,0.0000,265.3125,
2025-03-08 23:14:01.291,-0.0700,0.1700,9.4900,-0.1875,-0.0625,0.3125,0.1875,-0.6250,0.0000,265.2500,
2025-03-08 23:14:01.334,-0.0700,0.1700,9.5100,-0.0625,0.0625,0.0625,0.1875,-0.6250,0.0000,265.2500,
2025-03-08 23:14:01.335,-0.0700,0.1500,9.5100,-0.2500,0.0625,0.0625,0.1875,-0.6250,0.0000,265.2500,
2025-03-08 23:14:01.352,-0.0600,0.1800,9.5100,-0.1875,0.2500,-0.1250,0.1875,-0.6250,0.0000,265.2500,
2025-03-08 23:14:01.382,-0.0600,0.1500,9.5000,-0.2500,0.0625,-0.1250,0.1875,-0.6250,0.0000,265.2500,
2025-03-08 23:14:01.384,-0.0600,0.1400,9.5300,-0.1875,0.0000,-0.1250,0.1875,-0.6250,0.0000,265.2500,
2025-03-08 23:14:01.412,-0.0700,0.1600,9.5000,-0.1250,0.1250,-0.0625,0.1875,-0.6250,0.0000,265.2500,
2025-03-08 23:14:01.425,-0.0600,0.1600,9.5300,-0.1875,0.0625,0.0000,0.1875,-0.6250,0.0000,265.2500,
2025-03-08 23:14:01.432,-0.0600,0.1700,9.5100,-1.0000,0.0000,-0.2500,0.1875,-0.6250,0.0000,265.2500,
2025-03-08 23:14:01.449,-0.0700,0.1500,9.5000,-2.1875,-0.1250,-0.1875,0.1875,-0.6250,0.0000,265.2500,
2025-03-08 23:14:01.466,-0.0500,0.1500,9.5200,-2.8750,-0.1250,-0.2500,0.1875,-0.5625,0.0000,265.2500,
2025-03-08 23:14:01.476,-0.0800,0.2000,9.4900,-3.9375,0.0625,-0.1875,0.1875,-0.5000,0.0000,265.2500,
2025-03-08 23:14:01.492,-0.0700,0.1600,9.5100,-6.0625,0.0000,-0.1875,0.1875,-0.4375,0.0000,265.2500,
2025-03-08 23:14:01.509,-0.0600,0.1900,9.5900,-15.5625,-0.3750,-0.4375,0.1875,-0.1875,0.0000,265.2500,
2025-03-08 23:14:01.526,-0.1000,0.0800,9.5900,-28.5000,-0.0625,-1.0625,0.1875,0.1875,0.0000,265.3125,
2025-03-08 23:14:01.540,-0.0500,0.0000,9.5500,-31.5000,-0.1250,-1.5000,0.1875,0.5000,0.0000,265.3125,
2025-03-08 23:14:01.562,-0.1000,-0.0900,9.5100,-38.3125,-0.1250,-1.1875,0.1875,1.2500,0.0000,265.3125,
2025-03-08 23:14:01.582,-0.0600,-0.0500,9.7300,-59.8125,-0.2500,-0.5000,0.1875,2.1875,0.0000,265.3750,
2025-03-08 23:14:01.588,-0.0500,-0.1100,9.7400,-83.6250,-0.4375,0.1250,0.1875,3.0000,0.0000,265.3750,
2025-03-08 23:14:01.633,-0.0700,-0.6700,9.5500,-131.3125,-0.3125,0.5000,0.1875,5.3125,0.0000,265.3750,
2025-03-08 23:14:01.655,-0.0700,-1.1000,9.4500,-161.6875,-0.7500,0.6875,0.1875,8.3125,0.0000,265.3750,
2025-03-08 23:14:01.655,-0.0700,-1.6600,9.2100,-170.7500,-0.8750,0.6875,0.1875,10.0000,0.0000,265.3750,
2025-03-08 23:14:01.664,-0.0700,-2.0800,9.1000,-170.5625,-0.6875,0.8750,0.1875,13.3125,0.0000,265.3125,
2025-03-08 23:14:01.679,-0.0900,-2.7600,8.9000,-153.0000,-0.9375,0.8750,0.1875,16.3750,0.0000,265.3125,
2025-03-08 23:14:01.690,-0.0800,-2.9000,8.8200,-140.3750,-1.0625,1.1875,0.1875,17.7500,0.0000,265.3125,
2025-03-08 23:14:01.711,-0.0300,-3.3100,8.7100,-117.8125,-2.0625,3.6875,0.2500,20.1250,0.0000,265.2500,
2025-03-08 23:14:01.728,-0.0300,-3.5500,8.7000,-118.0625,-1.2500,2.0000,0.2500,22.3750,0.0000,265.1875,
2025-03-08 23:14:01.738,-0.0300,-3.6100,8.6600,-124.3750,-0.5000,1.0000,0.2500,23.5625,0.0000,265.1875,
2025-03-08 23:14:01.763,-0.0700,-4.1000,8.3400,-136.3750,-0.1250,0.8125,0.2500,26.1875,0.0000,265.1875,
2025-03-08 23:14:01.781,-0.0700,-4.4300,8.1700,-138.5000,-0.1250,0.7500,0.2500,28.8750,0.0000,265.1875,
2025-03-08 23:14:01.792,-0.0700,-4.7500,8.0000,-138.6250,-0.3125,0.7500,0.2500,30.1875,0.0000,265.1875,
2025-03-08 23:14:01.811,-0.0600,-5.0200,7.7700,-137.3750,-0.7500,0.3750,0.2500,32.8750,0.0000,265.1875,
2025-03-08 23:14:01.827,-0.0400,-5.5200,7.4200,-134.7500,-0.8125,0.0625,0.2500,35.5000,0.0000,265.1875,
2025-03-08 23:14:01.844,-0.0400,-5.5900,7.3900,-131.6250,-0.7500,-0.0625,0.2500,36.7500,0.0000,265.1875,
2025-03-08 23:14:01.858,-0.0300,-5.9800,7.0600,-128.6875,-0.6250,0.0000,0.2500,39.2500,0.0000,265.1875,
2025-03-08 23:14:01.876,-0.0500,-6.2100,6.8400,-126.9375,-0.4375,0.2500,0.2500,41.7500,0.0000,265.1875,
2025-03-08 23:14:01.889,-0.0800,-6.5400,6.6200,-125.1875,-0.5625,0.1250,0.2500,42.9375,0.0000,265.1875,
2025-03-08 23:14:01.899,-0.0900,-6.6700,6.5100,-121.2500,-0.9375,-0.0625,0.2500,44.1250,0.0000,265.1875,
2025-03-08 23:14:01.937,-0.0200,-6.7700,6.2900,-112.1250,-2.0000,-0.8750,0.3125,46.3125,0.0000,265.1875,
2025-03-08 23:14:01.937,-0.0100,-6.9500,6.0300,-110.0000,-1.7500,-0.8125,0.3125,47.3750,0.0000,265.1875,
2025-03-08 23:14:01.943,-0.0300,-7.0100,5.9500,-107.8125,-1.1875,-0.5625,0.3125,48.4375,0.0000,265.1875,
2025-03-08 23:14:01.947,-0.0200,-7.1200,5.8200,-105.4375,-1.1250,-0.0625,0.3125,49.4375,0.0000,265.1875,
2025-03-08 23:14:01.958,-0.0100,-7.3200,5.6300,-103.7500,-0.9375,0.1250,0.3125,50.4375,0.0000,265.1875,
2025-03-08 23:14:01.966,-0.0400,-7.3700,5.5300,-100.9375,-1.0625,0.2500,0.3125,51.4375,0.0000,265.1875,
2025-03-08 23:14:01.976,-0.0300,-7.4100,5.4700,-97.3125,-1.1875,0.1875,0.3750,52.3750,0.0000,265.1875,
2025-03-08 23:14:01.987,0.0000,-7.4600,5.3000,-95.1875,-1.2500,0.5625,0.3750,53.3125,0.0000,265.1875,
2025-03-08 23:14:01.996,0.0000,-7.5900,5.1500,-94.9375,-0.5000,1.1875,0.3750,54.2500,0.0000,265.1875,
2025-03-08 23:14:02.010,-0.0900,-7.7000,5.1300,-95.6875,-0.3750,1.8125,0.3125,55.1250,0.0000,265.1875,
2025-03-08 23:14:02.016,-0.0400,-7.7500,4.9800,-94.5625,-2.3750,2.3125,0.3125,56.0625,0.0000,265.1250,
2025-03-08 23:14:02.026,-0.0300,-7.9500,4.7000,-92.6250,-3.0625,2.8125,0.3125,56.9375,0.0000,265.1250,
2025-03-08 23:14:02.038,-0.0500,-7.9100,4.6300,-90.0625,-1.5000,1.7500,0.3125,57.8125,0.0000,265.0625,
2025-03-08 23:14:02.051,-0.0400,-7.9500,4.5400,-88.0625,-1.8750,1.3750,0.3125,58.6875,0.0000,265.0625,
2025-03-08 23:14:02.057,-0.0200,-8.0200,4.4200,-86.4375,-3.2500,2.3750,0.3125,59.5000,0.0000,265.0000,
2025-03-08 23:14:02.066,0.0000,-8.1400,4.2100,-85.5000,-4.1250,3.0625,0.3125,60.3750,0.0000,264.9375,
2025-03-08 23:14:02.079,-0.0300,-8.2200,4.1500,-85.4375,-4.3125,2.9375,0.3125,61.1875,0.0000,264.9375,
2025-03-08 23:14:02.093,-0.0200,-8.2600,4.0900,-84.5000,-4.3125,3.1875,0.3125,62.0000,0.0000,264.8750,
2025-03-08 23:14:02.097,-0.0200,-8.3200,3.9200,-83.8125,-3.8750,2.8125,0.3125,62.8125,0.0000,264.8125,
2025-03-08 23:14:02.106,-0.0400,-8.3900,3.7700,-82.0625,-3.5000,2.7500,0.2500,63.6250,0.0000,264.7500,
2025-03-08 23:14:02.116,-0.0200,-8.4600,3.6800,-80.3750,-3.7500,2.6875,0.2500,64.3750,0.0000,264.7500,
2025-03-08 23:14:02.126,-0.0300,-8.5100,3.5400,-78.6875,-3.5000,2.6875,0.2500,65.1250,0.0000,264.6875,
2025-03-08 23:14:02.143,-0.0700,-8.5400,3.3900,-76.0625,-2.5625,2.0000,0.2500,65.8750,0.0000,264.6250,
2025-03-08 23:14:02.147,-0.0500,-8.5900,3.2700,-73.4375,-1.3750,1.1875,0.2500,66.5625,0.0000,264.6250,
2025-03-08 23:14:02.157,-0.0300,-8.6500,3.2300,-70.9375,-0.4375,0.6875,0.2500,67.2500,0.0000,264.6250,
2025-03-08 23:14:02.167,-0.0600,-8.6100,3.1200,-68.8125,-0.0625,0.3750,0.2500,67.9375,0.0000,264.6250,
2025-03-08 23:14:02.176,-0.0300,-8.7200,2.9300,-67.3750,0.1875,0.5000,0.2500,68.6250,0.0000,264.6250,
2025-03-08 23:14:02.191,-0.0600,-8.7300,2.9100,-64.7500,0.3125,0.5625,0.2500,69.2500,0.0000,264.6250,
2025-03-08 23:14:02.235,-0.0200,-8.7600,2.8000,-62.8125,0.5625,0.1250,0.2500,69.8125,0.0000,264.6250,
2025-03-08 23:14:02.235,-0.0400,-8.7400,2.7500,-63.0625,0.7500,0.2500,0.2500,70.4375,0.0000,264.6250,
2025-03-08 23:14:02.235,-0.0400,-8.8000,2.6200,-65.9375,0.0000,0.4375,0.2500,71.0625,0.0000,264.6250,
2025-03-08 23:14:02.235,-0.0900,-8.8300,2.5400,-68.6250,-0.1875,0.4375,0.2500,71.0625,0.0000,264.6250,
2025-03-08 23:14:02.236,-0.0400,-8.8300,2.4500,-70.3750,0.0625,0.3125,0.2500,72.4375,0.0000,264.6250,
2025-03-08 23:14:02.247,-0.0400,-8.9400,2.1800,-72.1875,0.6250,0.4375,0.2500,73.1250,0.0000,264.6250,
2025-03-08 23:14:02.256,-0.0500,-8.9300,2.1000,-73.0625,1.5625,0.1875,0.2500,73.8125,0.0000,264.6875,
2025-03-08 23:14:02.272,-0.0700,-8.9900,2.0300,-72.7500,2.5625,-0.4375,0.2500,74.5625,0.0000,264.6875,
2025-03-08 23:14:02.278,-0.0400,-9.0100,1.8200,-72.0625,3.0000,-0.5625,0.2500,74.5625,0.0000,264.6875,
2025-03-08 23:14:02.286,-0.0300,-9.0500,1.7500,-71.8125,2.8750,-0.5625,0.1875,75.9375,0.0000,264.7500,
2025-03-08 23:14:02.299,-0.0400,-9.0300,1.6800,-71.4375,3.7500,-0.5000,0.1875,76.6250,0.0000,264.7500,
2025-03-08 23:14:02.307,-0.0100,-9.0500,1.5600,-71.1250,3.6875,-0.1250,0.1875,77.3125,0.0000,264.8125,
2025-03-08 23:14:02.319,-0.0900,-9.0700,1.4700,-72.5000,4.5000,-0.1250,0.1875,78.0000,0.0000,264.8125,
2025-03-08 23:14:02.327,-0.0400,-9.0800,1.2800,-73.1875,5.0000,-0.1250,0.1875,78.0000,0.0000,264.8125,
2025-03-08 23:14:02.337,-0.1000,-9.1600,1.2600,-73.6250,4.5625,-0.1875,0.1875,78.7500,0.0000,264.8750,
2025-03-08 23:14:02.347,-0.0300,-9.1200,1.0800,-73.3750,4.8125,-0.6250,0.1875,80.1250,0.0000,264.9375,
2025-03-08 23:14:02.360,-0.0500,-9.1800,1.0000,-72.3750,5.0000,-0.5000,0.1875,80.8750,0.0000,265.0000,
2025-03-08 23:14:02.369,-0.0500,-9.1900,0.9000,-69.0000,4.0625,-0.6250,0.1875,81.5000,0.0000,265.0625,
2025-03-08 23:14:02.376,-0.0500,-9.1800,0.8300,-66.0625,3.1875,-0.1875,0.1875,81.5000,0.0000,265.0625,
2025-03-08 23:14:02.395,-0.0500,-9.2400,0.7200,-63.5625,2.4375,-0.0625,0.1250,82.1250,0.0000,265.0625,
2025-03-08 23:14:02.401,-0.0200,-9.1900,0.3600,-61.2500,2.3125,0.1250,0.1250,83.3750,0.0000,265.1250,
2025-03-08 23:14:02.408,-0.0600,-9.2400,0.4800,-59.0625,2.6250,0.1250,0.1250,83.9375,0.0000,265.1250,
2025-03-08 23:14:02.434,-0.0200,-9.2400,0.1900,-56.5000,4.3125,0.0000,0.1250,84.5000,0.0000,265.1875,
2025-03-08 23:14:02.434,-0.0700,-9.2700,0.3300,-52.6875,5.0000,0.0000,0.1250,84.5000,0.0000,265.1875,
2025-03-08 23:14:02.436,0.0600,-9.1800,-0.4200,-47.3125,5.0000,-0.3125,0.1250,85.0000,0.0000,265.2500,
2025-03-08 23:14:02.451,-0.2000,-9.4200,0.8600,-46.8750,5.0625,-0.3125,0.1250,85.8750,0.0000,265.3125,
2025-03-08 23:14:02.460,0.0000,-9.2300,-0.1300,-32.1875,2.0000,-0.3125,0.1250,86.1875,0.0000,265.3750,
2025-03-08 23:14:02.469,0.2400,-9.1000,-0.9000,-25.6875,1.0625,-0.1250,0.1250,86.4375,0.0000,265.3750,
2025-03-08 23:14:02.476,-0.4100,-9.4900,0.9500,-31.7500,3.1875,0.1250,0.1250,86.4375,0.0000,265.3750,
2025-03-08 23:14:02.487,-0.0100,-9.2600,-0.1900,-10.1875,0.6875,0.0000,0.1250,86.7500,0.0000,265.3750,
2025-03-08 23:14:02.540,-0.0700,-9.3000,-0.0800,0.1250,0.1250,0.0000,0.1250,86.8750,0.0000,265.3750,
2025-03-08 23:14:02.540,-0.0500,-9.2900,-0.0700,8.5625,0.0625,-0.2500,0.1250,86.8125,0.0000,265.3750,
2025-03-08 23:14:02.540,-0.0300,-9.2700,-0.0100,16.1875,0.3125,-0.3125,0.1250,86.6250,0.0000,265.3750,
2025-03-08 23:14:02.540,-0.0500,-9.2900,0.0300,23.8750,0.3125,-0.2500,0.1250,86.6250,0.0000,265.3750,
2025-03-08 23:14:02.540,-0.0300,-9.2800,0.0600,30.9375,0.3125,-0.1250,0.1250,86.3750,0.0000,265.3750,
2025-03-08 23:14:02.548,-0.0300,-9.2400,0.1200,38.1250,0.3750,0.0000,0.1250,85.8125,0.0000,265.3750,
2025-03-08 23:14:02.558,0.0000,-9.2600,0.1000,44.4375,1.7500,0.1250,0.1250,85.4375,0.0000,265.3750,
2025-03-08 23:14:02.572,-0.0400,-9.2200,0.3800,50.0625,3.0000,0.0625,0.1250,85.0000,0.0000,265.4375,
2025-03-08 23:14:02.587,-0.0900,-9.2300,0.5900,57.3750,1.8125,-0.1250,0.1250,84.4375,0.0000,265.4375,
2025-03-08 23:14:02.612,-0.0500,-9.2400,0.6300,60.4375,0.6250,-0.2500,0.1250,83.8750,0.0000,265.4375,
2025-03-08 23:14:02.612,-0.0600,-9.2600,0.7100,64.6250,0.1875,-0.4375,0.1250,83.3125,0.0000,265.4375,
2025-03-08 23:14:02.619,-0.0700,-9.2300,0.8500,71.0000,0.3125,-0.7500,0.1250,82.6875,0.0000,265.4375,
2025-03-08 23:14:02.643,-0.0400,-9.2000,0.9500,85.6250,0.1250,-1.0000,0.1250,81.2500,0.0000,265.5000,
2025-03-08 23:14:02.648,-0.0400,-9.1400,1.1800,93.5625,0.6250,-0.7500,0.1250,80.4375,0.0000,265.5000,
2025-03-08 23:14:02.673,-0.0600,-9.1100,1.6500,110.6875,0.8125,-0.1875,0.1250,78.5000,0.0000,265.5000,
2025-03-08 23:14:02.687,-0.0700,-9.0700,1.8300,131.2500,0.8750,-0.2500,0.1250,76.2500,0.0000,265.5000,
2025-03-08 23:14:02.701,-0.0400,-8.9500,2.1300,140.3125,0.6875,-0.4375,0.1250,75.0000,0.0000,265.5000,
2025-03-08 23:14:02.724,-0.0400,-8.7800,2.6700,157.3125,1.1250,-0.8750,0.1250,72.1875,0.0000,265.5000,
2025-03-08 23:14:02.743,-0.0600,-8.7000,2.9300,174.7500,1.3125,-0.5000,0.1250,69.0625,0.0000,265.5625,
2025-03-08 23:14:02.753,-0.0500,-8.4600,3.5500,180.8125,0.8750,-0.2500,0.1250,67.3750,0.0000,265.5625,
2025-03-08 23:14:02.768,-0.0700,-8.2000,4.0000,197.0625,0.5000,-0.1250,0.1250,63.8125,0.0000,265.5625,
2025-03-08 23:14:02.787,-0.0800,-7.9400,4.4500,213.4375,0.2500,-0.1875,0.1250,59.8750,0.0000,265.5625,
2025-03-08 23:14:02.829,-0.0500,-7.5900,4.9800,222.1875,0.2500,-0.1875,0.1250,57.8125,0.0000,265.5625,
2025-03-08 23:14:02.844,-0.0500,-7.0400,5.7800,235.3750,-2.0625,1.2500,0.1250,53.4375,0.0000,265.5625,
2025-03-08 23:14:02.844,-0.0400,-6.8900,6.2100,237.0625,-1.8125,2.0000,0.1250,48.8750,0.0000,265.5000,
2025-03-08 23:14:02.848,-0.0900,-6.2900,6.6300,221.6875,-1.7500,3.6875,0.1250,46.6250,0.0000,265.4375,
2025-03-08 23:14:02.872,-0.0700,-5.7800,7.1200,219.7500,-0.6250,0.4375,0.0625,42.3750,0.0000,265.3750,
2025-03-08 23:14:02.887,-0.0500,-5.5100,7.3500,214.8125,-1.2500,0.9375,0.1250,38.1250,0.0000,265.3750,
2025-03-08 23:14:02.903,-0.0500,-4.9700,7.7600,198.1250,-1.1250,1.5000,0.1250,36.1250,0.0000,265.3125,
2025-03-08 23:14:02.919,-0.0800,-4.4200,8.2200,184.5000,-0.8750,1.7500,0.1250,32.3750,0.0000,265.3125,
2025-03-08 23:14:02.942,-0.0700,-4.2300,8.3200,175.8750,-1.3750,2.0000,0.1250,28.8750,0.0000,265.2500,
2025-03-08 23:14:02.949,-0.0500,-3.9700,8.4000,157.0625,-0.1250,0.2500,0.1250,27.3125,0.0000,265.2500,
2025-03-08 23:14:02.971,-0.0700,-3.4300,8.6100,156.1250,0.1875,-0.6875,0.1250,24.2500,0.0000,265.2500,
2025-03-08 23:14:02.993,-0.0500,-3.3100,8.6500,160.3125,0.3125,-0.6250,0.1250,21.1875,0.0000,265.2500,
2025-03-08 23:14:03.000,-0.0700,-2.6800,8.8400,178.5000,0.5000,-0.5000,0.1250,19.6250,0.0000,265.2500,
2025-03-08 23:14:03.022,-0.0600,-2.1800,8.9700,203.1250,0.3125,-0.8750,0.1250,16.0625,0.0000,265.2500,
2025-03-08 23:14:03.036,-0.0900,-1.6100,9.0100,217.4375,0.3750,-0.8750,0.1250,11.9375,0.0000,265.2500,
2025-03-08 23:14:03.052,-0.1100,-0.8800,9.1100,253.7500,0.8125,-1.1875,0.1250,9.6875,0.0000,265.2500,
2025-03-08 23:14:03.074,0.5000,2.2100,11.7300,281.8125,0.6875,0.6875,0.1250,4.6250,0.0000,265.2500,
2025-03-08 23:14:03.086,0.0300,0.3900,9.9100,191.1875,-0.4375,7.0625,0.0625,0.0625,0.0000,265.1875,
2025-03-08 23:14:03.128,-0.0200,0.2600,9.4600,2.5000,-0.6250,5.1250,0.0625,-0.2500,0.0000,265.1250,
2025-03-08 23:14:03.134,-0.0800,0.2100,9.5100,6.8125,0.0625,1.0625,0.1250,-0.3125,0.0000,265.0625,
2025-03-08 23:14:03.136,-0.0700,0.1800,9.5000,2.8125,0.1250,0.0000,0.1250,-0.4375,0.0000,265.0625,
2025-03-08 23:14:03.149,-0.0600,0.1600,9.5100,0.1875,0.2500,0.0000,0.1250,-0.4375,0.0000,265.0625,
2025-03-08 23:14:03.172,-0.0500,0.1500,9.5500,1.3125,0.6250,0.0625,0.1250,-0.4375,0.0000,265.0625,
2025-03-08 23:14:03.189,-0.0700,0.1600,9.5100,1.1875,0.2500,0.1250,0.0625,-0.4375,0.0000,265.0625,
2025-03-08 23:14:03.213,-0.0500,0.1800,9.5500,0.7500,0.3125,0.0625,0.0625,-0.5000,0.0000,265.0625,
2025-03-08 23:14:03.230,-0.0600,0.1700,9.5500,0.9375,0.3750,0.0625,0.0625,-0.5000,0.0000,265.0625,
2025-03-08 23:14:03.239,-0.0900,0.1700,9.5100,0.6250,0.5000,0.0625,0.0625,-0.5000,0.0000,265.0625,
2025-03-08 23:14:03.268,-0.0700,0.1700,9.5400,0.3125,0.1250,0.1250,0.0625,-0.5000,0.0000,265.0625,
2025-03-08 23:14:03.276,-0.0600,0.1700,9.5300,0.1875,0.2500,0.2500,0.0625,-0.5625,0.0000,265.0625,
2025-03-08 23:14:03.289,-0.0700,0.1700,9.5000,0.1875,0.1875,0.0625,0.0625,-0.5625,0.0000,265.0625,
2025-03-08 23:14:03.316,-0.0700,0.1900,9.4800,0.4375,0.4375,-0.0625,0.0625,-0.5625,0.0000,265.0625,
2025-03-08 23:14:03.326,-0.0600,0.1800,9.5400,0.3750,0.2500,0.2500,0.0625,-0.5625,0.0000,265.0625,
2025-03-08 23:14:03.338,-0.0600,0.1700,9.5400,0.0625,0.1875,0.0625,0.0625,-0.5625,0.0000,265.0625,
2025-03-08 23:14:03.363,-0.0600,0.1900,9.4700,-0.3125,0.0625,-0.0625,0.0625,-0.5625,0.0000,265.0625,
2025-03-08 23:14:03.377,-0.0600,0.1700,9.5500,-0.3125,0.1250,0.0000,0.0625,-0.5625,0.0000,265.0625,
2025-03-08 23:14:03.390,-0.0800,0.1800,9.5300,-0.4375,-0.1250,-0.1250,0.0625,-0.5625,0.0000,265.0625,
2025-03-08 23:14:03.430,-0.0700,0.1800,9.5000,-0.8125,0.0625,-0.1875,0.0625,-0.5625,0.0000,265.0625,
2025-03-08 23:14:03.432,-0.2100,0.5200,9.5300,-1.9375,0.1250,-1.5625,0.0000,-0.5625,0.0000,265.0625,
2025-03-08 23:14:03.436,-0.0800,0.2100,9.5400,-2.6875,0.1250,-7.5000,0.0000,-0.5000,0.0000,265.1250,
2025-03-08 23:14:03.446,-0.1200,0.3900,9.5300,-4.3125,0.1875,-10.5625,0.0000,-0.5000,0.0000,265.2500,
2025-03-08 23:14:03.459,-0.1000,0.3300,9.5200,-8.1250,0.1875,-13.4375,0.0000,-0.4375,0.0000,265.3750,
2025-03-08 23:14:03.480,-0.1900,0.8500,9.6600,-27.6250,-0.2500,-13.8750,0.0000,-0.0625,0.0000,265.6250,
2025-03-08 23:14:03.486,-0.2000,0.7400,9.6400,-37.9375,-0.5625,-6.1250,0.0000,0.2500,0.0000,265.6875,
2025-03-08 23:14:03.502,0.0300,-0.0800,9.6900,-45.8125,-0.3750,-1.5000,0.0000,0.6875,0.0000,265.6875,
2025-03-08 23:14:03.523,-0.1200,-0.1000,9.7500,-83.2500,0.0000,1.9375,0.0000,2.1250,0.0000,265.6875,
2025-03-08 23:14:03.536,0.0800,-0.7600,9.7300,-138.6250,-0.5000,5.8125,0.0000,4.5000,0.0000,265.6250,
2025-03-08 23:14:03.553,0.0900,-0.9000,9.7200,-173.1250,-0.8750,4.8750,0.0000,6.1875,0.0000,265.5625,
2025-03-08 23:14:03.573,-0.1100,-1.4200,9.3700,-250.3125,-1.0625,2.8125,0.0000,10.6875,0.0000,265.5000,
2025-03-08 23:14:03.602,-0.2200,-2.3000,9.0000,-292.2500,-2.5000,6.3125,0.0000,16.1875,0.0000,265.3750,
2025-03-08 23:14:03.602,-0.1300,-2.9100,8.6800,-294.6250,-3.3125,7.5625,0.0000,19.0625,0.0000,265.3125,
2025-03-08 23:14:03.620,-0.3400,-3.8800,8.2700,-240.4375,-3.3750,5.7500,0.0625,24.0000,0.0000,265.1875,
2025-03-08 23:14:03.637,0.2600,-4.3600,8.0700,-202.8750,-3.7500,6.1875,0.0625,28.0625,0.0000,265.0000,
2025-03-08 23:14:03.650,0.0000,-4.7400,7.9400,-199.0625,-3.6875,6.1875,0.0625,30.0000,0.0000,264.9375,
2025-03-08 23:14:03.668,-0.0800,-5.0300,7.7600,-197.0000,-6.8125,9.1875,0.0625,33.8125,0.0000,264.7500,
2025-03-08 23:14:03.686,-0.1500,-5.6200,7.2700,-198.2500,-8.0000,10.0625,0.0625,37.6250,0.0000,264.5625,
2025-03-08 23:14:03.727,-0.1000,-5.8300,7.0900,-198.5000,-10.3750,11.8125,0.0625,39.5625,0.0000,264.3750,
2025-03-08 23:14:03.729,-0.0700,-6.0700,6.9000,-202.8750,-10.8125,12.0625,0.0625,41.5625,0.0000,264.2500,
2025-03-08 23:14:03.729,-0.0200,-6.6700,6.5200,-197.9375,-10.0625,9.8125,0.0625,43.4375,0.0000,264.1250,
2025-03-08 23:14:03.731,-0.0300,-6.7300,6.4900,-183.0000,-9.8750,7.6250,0.1250,45.2500,0.0000,264.0000,
2025-03-08 23:14:03.741,-0.0500,-6.8200,6.3600,-175.4375,-10.3750,6.7500,0.1250,46.9375,0.0000,263.8750,
2025-03-08 23:14:03.747,-0.0900,-7.0600,5.8600,-180.6250,-10.0625,5.9375,0.1250,48.6875,0.0000,263.8125,
2025-03-08 23:14:03.763,-0.1300,-7.1800,5.7200,-184.3125,-9.5000,4.9375,0.1875,50.4375,0.0000,263.6875,
2025-03-08 23:14:03.766,-0.2000,-7.3200,5.4300,-187.0625,-9.7500,4.9375,0.1875,52.2500,0.0000,263.6250,
2025-03-08 23:14:03.778,-0.1600,-7.5300,5.2700,-188.4375,-10.0625,4.4375,0.1875,54.1250,0.0000,263.5000,
2025-03-08 23:14:03.786,-0.1100,-7.7900,4.7700,-189.7500,-9.0625,2.9375,0.2500,55.9375,0.0000,263.4375,
2025-03-08 23:14:03.801,0.0000,-7.8900,4.5200,-190.1875,-7.4375,2.3125,0.2500,57.7500,0.0000,263.3750,
2025-03-08 23:14:03.806,0.0600,-7.8600,3.8600,-196.0000,-4.6875,3.8750,0.2500,59.6875,0.0000,263.3750,
2025-03-08 23:14:03.820,-0.0800,-8.4000,3.3500,-213.0625,-1.8125,4.7500,0.2500,61.7500,0.0000,263.3125,
2025-03-08 23:14:03.831,-0.0500,-8.2900,3.4100,-226.2500,0.6250,1.5000,0.1875,63.9375,0.0000,263.3125,
2025-03-08 23:14:03.836,-0.0500,-8.6200,2.9500,-241.7500,2.8125,2.6250,0.1875,66.2500,0.0000,263.3125,
2025-03-08 23:14:03.850,-0.2900,-8.5700,2.5500,-260.3750,1.5000,1.5000,0.1250,68.7500,0.0000,263.3125,
2025-03-08 23:14:03.857,-0.2200,-8.6600,1.9700,-282.8125,2.3125,1.3125,0.1250,71.5000,0.0000,263.3125,
2025-03-08 23:14:03.872,0.2000,-8.8900,1.5900,-295.1875,0.9375,0.9375,0.1250,74.3750,0.0000,263.3125,
2025-03-08 23:14:03.876,-0.2100,-8.8800,1.1400,-305.1250,1.2500,1.6250,0.1250,77.3125,0.0000,263.3125,
2025-03-08 23:14:03.887,-0.0600,-8.9800,0.2000,-318.0625,2.4375,0.9375,0.0625,80.3750,0.0000,263.3125,
2025-03-08 23:14:03.900,-0.1600,-9.0800,-0.3200,-327.9375,3.8125,0.8125,0.0625,83.5625,0.0000,263.3750,
2025-03-08 23:14:03.909,0.0500,-9.2000,-0.7500,-333.2500,5.5625,0.7500,0.0625,86.8125,0.0000,263.3750,
2025-03-08 23:14:03.917,0.9500,-12.7500,6.3000,-228.3750,4.8125,5.0625,0.0000,89.0000,0.0000,263.3750,
2025-03-08 23:14:03.933,-0.0100,-9.1600,-0.8900,-120.1250,0.6250,2.5000,0.0000,90.1875,0.0000,263.3750,
2025-03-08 23:14:03.938,0.1600,-9.2100,-1.1100,-122.0625,4.1250,1.1250,0.0000,91.3750,0.0000,263.4375,
2025-03-08 23:14:03.945,0.3000,-9.1200,-1.1700,-119.2500,10.5000,2.1250,0.0000,92.5000,0.0000,263.5000,
2025-03-08 23:14:03.957,-0.0100,-9.1100,-0.9900,-110.6250,11.4375,2.3750,0.0000,93.5625,0.0000,263.5625,
2025-03-08 23:14:03.966,0.0500,-9.0600,-1.3500,-95.6250,9.3750,2.0625,0.0000,94.5000,0.0000,263.6875,
2025-03-08 23:14:03.976,-0.0800,-9.0700,-1.4600,-82.3125,7.1250,1.7500,0.0000,95.3125,0.0000,263.7500,
2025-03-08 23:14:03.986,-0.1700,-9.0700,-1.5300,-69.5000,4.6875,1.3750,0.0000,96.0000,0.0000,263.7500,
2025-03-08 23:14:04.027,-0.0700,-9.1100,-1.7500,-57.0000,2.2500,0.6875,0.0000,96.5625,0.0000,263.7500,
2025-03-08 23:14:04.027,-0.0400,-9.0700,-1.8600,-45.6250,0.5625,0.1875,0.0000,97.0000,0.0000,263.7500,
2025-03-08 23:14:04.032,-0.3000,-9.0400,-1.8700,-33.8750,-0.0625,0.1875,0.0000,97.3125,0.0000,263.7500,
2025-03-08 23:14:04.032,-0.5600,-9.0200,-1.8900,-22.3750,0.4375,0.1875,0.0000,97.5000,0.0000,263.7500,
2025-03-08 23:14:04.040,-0.0300,-9.0400,-1.9000,-13.7500,0.0625,0.3125,0.0000,97.6250,0.0000,263.7500,
2025-03-08 23:14:04.046,-0.0800,-9.0500,-1.9000,-5.9375,-0.1250,0.2500,0.0000,97.6875,0.0000,263.7500,
2025-03-08 23:14:04.063,-0.0800,-9.0500,-1.9100,1.3125,-0.1250,-0.1250,0.0000,97.6875,0.0000,263.7500,
2025-03-08 23:14:04.067,-0.0600,-9.0300,-1.9000,9.0625,0.0000,-0.1250,0.0000,97.6250,0.0000,263.7500,
2025-03-08 23:14:04.077,-0.0800,-9.0200,-1.8600,17.6250,-0.0625,0.0625,0.0000,97.4375,0.0000,263.7500,
2025-03-08 23:14:04.086,-0.1000,-8.9900,-1.8500,27.0000,-0.1250,-0.0625,0.0000,97.4375,0.0000,263.7500,
2025-03-08 23:14:04.096,-0.0700,-9.0500,-1.8200,38.9375,0.1875,-0.4375,0.0000,97.1875,0.0000,263.7500,
2025-03-08 23:14:04.110,-0.0700,-9.0800,-1.6800,51.2500,0.0625,-0.6250,-0.0625,96.4375,0.0000,263.7500,
2025-03-08 23:14:04.117,-0.0700,-9.0900,-1.5800,63.9375,0.1875,-0.4375,-0.0625,95.9375,0.0000,263.7500,
2025-03-08 23:14:04.126,-0.0700,-9.0900,-1.4600,77.0000,0.4375,-0.3750,-0.0625,95.1875,0.0000,263.7500,
2025-03-08 23:14:04.136,-0.0600,-9.0900,-1.2200,88.7500,0.3750,-0.3750,-0.0625,95.1875,0.0000,263.7500,
2025-03-08 23:14:04.147,-0.0300,-9.1100,-1.0900,99.1250,0.8125,-0.5000,-0.0625,94.3125,0.0000,263.7500,
2025-03-08 23:14:04.159,-0.0200,-9.1500,-0.9300,111.0625,2.6250,-0.3125,-0.0625,92.2500,0.0000,263.8125,
2025-03-08 23:14:04.166,-0.0500,-9.1700,-0.7200,123.6250,5.1875,-0.1875,-0.0625,91.0625,0.0000,263.8750,
2025-03-08 23:14:04.178,-0.2100,-10.2000,0.3100,128.8125,5.6875,-0.8750,-0.0625,89.8125,0.0000,263.9375,
2025-03-08 23:14:04.186,-0.0100,-9.6300,-0.3500,100.6250,2.0625,-5.5625,-0.0625,89.8125,0.0000,263.9375,
2025-03-08 23:14:04.213,0.0000,-9.4500,-0.4400,88.8125,0.1250,-4.1250,0.0000,88.8750,0.0000,264.0000,
2025-03-08 23:14:04.213,-0.0700,-9.2200,0.0700,105.5625,0.5625,-1.0000,0.0000,87.0000,0.0000,264.0625,
2025-03-08 23:14:04.244,-0.0600,-9.2100,0.2200,112.6250,0.8750,-1.0000,0.0000,85.8750,0.0000,264.0625,
2025-03-08 23:14:04.244,-0.0600,-9.2300,0.3600,116.4375,0.9375,-1.3125,0.0000,84.7500,0.0000,264.0625,
2025-03-08 23:14:04.245,-0.0500,-9.2300,0.5200,120.3125,1.5000,-1.2500,0.0000,84.7500,0.0000,264.0625,
2025-03-08 23:14:04.246,-0.0400,-9.1600,0.8200,125.1250,1.5625,-1.0000,0.0625,83.5625,0.0000,264.1250,
2025-03-08 23:14:04.259,-0.0400,-9.1100,1.0100,130.9375,2.1250,-1.1250,0.0625,81.1250,0.0000,264.1250,
2025-03-08 23:14:04.276,-0.0200,-9.1300,1.1600,135.9375,2.7500,-0.8125,0.0625,79.8125,0.0000,264.1875,
2025-03-08 23:14:04.281,-0.0400,-9.1200,1.2400,141.0625,2.8125,-0.9375,0.0625,78.4375,0.0000,264.1875,
2025-03-08 23:14:04.286,-0.0500,-9.0200,1.7200,145.8750,3.1250,-0.8750,0.0625,78.4375,0.0000,264.1875,
2025-03-08 23:14:04.304,-0.0400,-9.0000,1.8900,151.2500,2.0000,-0.6250,0.0625,77.0000,0.0000,264.2500,
2025-03-08 23:14:04.342,-0.0500,-8.9500,2.0800,156.6250,1.4375,-0.5000,0.0625,74.0625,0.0000,264.2500,
2025-03-08 23:14:04.342,-0.0300,-8.8000,2.4500,163.6875,1.3125,-0.7500,0.0625,72.4375,0.0000,264.3125,
2025-03-08 23:14:04.342,-0.0900,-8.7600,2.7100,173.9375,2.1875,-0.5000,0.0625,70.7500,0.0000,264.3125,
2025-03-08 23:14:04.342,-0.0700,-8.7200,2.9200,182.3750,1.6250,-0.3125,0.0625,70.7500,0.0000,264.3125,
2025-03-08 23:14:04.347,-0.0700,-8.7200,2.9200,190.9375,1.1875,-0.3125,0.0625,69.0000,0.0000,264.3125,
2025-03-08 23:14:04.361,-0.0400,-8.3600,3.6200,197.9375,1.0000,-0.6875,0.0625,65.2500,0.0000,264.3125,
2025-03-08 23:14:04.377,-0.0700,-8.1000,4.1300,203.8750,0.9375,-0.5625,0.0625,63.2500,0.0000,264.3125,
2025-03-08 23:14:04.397,-0.0700,-7.7100,4.8600,205.1875,0.3125,-0.4375,0.0625,59.3125,0.0000,264.3125,
2025-03-08 23:14:04.407,-0.0600,-7.5600,5.0800,204.5000,0.3125,-0.3750,0.0625,57.3125,0.0000,264.3125,
2025-03-08 23:14:04.417,-0.0700,-7.4300,5.3600,204.6875,-0.5000,-0.1875,0.0625,55.3750,0.0000,264.3125,
2025-03-08 23:14:04.443,-0.0300,-7.1200,5.7300,208.1250,-1.0625,0.7500,0.0625,51.3750,0.0000,264.3125,
2025-03-08 23:14:04.448,-0.0200,-7.0000,5.9400,210.7500,-1.0625,2.1875,0.0625,49.3750,0.0000,264.3125,
2025-03-08 23:14:04.464,-0.0400,-6.5600,6.5300,210.0625,-0.8125,2.6875,0.0625,47.3125,0.0000,264.2500,
2025-03-08 23:14:04.477,-0.0700,-5.9300,7.0100,210.0625,-1.1875,1.3750,0.0000,43.2500,0.0000,264.2500,
2025-03-08 23:14:04.497,-0.0600,-5.7900,7.1200,201.0625,-1.4375,1.5625,0.0000,39.2500,0.0000,264.1875,
2025-03-08 23:14:04.508,-0.0200,-5.2200,7.5800,197.2500,-2.1250,2.5000,0.0000,37.3125,0.0000,264.1875,
2025-03-08 23:14:04.531,-0.0600,-4.5800,8.0700,185.0625,-0.9375,1.5625,0.0000,33.5000,0.0000,264.1250,
2025-03-08 23:14:04.553,-0.0600,-4.3300,8.2000,179.6250,-2.3750,4.5000,0.0000,30.0000,0.0000,264.0625,
2025-03-08 23:14:04.558,-0.0800,-4.1500,8.2700,179.5000,-3.4375,6.8750,0.0000,28.2500,0.0000,264.0000,
2025-03-08 23:14:04.582,-0.1300,-3.3400,8.5900,188.6250,-2.9375,6.4375,0.0000,24.7500,0.0000,263.8750,
2025-03-08 23:14:04.634,-0.1400,-3.2700,8.5800,214.2500,-2.1250,5.3125,0.0000,21.0000,0.0000,263.6875,
2025-03-08 23:14:04.641,-0.4000,-2.1500,8.9900,231.8750,-1.8750,3.8750,0.0000,18.9375,0.0000,263.6250,
2025-03-08 23:14:04.641,-0.0100,-2.0300,9.1300,241.0000,-1.8750,7.5000,0.0625,14.3125,0.0000,263.5625,
2025-03-08 23:14:04.647,0.0100,-1.1100,9.3900,234.6875,-1.0625,5.8750,0.0625,9.7500,0.0000,263.4375,
2025-03-08 23:14:04.663,-0.3300,-0.4500,9.4700,210.3125,-0.0625,5.7500,0.0625,7.5625,0.0000,263.3125,
2025-03-08 23:14:04.679,-0.1600,1.0600,10.5900,196.5000,0.3750,7.0625,0.0625,3.5625,0.0000,263.2500,
2025-03-08 23:14:04.704,1.1400,0.9900,10.5500,162.0000,0.6875,9.0625,0.0000,0.0625,0.0000,263.0625,
2025-03-08 23:14:04.708,-0.0800,0.0300,9.5200,1.9375,-0.0625,2.0625,0.0000,-0.3125,0.0000,263.0000,
2025-03-08 23:14:04.732,-0.0600,0.2300,9.5000,1.4375,0.2500,4.8750,0.0000,-0.3125,0.0000,262.9375,
2025-03-08 23:14:04.749,-0.0700,0.1500,9.5100,1.1250,0.4375,4.6250,0.0000,-0.3750,0.0000,262.8750,
2025-03-08 23:14:04.762,-0.0600,0.1700,9.5300,0.0000,0.1875,0.8125,0.0000,-0.3750,0.0000,262.8125,
2025-03-08 23:14:04.783,-0.0800,0.1900,9.4900,0.3125,0.3125,0.0625,0.0000,-0.3750,0.0000,262.8125,
2025-03-08 23:14:04.803,-0.0600,0.1900,9.5300,-0.1250,-0.4375,-0.0625,0.0000,-0.3750,0.0000,262.8125,
2025-03-08 23:14:04.822,-0.1000,0.1800,9.6200,-0.9375,-1.6875,-0.1875,0.0000,-0.3750,0.0000,262.8125,
2025-03-08 23:14:04.836,-0.1600,0.4400,9.6500,-1.3750,-2.8750,0.1250,0.0625,-0.3750,0.0000,262.8125,
2025-03-08 23:14:04.852,-0.0900,0.2200,9.7000,-1.1250,-5.1875,0.9375,0.0625,-0.3750,0.0000,262.8125,
2025-03-08 23:14:04.859,-0.0100,-0.1500,9.6300,-1.0000,-10.8750,1.0625,0.1875,-0.3750,0.0000,262.8125,
2025-03-08 23:14:04.881,-0.1600,0.0300,10.8600,-3.5625,-28.8125,-0.3750,0.4375,-0.3125,0.0000,262.7500,
2025-03-08 23:14:04.925,-0.0400,0.0700,10.8100,-5.9375,-46.6875,-1.6250,1.1875,-0.2500,0.0000,262.8125,
2025-03-08 23:14:04.935,0.2500,0.0600,10.0900,-3.8750,-84.2500,-3.7500,1.8125,-0.1875,0.0000,262.8125,
2025-03-08 23:14:04.935,0.6500,0.2100,9.7800,-1.1875,-100.3125,-5.0000,3.5625,-0.1250,0.0000,262.9375,
2025-03-08 23:14:04.949,0.7300,0.2900,10.0700,-0.1875,-102.9375,-4.3750,5.5000,-0.1250,0.0000,263.0000,
2025-03-08 23:14:04.965,0.8100,0.1600,10.1900,1.6250,-120.1875,-0.9375,6.5625,-0.1250,0.0000,263.0000,
2025-03-08 23:14:04.981,1.1500,0.1200,10.3900,1.0625,-150.1250,-0.4375,9.0625,-0.1875,0.0000,263.0625,
2025-03-08 23:14:04.996,1.2500,0.1800,10.4600,3.8750,-168.5000,2.5625,12.1250,-0.1875,0.0000,263.0000,
2025-03-08 23:14:05.010,1.8900,0.4200,9.1800,6.1250,-194.1250,3.7500,13.9375,-0.2500,0.0000,262.9375,
2025-03-08 23:14:05.031,2.4400,0.0900,8.9600,7.7500,-197.0000,6.7500,17.7500,-0.3750,0.0000,262.8750,
2025-03-08 23:14:05.045,3.2800,0.3300,8.3700,7.6875,-198.3750,6.2500,21.5625,-0.5000,0.0000,262.7500,
2025-03-08 23:14:05.063,3.6400,0.1700,7.9200,8.0625,-190.1875,6.3125,23.4375,-0.5000,0.0000,262.6250,
2025-03-08 23:14:05.080,4.7100,-0.4800,7.3400,12.2500,-161.7500,13.6250,27.0000,-0.6875,0.0000,262.5000,
2025-03-08 23:14:05.101,6.3300,-0.0200,8.4800,4.4375,-155.6875,9.5000,30.0625,-0.7500,0.0000,262.2500,
2025-03-08 23:14:05.108,5.5200,0.1000,8.1300,-2.3125,-172.5000,6.4375,31.6250,-0.7500,0.0000,262.1875,
2025-03-08 23:14:05.133,5.1300,0.4200,6.8400,-3.4375,-179.6250,5.6875,35.0625,-0.6250,0.0000,262.1250,
2025-03-08 23:14:05.147,5.7700,0.3400,5.8500,6.1250,-160.8750,4.5625,38.3125,-0.6250,0.0000,262.0000,
2025-03-08 23:14:05.161,5.9400,0.1900,6.1300,12.0000,-140.9375,3.8125,39.6875,-0.7500,0.0000,261.9375,
2025-03-08 23:14:05.191,6.4500,0.3100,7.0500,9.1250,-108.3125,4.1875,41.8750,-0.8750,0.0000,261.8125,
2025-03-08 23:14:05.235,6.5800,0.1800,6.9400,-3.8750,-117.3125,4.4375,44.0625,-0.8125,0.0000,261.7500,
2025-03-08 23:14:05.235,6.6100,0.1900,6.3200,-8.7500,-127.3750,3.0000,45.3125,-0.7500,0.0000,261.7500,
2025-03-08 23:14:05.235,6.9800,0.2800,5.5200,-8.8750,-128.8750,-1.8125,47.8125,-0.5625,0.0000,261.8750,
2025-03-08 23:14:05.252,7.3200,0.0800,6.1100,-8.6875,-116.4375,-7.9375,50.1250,-0.6250,0.0000,262.0625,
2025-03-08 23:14:05.261,7.4600,0.1900,6.4100,-17.8125,-117.3125,-11.1250,51.3125,-0.5625,0.0000,262.2500,
2025-03-08 23:14:05.281,7.7300,0.1100,5.8200,-30.6875,-133.5625,-12.3125,53.7500,-0.3750,0.0000,262.7500,
2025-03-08 23:14:05.301,7.9900,-0.3100,4.2900,-39.3125,-146.3750,-16.1250,56.5625,-0.0625,0.0000,263.4375,
2025-03-08 23:14:05.308,8.1400,0.0300,4.2700,-39.3125,-146.3750,-16.1250,58.0000,0.0625,0.0000,263.8125,
2025-03-08 23:14:05.334,8.4300,0.0300,4.5300,-31.8750,-147.3125,-23.5625,60.8125,0.0625,0.0000,264.6875,
2025-03-08 23:14:05.348,8.6800,0.0000,3.2400,-13.7500,-170.9375,-32.0000,64.0625,-0.7500,0.0000,265.5000,
2025-03-08 23:14:05.366,8.0600,0.4600,2.7800,-18.7500,-170.0000,-33.4375,65.6875,-1.3125,0.0000,265.9375,
2025-03-08 23:14:05.384,8.6400,0.3900,2.9500,-21.1875,-149.1250,-31.8750,68.6875,-2.6875,0.0000,266.8750,
2025-03-08 23:14:05.403,11.2100,0.8900,2.8800,-9.8125,-128.3125,-27.6250,71.2500,-4.3750,0.0000,267.6250,
2025-03-08 23:14:05.408,11.2500,0.5400,3.2600,-18.8750,-119.3125,-25.0000,72.3750,-5.2500,0.0000,268.0000,
2025-03-08 23:14:05.428,11.3100,0.8300,2.8600,-21.8750,-119.1250,-25.5000,74.5625,-7.3125,0.0000,268.8750,
2025-03-08 23:14:05.450,9.9500,0.9800,1.9500,-5.4375,-127.4375,-20.5625,76.9375,-10.2500,0.0000,269.5625,
2025-03-08 23:14:05.458,9.2500,0.8600,1.0100,6.6250,-122.7500,-15.6875,78.0625,-12.0625,0.0000,269.6875,
2025-03-08 23:14:05.494,8.4400,0.9300,0.3200,17.0000,-99.6875,-6.7500,80.0000,-15.6875,0.0000,269.7500,
2025-03-08 23:14:05.533,8.8000,0.8600,0.7400,2.4375,-78.9375,-1.2500,81.5000,-19.1250,0.0000,269.6875,
2025-03-08 23:14:05.533,9.3900,0.9200,0.9300,-8.5000,-78.9375,0.7500,82.2500,-20.8125,0.0000,269.8125,
2025-03-08 23:14:05.533,9.2400,1.1100,0.8400,-13.7500,-82.1875,2.9375,83.0000,-22.7500,0.0000,269.9375,
2025-03-08 23:14:05.533,9.1900,1.0600,0.3600,-15.1875,-83.2500,4.3750,83.7500,-2.6250,0.0000,270.0625,
2025-03-08 23:14:05.537,8.4100,0.8500,-0.5400,-21.9375,-79.9375,4.5625,84.4375,-2.5625,0.0000,270.1875,
2025-03-08 23:14:05.552,8.2600,0.6100,-0.6500,-27.3125,-72.2500,4.0000,85.0625,-2.5000,0.0000,270.4375,
2025-03-08 23:14:05.557,7.8100,0.6300,-0.6400,-32.1250,-58.5625,2.1250,85.5625,-2.4375,0.0000,270.7500,
2025-03-08 23:14:05.570,7.6000,0.7700,-0.5500,-45.0625,-41.7500,2.2500,85.9375,-2.3750,0.0000,271.1250,
2025-03-08 23:14:05.578,7.6500,0.8400,-0.3800,-46.6250,-24.3125,4.3125,86.1250,-2.3125,0.0000,271.5625,
2025-03-08 23:14:05.586,8.3000,0.8700,-0.3200,-38.8750,-12.0000,6.5000,86.2500,-2.2500,0.0000,271.8125,
2025-03-08 23:14:05.595,8.7200,0.7800,-0.1100,-26.9375,-5.5000,6.8750,86.3750,-2.1875,0.0000,272.0000,
2025-03-08 23:14:05.607,9.6200,0.6700,-0.4500,-19.0000,-4.0625,7.8125,86.4375,-2.0625,0.0000,272.1250,
2025-03-08 23:14:05.618,9.4600,0.6700,-0.6400,-3.8125,-1.7500,9.3125,86.5000,-2.0000,0.0000,272.0625,
2025-03-08 23:14:05.626,9.2700,0.5900,-0.5200,6.3750,5.2500,11.1250,86.5000,-1.8750,0.0000,271.8750,
2025-03-08 23:14:05.636,9.1000,0.4700,-0.5200,8.8750,18.6875,11.8750,86.4375,-1.7500,0.0000,271.6875,
2025-03-08 23:14:05.645,9.0700,0.4100,-0.5600,7.8125,38.1250,12.0000,86.1250,-1.6875,0.0000,271.5000,
2025-03-08 23:14:05.664,9.2600,0.3100,-0.6400,4.6250,59.3125,10.6875,85.6875,-1.5625,0.0000,271.3125,
2025-03-08 23:14:05.666,9.1500,0.5700,-0.6900,7.8125,80.3125,8.6875,84.9375,-1.5000,0.0000,271.1875,
2025-03-08 23:14:05.681,9.4800,0.3600,-0.2600,16.8750,103.0000,5.5625,84.0000,-1.4375,0.0000,270.9375,
2025-03-08 23:14:05.687,9.2900,0.5700,-0.0500,25.6250,125.6250,0.8750,82.8125,-12.0625,0.0000,270.6875,
2025-03-08 23:14:05.702,9.3800,0.4500,-0.1000,41.2500,145.3750,-2.8125,81.4375,-10.6250,0.0000,270.3125,
2025-03-08 23:14:05.707,9.9000,0.4300,-0.0300,57.8125,159.2500,-4.9375,79.9375,-9.8125,0.0000,269.8750,
2025-03-08 23:14:05.723,9.9100,0.5500,-0.2800,54.1875,172.1250,-4.3125,78.2500,-9.1250,0.0000,269.4375,
2025-03-08 23:14:05.727,9.7100,0.5100,0.1400,41.1875,192.1875,-1.6250,76.4375,-8.3125,0.0000,269.0625,
2025-03-08 23:14:05.743,9.6700,0.1200,0.1800,43.8750,220.8750,-0.6875,74.3125,-7.6250,0.0000,268.6875,
2025-03-08 23:14:05.745,8.6000,0.4700,-0.2700,49.6250,244.5000,-4.5000,71.9375,-7.2500,0.0000,268.3125,
2025-03-08 23:14:05.756,7.2200,-0.1400,-0.0200,14.3125,242.3750,-5.7500,69.6250,-6.6875,0.0000,268.1875,
2025-03-08 23:14:05.773,7.2400,0.2700,0.2600,-31.8125,221.5000,-10.1875,67.5000,-6.0625,0.0000,268.4375,
2025-03-08 23:14:05.776,7.1100,1.3700,1.9500,-44.8750,202.8750,-9.5000,65.5000,-5.3750,0.0000,268.7500,
2025-03-08 23:14:05.790,6.8400,0.5100,4.7900,-18.2500,197.9375,2.5000,63.6250,-4.8125,0.0000,268.8125,
2025-03-08 23:14:05.837,7.4700,0.4600,5.1200,13.8125,200.1875,10.0625,61.6875,-4.4375,0.0000,268.5625,
2025-03-08 23:14:05.837,7.5700,0.1400,4.8100,36.0625,206.9375,13.3125,59.6875,-4.2500,0.0000,268.1875,
2025-03-08 23:14:05.837,7.3600,0.4900,4.5900,51.3750,219.8750,13.1875,57.6250,-4.3125,0.0000,267.6875,
2025-03-08 23:14:05.837,7.5100,0.5100,3.3900,63.8125,245.5000,12.4375,55.2500,-4.4375,0.0000,267.1875,
2025-03-08 23:14:05.837,7.9600,0.3700,3.9400,40.6250,266.6250,14.0000,52.6875,-4.3750,0.0000,266.8125,
2025-03-08 23:14:05.846,7.9200,0.4300,4.6300,-6.8125,272.8750,16.3125,50.0625,-3.8750,0.0000,266.5625,
2025-03-08 23:14:05.857,7.0400,0.4900,5.0200,-39.5625,284.0625,17.3750,47.3125,-3.1250,0.0000,266.5000,
2025-03-08 23:14:05.876,6.2300,0.6400,5.4700,-58.3125,303.3125,15.5625,44.3750,-2.2500,0.0000,266.5625,
2025-03-08 23:14:05.877,5.4100,1.3700,6.6200,-66.9375,312.0625,18.5000,41.3750,-1.3750,0.0000,266.6250,
2025-03-08 23:14:05.888,4.9000,1.2400,7.2900,-46.7500,309.9375,30.0625,38.3750,-0.6250,0.0000,266.4375,
2025-03-08 23:14:05.896,4.5000,0.4400,7.8500,-11.6250,301.8750,34.0000,35.5000,-0.2500,0.0000,266.1250,
2025-03-08 23:14:05.906,3.6300,0.4500,7.8000,22.3750,289.6250,30.6250,32.6875,-0.2500,0.0000,265.7500,
2025-03-08 23:14:05.924,3.2100,0.4300,7.7800,39.3125,281.5625,25.1875,29.9375,-0.4375,0.0000,265.4375,
2025-03-08 23:14:05.926,2.3800,0.0000,7.8700,43.5625,284.4375,17.3750,27.1875,-0.7500,0.0000,265.1250,
2025-03-08 23:14:05.937,2.4500,-0.1100,8.8000,31.5625,287.1875,8.8125,24.4375,-1.0000,0.0000,264.9375,
2025-03-08 23:14:05.948,2.9500,-0.1100,10.0700,0.9375,274.3125,4.5625,24.4375,-1.0000,0.0000,264.9375,
2025-03-08 23:14:05.962,3.5100,0.3200,10.3700,-16.5000,248.4375,3.8750,21.7500,-1.0000,0.0000,264.8750,
2025-03-08 23:14:05.967,2.8100,0.5400,10.1700,-12.7500,223.0625,3.4375,17.1875,-0.6250,0.0000,264.8125,
2025-03-08 23:14:05.980,3.2400,0.6200,10.0300,1.7500,198.8125,2.3125,15.2500,-0.6250,0.0000,264.8125,
2025-03-08 23:14:05.992,3.1100,0.4500,9.4300,22.2500,175.8750,4.5000,13.5625,-0.8750,0.0000,264.6875,
2025-03-08 23:14:05.996,1.4600,0.6400,8.4200,36.5625,159.4375,7.1250,13.5625,-0.8750,0.0000,264.6875,
2025-03-08 23:14:06.007,0.8100,0.3500,8.0100,45.5625,154.8750,6.5625,12.0625,-1.1875,0.0000,264.5625,
2025-03-08 23:14:06.024,0.4500,0.3900,8.4000,40.8125,158.7500,4.2500,9.0000,-2.0000,0.0000,264.3750,
2025-03-08 23:14:06.029,0.2400,0.3400,8.9200,19.2500,158.1250,5.5000,7.5000,-2.1250,0.0000,264.2500,
2025-03-08 23:14:06.045,0.0700,0.3400,10.0700,7.1875,149.0000,8.6875,6.0625,-2.1875,0.0000,264.1250,
2025-03-08 23:14:06.051,0.3200,0.4800,10.3000,11.0000,134.3125,6.6875,6.0625,-2.1875,0.0000,264.1250,
2025-03-08 23:14:06.075,0.4700,0.4500,10.7500,26.2500,104.8125,-0.7500,2.5625,-2.6875,0.0000,263.9375,
2025-03-08 23:14:06.080,0.7400,0.6700,10.2700,41.8750,89.3125,-3.5625,1.6875,-3.0625,0.0000,263.9375,
2025-03-08 23:14:06.091,0.4000,0.6200,10.0500,52.0625,81.1875,-3.0000,0.9375,-3.5625,0.0000,264.0000,
2025-03-08 23:14:06.133,-0.0200,0.6600,9.7900,61.3750,82.8750,0.3125,0.9375,-3.5625,0.0000,264.0000,
2025-03-08 23:14:06.139,-0.7200,0.8900,9.4100,57.1250,85.2500,2.6250,0.1250,-4.1875,0.0000,263.9375,
2025-03-08 23:14:06.139,-0.5400,0.8300,9.4700,26.1250,82.1875,3.6875,-1.4375,-5.0000,0.0000,263.8125,
2025-03-08 23:14:06.139,-0.4500,0.8400,9.8100,-7.1875,79.8750,3.0000,-2.1875,-4.9375,0.0000,263.7500,
2025-03-08 23:14:06.139,-0.5700,0.9900,10.0900,-20.0000,74.5625,1.5000,-2.9375,-4.7500,0.0000,263.6875,
2025-03-08 23:14:06.157,-0.0400,0.7800,10.7000,12.2500,51.4375,-4.7500,-3.5625,-4.6875,0.0000,263.6875,
2025-03-08 23:14:06.172,0.1600,0.8600,10.8600,24.3750,37.2500,-4.6250,-4.4375,-5.0625,0.0000,263.7500,
2025-03-08 23:14:06.178,-0.5500,1.1200,10.6900,36.4375,23.7500,-2.3125,-4.6250,-5.4375,0.0000,263.8125,
2025-03-08 23:14:06.196,-0.7400,1.1900,10.1400,37.8750,13.3750,2.7500,-4.7500,-5.7500,0.0000,263.7500,
2025-03-08 23:14:06.207,-0.8300,1.6800,10.8500,-4.2500,12.2500,10.6250,-4.8750,-6.0000,0.0000,263.6875,
2025-03-08 23:14:06.219,-0.4200,1.0300,10.7200,-45.5625,-5.3750,12.9375,-5.0000,-6.0000,0.0000,263.5625,
2025-03-08 23:14:06.234,-0.8800,1.1600,10.5600,-55.5625,-12.6250,9.6875,-4.9375,-5.5625,0.0000,263.4375,
2025-03-08 23:14:06.246,-0.8400,1.0200,10.3900,-36.4375,-1.1875,8.5625,-4.7500,-4.5625,0.0000,263.2500,
2025-03-08 23:14:06.261,-0.6100,0.9000,10.0600,-20.6250,-2.6875,7.6875,-4.6875,-4.1875,0.0000,263.1250,
2025-03-08 23:14:06.268,-0.5500,0.8300,9.7100,-10.2500,-2.4375,7.0000,-4.6875,-4.0000,0.0000,263.0625,
2025-03-08 23:14:06.291,-0.4100,0.8500,8.8200,-11.5000,-0.6875,4.4375,-4.6250,-3.8125,0.0000,262.9375,
2025-03-08 23:14:06.311,-0.3200,0.8700,8.6900,-23.8125,-12.8750,1.8750,-4.5625,-3.5625,0.0000,262.8125,
2025-03-08 23:14:06.322,-0.2400,0.5600,8.8400,-30.5000,-19.5000,-0.3125,-4.4375,-3.3125,0.0000,262.8125,
2025-03-08 23:14:06.341,-0.6200,0.3300,9.2700,-48.6250,-33.7500,-1.6875,-4.0000,-2.6875,0.0000,262.8125,
2025-03-08 23:14:06.363,-0.4700,0.2900,9.4200,-72.6875,-37.2500,-1.9375,-3.3125,-1.5625,0.0000,262.8125,
2025-03-08 23:14:06.371,0.0000,0.0700,9.8800,-41.3750,-45.3125,-2.9375,-2.9375,-0.8750,0.0000,262.8125,
2025-03-08 23:14:06.389,-0.3800,-0.0400,10.9100,1.5625,-29.5625,-1.9375,-2.0625,-0.4375,0.0000,262.8750,
2025-03-08 23:14:06.454,-0.0700,0.1900,9.5400,-0.4375,-0.8750,0.2500,-1.7500,-0.4375,0.0000,262.9375,
2025-03-08 23:14:06.454,-0.0800,0.1900,9.5300,-0.3750,-0.6875,0.0000,-1.6875,-0.4375,0.0000,262.9375,
2025-03-08 23:14:06.454,-0.1600,0.0300,9.5100,0.0625,-0.3125,0.4375,-1.6875,-0.4375,0.0000,262.9375,
2025-03-08 23:14:06.462,-0.1600,0.1400,9.5200,0.1250,-0.6875,1.0625,-1.6875,-0.4375,0.0000,320.2500,
2025-03-08 23:14:06.483,-0.0800,0.2200,9.5200,0.2500,-0.8750,0.8750,-1.6875,-0.4375,0.0000,320.1875,
2025-03-08 23:14:06.514,-0.0900,0.1900,9.5200,0.0625,-1.0625,0.4375,-1.6875,-0.4375,0.0000,320.1875,
2025-03-08 23:14:06.514,-0.0700,0.1800,9.5800,0.1250,-1.5000,0.1875,-1.6250,-0.4375,0.0000,320.1875,
2025-03-08 23:14:06.517,-0.0200,0.1000,9.6400,1.0625,-3.8750,-1.0625,-1.6250,-0.5000,0.0000,320.1875,
2025-03-08 23:14:06.534,0.6200,-0.1300,10.4300,4.7500,-8.7500,-3.0625,-1.5625,-0.5000,0.0000,320.2500,
2025-03-08 23:14:06.546,-0.0100,0.3400,11.1700,17.6250,-17.6875,-5.6250,-1.3125,-0.6875,0.0000,320.3125,
2025-03-08 23:14:06.556,0.0900,0.2200,11.4800,20.8750,-37.8750,-6.6250,-0.9375,-0.8750,0.0000,320.5625,
2025-03-08 23:14:06.568,0.7200,-0.0100,11.9300,6.3750,-88.0625,-13.5625,-0.3125,-1.0000,0.0000,320.6250,
2025-03-08 23:14:06.595,1.0400,-0.1000,12.1000,4.9375,-115.4375,-16.1875,1.5000,-1.1250,0.0000,320.9375,
2025-03-08 23:14:06.607,1.6200,-0.1200,12.2000,-3.7500,-126.4375,-16.3750,3.8125,-1.1250,0.0000,321.3750,
2025-03-08 23:14:06.623,0.9900,0.3300,12.2100,-41.1875,-166.8125,-19.4375,5.1875,-0.9375,0.0000,321.5625,
2025-03-08 23:14:06.643,2.6700,0.1200,12.0000,-73.3750,-184.7500,-28.8125,8.5625,-0.0625,0.0000,322.0625,
2025-03-08 23:14:06.656,3.3300,0.1700,11.9400,-80.1875,-184.6250,-32.5625,12.1875,1.2500,0.0000,322.7500,
2025-03-08 23:14:06.669,3.1000,-0.7100,10.7200,-50.8750,-216.1875,-34.1250,14.0625,1.9375,0.0000,323.1250,
2025-03-08 23:14:06.690,1.6700,-0.6100,10.9300,10.7500,-270.1250,-32.5625,18.5000,2.4375,0.0000,323.8125,
2025-03-08 23:14:06.730,1.9500,-0.7000,11.1200,10.3125,-294.0000,-29.5000,24.0000,2.0625,0.0000,324.2500,
2025-03-08 23:14:06.730,3.8100,1.0100,10.5400,21.5000,-338.3750,-18.8125,27.0625,1.8750,0.0000,324.5000,
2025-03-08 23:14:06.741,4.5600,0.6700,7.5300,81.2500,-402.1250,0.5000,33.9375,1.1875,0.0000,324.4375,
2025-03-08 23:14:06.756,4.6300,-0.3500,3.2000,79.2500,-406.6250,-0.7500,41.7500,-0.3125,0.0000,323.8750,
2025-03-08 23:14:06.778,4.1000,0.5500,3.7900,15.3125,-312.8750,-3.0625,45.3750,-0.8125,0.0000,323.6875,
2025-03-08 23:14:06.790,4.7000,0.3800,3.7500,-23.2500,-241.1250,-5.4375,51.0000,-1.0625,0.0000,323.7500,
2025-03-08 23:14:06.811,6.3300,0.3300,3.6400,-30.1875,-223.1250,-7.2500,55.5000,-0.8125,0.0000,324.1875,
2025-03-08 23:14:06.820,6.8900,0.1400,3.6100,-57.8125,-199.1250,-11.0625,57.5625,-0.6250,0.0000,324.5000,
2025-03-08 23:14:06.841,7.1800,0.7700,3.2300,-60.4375,-177.4375,-8.3750,61.2500,0.1250,0.0000,325.4375,
2025-03-08 23:14:06.857,7.2000,1.0700,1.7900,-50.3750,-167.3125,-3.3750,64.6250,1.0625,0.0000,326.1875,
2025-03-08 23:14:06.870,7.8200,0.3400,1.2500,-30.5000,-139.5000,1.5000,66.1250,1.5625,0.0000,326.4375,
2025-03-08 23:14:06.893,9.0200,0.2500,1.7200,-21.8750,-130.8125,0.2500,68.7500,2.3750,0.0000,326.7500,
2025-03-08 23:14:06.907,8.7000,-0.0600,2.6300,-13.2500,-134.4375,1.0000,71.3125,3.0625,0.0000,326.9375,
2025-03-08 23:14:06.923,8.3900,0.2500,2.6700,40.1250,-119.3125,-3.8125,72.5625,3.1875,0.0000,326.8125,
2025-03-08 23:14:06.945,8.9500,-0.0500,0.7300,24.1250,-100.8125,-2.2500,74.7500,2.5000,0.0000,326.3125,
2025-03-08 23:14:06.956,8.2500,0.1900,1.0700,6.1250,-103.1875,-2.8750,76.6875,2.3125,0.0000,326.0625,
2025-03-08 23:14:06.971,7.8400,0.2800,1.4300,-5.3125,-106.1875,-2.6250,77.7500,2.4375,0.0000,326.1250,
2025-03-08 23:14:06.990,9.2000,0.0900,-0.2000,14.1875,-83.1250,-0.6250,79.5000,2.6250,0.0000,326.0625,
2025-03-08 23:14:07.037,8.7800,0.1100,0.9000,8.1875,-76.5000,-4.7500,81.0000,2.3125,0.0000,325.8750,
2025-03-08 23:14:07.037,9.1000,0.0800,1.0200,-9.7500,-64.7500,-6.4375,81.6250,2.1875,0.0000,326.0000,
2025-03-08 23:14:07.042,9.2400,0.3700,-0.0800,-2.2500,-55.1250,-9.6875,82.7500,1.2500,0.0000,326.2500,
2025-03-08 23:14:07.055,9.0000,0.5000,-0.7100,-17.3125,-44.3750,-6.2500,83.6875,0.0000,0.0000,326.6875,
2025-03-08 23:14:07.073,9.4000,0.6100,-0.7200,-0.8750,-33.5625,-5.5000,84.0000,0.0000,0.0000,326.6875,
2025-03-08 23:14:07.089,9.9700,0.0400,-0.3900,10.8750,-30.8750,-0.1875,84.6250,0.0000,0.0000,326.6250,
2025-03-08 23:14:07.105,9.4400,-0.0500,-1.0300,-4.0625,-13.4375,2.4375,85.0000,0.0000,0.0000,326.5625,
2025-03-08 23:14:07.118,9.1600,0.5100,-1.8100,-13.1250,-0.3750,1.3750,85.0000,0.0000,0.0000,326.6250,
2025-03-08 23:14:07.138,9.2700,0.0500,-1.6400,-26.4375,26.1875,3.1250,84.6250,0.0625,0.0000,327.0000,
2025-03-08 23:14:07.145,10.2300,0.3700,-1.0800,-25.1875,52.2500,3.3125,84.1250,0.1250,0.0000,327.1875,
2025-03-08 23:14:07.156,10.3400,0.4500,-0.0500,-10.2500,83.6250,6.8125,83.3125,0.1875,0.0000,327.2500,
2025-03-08 23:14:07.169,10.2700,0.2100,0.7100,12.1875,111.0625,11.8125,82.2500,2.5000,0.0000,327.0000,
2025-03-08 23:14:07.193,9.3500,-0.1000,0.7900,27.4375,139.6250,13.7500,79.6250,2.8750,0.0000,326.3125,
2025-03-08 23:14:07.195,8.6000,0.0800,0.6400,18.1875,142.5625,11.7500,78.1875,2.9375,0.0000,326.0625,
2025-03-08 23:14:07.207,7.7700,0.2600,0.2700,10.6250,143.1875,10.0625,76.8125,2.9375,0.0000,325.8750,
2025-03-08 23:14:07.221,7.0600,0.5500,0.0200,4.5625,144.6250,9.3125,75.4375,3.0000,0.0000,325.7500,
2025-03-08 23:14:07.229,6.9600,0.7700,0.1900,-0.9375,152.5625,8.7500,73.9375,3.0000,0.0000,325.6875,
2025-03-08 23:14:07.239,6.9000,0.3400,0.3700,8.5625,164.1250,11.9375,72.3750,3.0625,0.0000,325.5625,
2025-03-08 23:14:07.246,7.1900,0.1400,0.2500,26.6875,178.2500,14.3750,70.6250,2.9375,0.0000,325.2500,
2025-03-08 23:14:07.260,7.0100,-0.0700,1.4300,39.9375,199.9375,13.8750,68.6875,2.6250,0.0000,324.8750,
2025-03-08 23:14:07.269,6.9200,-0.3100,2.6500,57.1250,231.6250,14.6875,66.4375,2.1875,0.0000,324.3750,
2025-03-08 23:14:07.280,6.9700,-0.8000,3.6700,66.7500,270.9375,14.1875,63.8125,1.6250,0.0000,323.8750,
2025-03-08 23:14:07.287,7.3000,-0.6900,4.3500,53.8125,306.8750,9.5000,60.8125,1.1875,0.0000,323.5000,
2025-03-08 23:14:07.331,7.4000,-0.3400,5.5000,23.3750,324.7500,5.9375,57.6875,0.9375,0.0000,323.3125,
2025-03-08 23:14:07.335,6.3300,-0.1100,5.3900,-2.2500,318.1250,4.0000,54.6250,0.9375,0.0000,323.3125,
2025-03-08 23:14:07.335,5.2600,0.3300,5.2000,-9.6875,304.3750,-1.4375,51.6875,0.9375,0.0000,323.3750,
2025-03-08 23:14:07.335,4.9400,0.9300,4.3800,-5.4375,295.1250,-5.2500,48.8125,0.8750,0.0000,323.5000,
2025-03-08 23:14:07.343,4.6500,1.1900,4.2200,0.7500,291.0000,-7.4375,46.0000,0.7500,0.0000,323.5625,
2025-03-08 23:14:07.345,4.5900,0.9400,4.0500,4.2500,286.0000,-6.1250,43.2500,0.6250,0.0000,323.6250,
2025-03-08 23:14:07.357,4.5100,0.4900,4.2500,20.5625,292.5625,-4.1250,40.4375,0.3750,0.0000,323.5625,
2025-03-08 23:14:07.372,3.4500,0.1400,5.7500,20.5625,292.5625,-4.1250,37.5625,0.1250,0.0000,323.5625,
2025-03-08 23:14:07.381,2.9600,0.3000,7.8300,24.5000,300.6250,-8.5625,34.6875,-0.1250,0.0000,323.5625,
2025-03-08 23:14:07.391,2.8200,0.2700,9.9100,49.8125,288.3125,-19.5000,31.8750,-0.6875,0.0000,323.6250,
2025-03-08 23:14:07.395,3.1200,0.4600,11.1500,71.5000,253.4375,-24.7500,29.4375,-1.5000,0.0000,323.6250,
2025-03-08 23:14:07.411,3.1600,0.3700,11.1000,82.8750,205.5000,-32.5625,27.4375,-2.4375,0.0000,323.6875,
2025-03-08 23:14:07.419,3.1900,0.7500,10.7500,73.1875,159.1250,-39.8750,25.8750,-3.3125,0.0000,323.8750,
2025-03-08 23:14:07.430,3.0400,0.4600,9.7600,54.8125,131.0000,-45.1875,24.5625,-4.0000,0.0000,324.1875,
2025-03-08 23:14:07.436,2.9300,0.8500,9.2100,34.1875,126.4375,-49.8750,23.3125,-4.5000,0.0000,324.5625,
2025-03-08 23:14:07.445,2.5400,0.9300,9.0400,24.5625,134.6250,-49.5625,22.0000,-4.9375,0.0000,324.9375,
2025-03-08 23:14:07.457,2.3700,0.7000,8.5800,13.2500,148.3750,-47.6250,20.5000,-5.1875,0.0000,325.2500,
2025-03-08 23:14:07.465,2.0400,1.4000,9.0500,-14.7500,162.7500,-45.2500,18.8750,-5.1250,0.0000,325.6875,
2025-03-08 23:14:07.476,1.9300,1.4400,10.5000,-28.8125,167.3750,-42.3125,17.2500,-4.9375,0.0000,326.0625,
2025-03-08 23:14:07.496,2.2900,1.2700,11.7200,-27.8750,149.5625,-40.2500,15.7500,-4.7500,0.0000,326.4375,
2025-03-08 23:14:07.496,3.2100,1.0100,12.3700,-11.8125,117.2500,-37.8125,14.6250,-4.6875,0.0000,326.7500,
2025-03-08 23:14:07.505,3.2400,0.7700,11.9800,6.3750,85.8125,-36.7500,13.7500,-4.8125,0.0000,327.0000,
2025-03-08 23:14:07.515,2.7700,0.7700,11.4000,17.3125,60.8750,-37.1250,13.1250,-5.0625,0.0000,327.3125,
2025-03-08 23:14:07.527,2.2800,1.0500,10.8100,20.0625,48.2500,-36.5000,12.6250,-5.3750,0.0000,327.6250,
2025-03-08 23:14:07.541,1.5600,1.2600,9.8600,10.2500,46.8125,-31.5000,12.1250,-5.5000,0.0000,327.8750,
2025-03-08 23:14:07.546,1.2400,1.1000,9.5600,-0.5000,54.3750,-28.8125,11.6250,-5.5625,0.0000,328.1250,
2025-03-08 23:14:07.563,0.9000,1.2500,9.6500,-21.8750,63.8750,-30.1875,10.9375,-5.3750,0.0000,328.4375,
2025-03-08 23:14:07.566,0.8100,1.2500,10.0300,-48.3750,70.4375,-30.3125,10.2500,-4.9375,0.0000,328.6875,
2025-03-08 23:14:07.580,1.0000,1.4300,10.9900,-68.0000,74.3125,-29.9375,9.5000,-4.3750,0.0000,329.0625,
2025-03-08 23:14:07.586,1.4200,1.4400,11.3100,-71.5625,70.5000,-27.6250,8.8125,-3.6875,0.0000,329.3125,
2025-03-08 23:14:07.635,2.0800,1.1800,11.7000,-65.3750,53.5625,-23.3125,8.2500,-3.0625,0.0000,329.5625,
2025-03-08 23:14:07.635,1.9000,0.8900,11.1900,-32.8125,34.6875,-19.1875,7.9375,-2.8125,0.0000,329.8125,
2025-03-08 23:14:07.635,1.6800,0.8500,10.3300,-2.8750,22.3125,-16.3125,7.6875,-2.8125,0.0000,329.9375,
2025-03-08 23:14:07.635,1.8600,1.2700,10.3400,-6.1875,27.2500,-13.7500,7.4375,-2.7500,0.0000,330.0625,
2025-03-08 23:14:07.637,0.7000,0.5900,10.2900,-45.8125,56.1250,-8.2500,6.8750,-2.3125,0.0000,330.1875,
2025-03-08 23:14:07.646,0.7500,0.5900,9.5300,-44.1875,60.0625,-6.5625,6.3125,-1.8750,0.0000,330.2500,
2025-03-08 23:14:07.655,0.7200,0.5700,9.3700,-46.6250,58.3125,-5.0625,5.7500,-1.4375,0.0000,330.3125,
2025-03-08 23:14:07.665,0.7600,0.5800,9.3700,-52.1875,58.4375,-3.5625,5.1875,-0.9375,0.0000,330.3750,
2025-03-08 23:14:07.676,0.6100,0.3800,9.9400,-50.1875,59.0000,-1.9375,4.6250,-0.4375,0.0000,330.3750,
2025-03-08 23:14:07.689,0.5000,0.1200,10.2900,-32.3125,58.6250,0.3125,4.0625,-0.1250,0.0000,330.4375,
2025-03-08 23:14:07.695,0.2000,0.0700,10.3700,-20.5625,52.3750,1.3125,3.5000,0.0000,0.0000,330.4375,
2025-03-08 23:14:07.711,0.1300,0.1700,9.9000,-10.3750,46.0625,2.6250,3.0625,0.1250,0.0000,330.3750,
2025-03-08 23:14:07.719,0.1100,0.3100,9.5400,-4.5625,44.4375,4.6250,2.6250,0.1875,0.0000,330.3125,
2025-03-08 23:14:07.726,0.0000,0.4400,9.4000,-1.0000,45.2500,7.9375,2.1875,0.1875,0.0000,330.2500,
2025-03-08 23:14:07.741,-0.0900,0.4700,9.3700,3.1875,47.9375,13.1875,1.7500,0.1250,0.0000,330.1250,
2025-03-08 23:14:07.751,-0.1600,0.1900,10.2100,9.5625,49.2500,17.8125,1.2500,0.0625,0.0000,329.9375,
2025-03-08 23:14:07.756,-0.2100,0.4600,9.8700,11.8125,23.4375,11.3750,1.0625,0.0000,0.0000,329.8750,
2025-03-08 23:14:07.765,-0.1900,0.6100,9.5600,3.8750,4.0625,9.0000,1.0000,0.0000,0.0000,329.7500,
2025-03-08 23:14:07.776,-0.1000,0.2300,9.6200,2.7500,2.5000,15.6250,1.0000,-0.0625,0.0000,329.6250,
2025-03-08 23:14:07.789,-0.0900,0.3800,9.5100,1.2500,1.4375,20.1875,0.9375,-0.0625,0.0000,329.4375,
2025-03-08 23:14:07.797,-0.0400,0.1900,9.5100,1.1250,0.9375,26.2500,0.9375,-0.0625,0.0000,329.1875,
2025-03-08 23:14:07.806,0.0000,0.6800,9.4700,1.1250,0.0625,32.0000,0.9375,-0.0625,0.0000,329.1875,
2025-03-08 23:14:07.817,-0.0200,0.4600,9.5000,1.6250,-0.3750,40.6875,0.9375,-0.0625,0.0000,328.8750,
2025-03-08 23:14:07.830,0.1200,0.6900,9.5800,0.9375,-0.6250,47.3125,0.9375,-0.1250,0.0000,328.0000,
2025-03-08 23:14:07.836,0.0200,0.5200,9.5500,1.1875,-0.8125,56.4375,0.9375,-0.1250,0.0000,327.4375,
2025-03-08 23:14:07.847,-0.3000,0.3700,9.5500,1.1250,-1.0625,68.0000,1.0000,-0.1250,0.0000,326.8125,
2025-03-08 23:14:07.859,-0.5400,0.3300,9.5000,0.8750,-1.3125,77.1875,1.0000,-0.1250,0.0000,326.8125,
2025-03-08 23:14:07.865,-0.7500,0.6400,9.5100,1.0000,-1.6250,86.5625,1.0000,-0.1250,0.0000,326.0625,
2025-03-08 23:14:07.883,-0.8900,0.4800,9.5900,1.1875,-2.4375,96.6250,1.0625,-0.1250,0.0000,324.2500,
2025-03-08 23:14:07.887,-0.3300,-0.3300,9.4500,1.0000,-2.0625,102.5625,1.0625,-0.1250,0.0000,323.3125,
2025-03-08 23:14:07.932,-0.1400,0.8700,9.5500,-0.0625,-1.4375,99.0000,1.0625,-0.1250,0.0000,322.3125,
2025-03-08 23:14:07.932,-0.1300,-0.0500,9.5200,0.6250,-1.7500,102.8125,1.0625,-0.1250,0.0000,322.3125,
2025-03-08 23:14:07.932,-0.0200,0.3900,9.5100,0.1250,-2.3125,102.9375,1.1250,-0.0625,0.0000,321.3125,
2025-03-08 23:14:07.932,0.0200,0.2100,9.5100,-0.1250,-2.3125,102.9375,1.1250,-0.0625,0.0000,319.3125,
2025-03-08 23:14:07.936,-0.4200,2.2100,9.4900,-0.8750,-2.7500,115.6875,1.1875,0.0000,0.0000,318.1875,
2025-03-08 23:14:07.947,-0.4900,-0.6200,9.4900,-0.6875,-2.8750,143.0625,1.1875,0.0000,0.0000,316.8125,
2025-03-08 23:14:07.955,-0.4900,-0.6200,9.4900,-0.1250,-3.8750,149.3125,1.1875,0.0000,0.0000,316.8125,
2025-03-08 23:14:07.966,-0.0900,-0.2200,9.5000,1.0000,-3.8125,150.8125,1.2500,0.0000,0.0000,315.3750,
2025-03-08 23:14:07.980,-0.2600,0.3300,9.4700,1.5000,-3.1875,156.4375,1.3125,0.0625,0.0000,312.4375,
2025-03-08 23:14:07.987,0.4200,-0.2200,9.5100,0.5625,-3.2500,161.8750,1.3125,0.0625,0.0000,310.8750,
2025-03-08 23:14:08.002,0.5500,0.2900,9.5000,0.6250,-3.3125,164.2500,1.3750,0.1250,0.0000,309.2500,
2025-03-08 23:14:08.006,0.5500,0.2900,9.5000,0.1875,-3.3125,164.1875,1.3750,0.1250,0.0000,309.2500,
2025-03-08 23:14:08.015,0.5700,-0.1800,9.4900,0.4375,-3.4375,163.9375,1.3750,0.1250,0.0000,307.6250,
2025-03-08 23:14:08.033,-0.1100,0.1600,9.4300,0.5000,-4.0000,164.6875,1.4375,0.2500,0.0000,304.4375,
2025-03-08 23:14:08.050,-0.2600,0.3100,9.5600,2.2500,-2.1875,171.2500,1.4375,0.2500,0.0000,304.4375,
2025-03-08 23:14:08.053,-0.2800,0.0700,9.6100,1.1875,-1.6875,181.4375,1.4375,0.2500,0.0000,302.8125,
2025-03-08 23:14:08.055,-0.2800,0.0700,9.6100,0.4375,-3.2500,186.0625,1.5000,0.2500,0.0000,301.0625,
2025-03-08 23:14:08.070,-0.1500,0.3800,9.5200,0.4375,-3.2500,186.0625,1.5000,0.3125,0.0000,299.1875,
2025-03-08 23:14:08.077,-0.1000,-0.3800,9.5600,0.6875,-3.4375,211.1250,1.5000,0.3750,0.0000,297.3125,
2025-03-08 23:14:08.091,-0.4400,-0.1900,9.4900,0.5625,-3.8750,221.0625,1.5625,0.4375,0.0000,295.2500,
2025-03-08 23:14:08.097,-0.5100,-0.2500,9.5100,0.4375,-3.9375,225.5625,1.5625,0.5000,0.0000,293.1250,
2025-03-08 23:14:08.106,-0.5100,-0.2500,9.5100,0.4375,-3.9375,225.5625,1.5625,0.5625,0.0000,290.9375,
2025-03-08 23:14:08.116,-0.6200,0.0000,9.5600,0.8125,-3.8125,236.6250,1.5625,0.6250,0.0000,288.6875,
2025-03-08 23:14:08.132,-0.3400,0.2900,9.4200,0.3125,-4.1875,242.6250,1.6250,0.6875,0.0000,286.4375,
2025-03-08 23:14:08.138,-0.3300,0.1500,9.5600,0.0000,-4.2500,256.7500,1.6250,0.7500,0.0000,284.0625,
2025-03-08 23:14:08.152,-0.0900,-0.1600,9.5600,-0.0625,-4.8125,278.4375,1.6250,0.8125,0.0000,281.5625,
2025-03-08 23:14:08.156,-0.0900,-0.1600,9.5600,-0.0625,-4.8125,278.4375,1.6250,0.8750,0.0000,278.8750,
2025-03-08 23:14:08.170,-0.0100,-0.2700,9.5000,-0.7500,-4.9375,305.3125,1.6250,1.0000,0.0000,275.9375,
2025-03-08 23:14:08.182,-1.3300,-0.4300,9.5400,0.3750,-6.6250,379.6875,1.6250,1.0625,0.0000,272.6250,
2025-03-08 23:14:08.189,-1.5500,-0.1000,9.5500,0.8125,-7.5625,419.2500,1.6250,1.1875,0.0000,268.9375,
2025-03-08 23:14:08.230,-1.2900,-0.3100,9.5000,0.9375,-8.7500,462.3750,1.5625,1.2500,0.0000,264.8750,
2025-03-08 23:14:08.243,-1.2400,-0.1100,9.6200,1.0000,-9.2500,490.7500,1.5625,1.5000,0.0000,255.6875,
2025-03-08 23:14:08.243,0.5500,0.1400,9.4200,0.7500,-7.3125,411.6250,1.5000,1.6250,0.0000,251.1250,
2025-03-08 23:14:08.243,0.6200,0.1500,9.5000,0.1875,-6.1250,348.2500,1.4375,1.7500,0.0000,247.1250,
2025-03-08 23:14:08.255,0.5800,0.0700,9.5100,0.7500,-5.3125,282.9375,1.3750,1.8750,0.0000,241.0625,
2025-03-08 23:14:08.266,0.4800,0.3300,9.4900,1.0625,-4.5000,222.6250,1.3125,1.9375,0.0000,238.8750,
2025-03-08 23:14:08.281,0.3500,0.2800,9.4500,0.5625,-2.0625,109.3750,1.3125,1.9375,0.0000,237.2500,
2025-03-08 23:14:08.301,-0.1200,0.2200,9.4900,0.0625,0.0000,2.4375,1.2500,2.0000,0.0000,235.8125,
2025-03-08 23:14:08.318,-0.1100,0.1900,9.5300,-0.0625,0.0000,-0.0625,1.2500,2.0000,0.0000,235.7500,
2025-03-08 23:14:08.340,-0.1100,0.2000,9.5100,0.0000,0.1875,0.0625,1.2500,2.0000,0.0000,235.7500,
2025-03-08 23:14:08.357,-0.0900,0.1600,9.5200,0.1875,-0.0625,0.1250,1.2500,2.0000,0.0000,235.7500,
2025-03-08 23:14:08.370,-0.1100,0.1800,9.5000,0.0000,-0.0625,-0.0625,1.2500,1.9375,0.0000,235.7500,
2025-03-08 23:14:08.389,-0.0900,0.1900,9.5000,0.0625,0.1250,0.0000,1.1250,1.8125,0.0000,235.7500,
2025-03-08 23:14:08.409,-0.1000,0.1800,9.5300,0.1250,0.0000,0.0000,1.0625,1.6875,0.0000,235.7500,
2025-03-08 23:14:08.418,-0.1100,0.1800,9.5400,-0.1250,0.0625,0.0000,1.0625,1.6250,0.0000,235.7500,
2025-03-08 23:14:08.438,-0.0900,0.1800,9.5300,0.0000,0.0625,0.1250,1.0000,1.5000,0.0000,235.7500,
2025-03-08 23:14:08.458,-0.0800,0.1800,9.5200,-0.1250,0.0625,-0.0625,0.9375,1.4375,0.0000,235.7500,
2025-03-08 23:14:08.468,-0.0800,0.1800,9.5600,0.0000,0.0625,-0.0625,0.8750,1.3750,0.0000,235.7500,
2025-03-08 23:14:08.488,-0.1000,0.1900,9.5000,0.0000,-0.1250,0.0000,0.8750,1.3125,0.0000,235.7500,
2025-03-08 23:14:08.534,-0.1000,0.2000,9.5400,-0.0625,0.1250,-0.1875,0.8125,1.2500,0.0000,235.7500,
2025-03-08 23:14:08.534,-0.0800,0.2200,9.4800,0.7500,0.8125,0.2500,0.7500,1.1875,0.0000,235.7500,
2025-03-08 23:14:08.545,-0.1600,0.2100,9.4900,-0.9375,-1.0000,1.5625,0.6875,1.0625,0.0000,235.7500,
2025-03-08 23:14:08.556,-0.3900,0.2700,9.5300,-0.1250,-0.1250,6.6250,0.6250,1.0000,0.0000,235.6875,
2025-03-08 23:14:08.571,-0.1100,0.2800,9.5200,-0.4375,0.0000,11.9375,0.6250,1.0000,0.0000,235.5625,
2025-03-08 23:14:08.583,-0.1300,0.3000,9.5400,-1.4375,-1.5625,23.0000,0.6250,1.0000,0.0000,235.4375,
2025-03-08 23:14:08.614,0.8400,0.3100,9.4700,-2.5000,-4.6875,114.3125,0.6250,0.9375,0.0000,234.5625,
2025-03-08 23:14:08.615,0.1100,0.3900,9.4300,-2.8125,-5.3125,121.7500,0.6875,1.0000,0.0000,231.4375,
2025-03-08 23:14:08.631,-0.5200,0.0900,9.6600,2.1875,-1.8750,121.8750,0.6875,1.0000,0.0000,230.2500,
2025-03-08 23:14:08.651,-0.5500,-0.1300,9.5400,2.5000,-1.0625,125.1875,0.6875,1.0000,0.0000,227.8750,
2025-03-08 23:14:08.665,-0.5900,0.1900,9.6800,1.7500,-1.9375,136.4375,0.6875,1.0000,0.0000,224.6250,
2025-03-08 23:14:08.679,-0.2700,0.2900,9.5600,1.5625,-1.8750,148.2500,0.6875,1.0000,0.0000,223.1875,
2025-03-08 23:14:08.698,-0.0600,0.2600,9.4800,0.3750,-3.6250,164.6875,0.6875,1.0625,0.0000,220.1250,
2025-03-08 23:14:08.715,-0.1000,-0.0100,9.5100,0.6875,-3.2500,178.0000,0.6875,1.0625,0.0000,216.3125,
2025-03-08 23:14:08.731,-0.3000,-0.0700,9.5600,1.2500,-3.0625,191.0625,0.6875,1.1250,0.0000,214.5000,
2025-03-08 23:14:08.753,-0.8200,0.5000,9.5000,1.0625,-3.4375,219.1875,0.6250,1.1250,0.0000,210.3750,
2025-03-08 23:14:08.765,-0.4300,0.5600,9.5200,-0.4375,-4.1875,249.5000,0.6250,1.1875,0.0000,205.6875,
2025-03-08 23:14:08.783,-0.5400,0.5600,9.5900,0.1250,-4.2500,251.7500,0.6250,1.1875,0.0000,203.2500,
2025-03-08 23:14:08.807,-0.3100,0.3000,9.5100,0.4375,-4.3125,250.6250,0.6250,1.2500,0.0000,198.3750,
2025-03-08 23:14:08.830,-0.6900,-0.4300,9.5000,0.5625,-4.8750,244.0000,0.5625,1.3125,0.0000,193.5625,
2025-03-08 23:14:08.834,-0.4800,0.0500,9.4700,0.7500,-4.8750,259.2500,0.5625,1.3125,0.0000,191.0625,
2025-03-08 23:14:08.848,-0.3300,-0.0800,9.5100,0.6875,-6.0000,299.8125,0.5625,1.3750,0.0000,185.4375,
2025-03-08 23:14:08.866,-0.4100,-0.0200,9.5600,0.5000,-6.1250,312.6875,0.5000,1.4375,0.0000,179.4375,
2025-03-08 23:14:08.882,-0.5100,0.0200,9.5600,0.6250,-5.4375,311.6250,0.5000,1.4375,0.0000,176.3750,
2025-03-08 23:14:08.888,-0.5500,0.0200,9.4600,0.5000,-5.6875,310.5000,0.5000,1.5000,0.0000,173.3750,
2025-03-08 23:14:08.901,-0.4500,0.1900,9.5400,0.4375,-6.0000,315.3125,0.4375,1.5000,0.0000,170.3125,
2025-03-08 23:14:08.917,-0.9900,0.1200,9.5800,0.8750,-6.0625,355.8750,0.3750,1.5625,0.0000,163.6875,
2025-03-08 23:14:08.931,-0.7900,-0.0400,9.5000,0.4375,-7.1250,377.6250,0.3750,1.5625,0.0000,160.0625,
2025-03-08 23:14:08.948,-0.7200,-0.4300,9.5000,1.8750,-7.2500,384.1875,0.2500,1.6250,0.0000,152.5625,
2025-03-08 23:14:08.956,-0.5100,-0.3700,9.5300,1.9375,-8.5000,376.0625,0.2500,1.6250,0.0000,148.9375,
2025-03-08 23:14:08.965,-0.5600,-0.3700,9.5100,2.1250,-7.6875,369.9375,0.2500,1.6250,0.0000,145.3750,
2025-03-08 23:14:08.980,-0.4600,-0.2600,9.5200,0.6875,-6.5000,367.2500,0.1875,1.6250,0.0000,141.8125,
2025-03-08 23:14:09.003,-0.3800,-0.0700,9.5000,0.3750,-6.6875,369.0000,0.1250,1.6250,0.0000,138.2500,
2025-03-08 23:14:09.003,-0.2400,-0.0600,9.5700,-0.3750,-6.8125,373.1250,0.1250,1.6250,0.0000,134.6250,
2025-03-08 23:14:09.005,-0.1700,0.3200,9.5000,-0.8125,-7.7500,375.3125,0.0625,1.6250,0.0000,131.0000,
2025-03-08 23:14:09.031,0.1800,-0.3300,9.5600,-0.4375,-6.5625,375.8125,0.0625,1.6250,0.0000,127.3125,
2025-03-08 23:14:09.031,-0.0700,-0.3700,9.5000,-2.9375,-5.8750,365.6250,0.0000,1.6875,0.0000,123.8125,
2025-03-08 23:14:09.037,0.0200,-0.5800,9.5400,1.2500,-7.1250,356.5000,0.0000,1.6875,0.0000,120.3750,
2025-03-08 23:14:09.053,-0.2300,-0.4400,9.5800,1.8750,-6.5000,344.2500,0.0000,1.6250,0.0000,117.0000,
2025-03-08 23:14:09.057,0.0200,-0.6500,9.6000,2.0625,-6.1250,330.3125,-0.0625,1.6250,0.0000,113.8125,
2025-03-08 23:14:09.072,0.1300,-0.9200,9.4700,1.1250,-6.0000,307.3750,-0.0625,1.6250,0.0000,110.8750,
2025-03-08 23:14:09.077,0.3200,-0.1100,9.3200,1.1250,-5.4375,271.5000,-0.1250,1.6250,0.0000,108.1875,
2025-03-08 23:14:09.106,0.5600,0.3300,9.5000,0.6250,-4.1250,224.5625,-0.1250,1.5625,0.0000,106.0625,
2025-03-08 23:14:09.106,0.6500,-0.0700,9.4000,-0.3750,-3.1250,171.7500,-0.1250,1.5625,0.0000,104.3750,
2025-03-08 23:14:09.134,0.7600,-0.6700,9.4900,-0.7500,-2.3125,111.6250,-0.1250,1.5625,0.0000,103.3125,
2025-03-08 23:14:09.134,-0.1000,0.1900,9.5200,-0.0625,-1.3750,55.3125,-0.1250,1.5625,0.0000,102.7500,
2025-03-08 23:14:09.134,-0.1400,0.2200,9.5200,0.5625,-0.1875,8.6250,-0.1250,1.5625,0.0000,102.6875,
2025-03-08 23:14:09.141,-0.0900,0.2000,9.5000,0.0000,-0.0625,-0.1875,-0.1250,1.5625,0.0000,102.6875,
2025-03-08 23:14:09.147,-0.1000,0.2000,9.4900,-0.1250,0.0000,0.0625,-0.1250,1.5625,0.0000,102.6875,
2025-03-08 23:14:09.155,-0.1000,0.2000,9.5000,0.0000,0.1250,0.1250,-0.1250,1.5625,0.0000,102.6875,
2025-03-08 23:14:09.167,-0.1100,0.2100,9.5300,0.1250,0.0625,0.0625,-0.1250,1.5625,0.0000,102.6875,
2025-03-08 23:14:09.175,-0.0900,0.2200,9.5300,0.0625,0.0000,0.0625,-0.1250,1.5625,0.0000,102.6875,
2025-03-08 23:14:09.186,-0.1100,0.1800,9.5200,0.0000,0.0000,0.0625,-0.1250,1.5625,0.0000,102.6875,
2025-03-08 23:14:09.195,-0.0900,0.1900,9.5100,-0.0625,0.0000,-0.0625,-0.1875,1.5000,0.0000,102.6875,
2025-03-08 23:14:09.205,-0.1000,0.2100,9.5300,-0.1875,-0.2500,0.0000,-0.1875,1.5000,0.0000,102.6875,
2025-03-08 23:14:09.216,-0.0900,0.1900,9.5300,0.0000,0.0000,0.0000,-0.1875,1.4375,0.0000,102.6875,
2025-03-08 23:14:09.226,-0.0900,0.1900,9.5300,0.0000,0.1250,0.0000,-0.1875,1.4375,0.0000,102.6875,
2025-03-08 23:14:09.235,-0.0900,0.1900,9.5000,0.0000,0.1250,-0.0625,-0.1875,1.3750,0.0000,102.6875,
2025-03-08 23:14:09.246,-0.0900,0.2000,9.5200,-0.0625,0.1250,-0.1250,-0.1875,1.3125,0.0000,102.6875,
2025-03-08 23:14:09.264,-0.1100,0.1800,9.5100,0.0000,0.1875,0.0000,-0.1875,1.3125,0.0000,102.6875,
2025-03-08 23:14:09.266,-0.1000,0.2000,9.5400,0.0625,0.0000,-0.1250,-0.1875,1.2500,0.0000,102.6875,
2025-03-08 23:14:09.278,-0.1100,0.2000,9.5200,0.0000,0.0000,0.0000,-0.1875,1.2500,0.0000,102.6875,
2025-03-08 23:14:09.287,-0.1000,0.2200,9.5100,0.0000,0.0625,-0.1250,-0.1875,1.2500,0.0000,102.6875,
2025-03-08 23:14:09.297,-0.0800,0.2000,9.5200,0.0000,0.1250,0.0625,-0.1875,1.1875,0.0000,102.6875,
2025-03-08 23:14:09.306,-0.0800,0.2000,9.5000,0.0000,0.0000,0.0000,-0.1875,1.1875,0.0000,102.6875,
2025-03-08 23:14:09.317,-0.0900,0.2100,9.5300,-0.1875,0.0625,0.0625,-0.1875,1.1250,0.0000,102.6875,
2025-03-08 23:14:09.330,-0.0900,0.2000,9.5300,0.0000,0.1250,0.0625,-0.1875,1.1250,0.0000,102.6875,
2025-03-08 23:14:09.336,-0.0800,0.1900,9.5100,0.0625,-0.0625,0.0000,-0.2500,1.0625,0.0000,102.6875,
2025-03-08 23:14:09.345,-0.0900,0.1900,9.5200,-0.1875,0.0625,-0.0625,-0.2500,1.0625,0.0000,102.6875,
2025-03-08 23:14:09.364,-0.0800,0.2200,9.5400,0.0000,0.0000,-0.0625,-0.2500,1.0000,0.0000,102.6875,
2025-03-08 23:14:09.366,-0.0900,0.2100,9.5300,0.0625,-0.0625,0.0625,-0.2500,1.0000,0.0000,102.6875,
2025-03-08 23:14:09.376,-0.1000,0.2200,9.5100,0.0625,-0.0625,0.0625,-0.2500,1.0000,0.0000,102.6875,
2025-03-08 23:14:09.387,-0.0900,0.2100,9.5000,-0.0625,0.0000,0.0000,-0.2500,0.9375,0.0000,102.6875,
2025-03-08 23:14:09.423,-0.0800,0.2100,9.5200,-0.0625,0.0625,-0.1250,-0.2500,0.9375,0.0000,102.6875,
2025-03-08 23:14:09.423,-0.0800,0.2000,9.5200,0.0625,0.1250,-0.1250,-0.2500,0.8750,0.0000,102.6875,
2025-03-08 23:14:09.423,-0.0800,0.1900,9.5100,0.0000,0.0625,0.0625,-0.2500,0.8750,0.0000,102.6875,
2025-03-08 23:14:09.435,-0.0800,0.1800,9.5100,0.0000,0.0625,0.1250,-0.2500,0.8750,0.0000,102.6875,
2025-03-08 23:14:09.436,-0.0700,0.2000,9.4800,-0.0625,-0.1875,0.0625,-0.2500,0.8125,0.0000,102.6875,
2025-03-08 23:14:09.446,-0.0700,0.2000,9.5200,0.0000,-0.1250,0.1250,-0.2500,0.8125,0.0000,102.6875,
2025-03-08 23:14:09.467,-0.1000,0.2100,9.5200,-0.0625,-0.0625,0.0000,-0.2500,0.8125,0.0000,102.6875,
2025-03-08 23:14:09.467,-0.0900,0.2100,9.5300,-0.0625,0.0625,0.1250,-0.2500,0.7500,0.0000,102.6875,
2025-03-08 23:14:09.477,-0.1100,0.1900,9.5000,0.0000,0.0625,-0.1250,-0.2500,0.7500,0.0000,102.6875,
2025-03-08 23:14:09.486,-0.1000,0.2000,9.5100,0.0625,0.0000,0.0000,-0.2500,0.7500,0.0000,102.6875,
2025-03-08 23:14:09.495,-0.1000,0.2000,9.4900,-0.1250,-0.1250,0.0000,-0.2500,0.6875,0.0000,102.6875,
2025-03-08 23:14:09.506,-0.0900,0.2100,9.6800,-2.9375,-2.1250,0.5000,-0.2500,0.7500,0.0000,102.6875,
2025-03-08 23:14:09.516,0.0000,0.0900,9.4800,-4.6250,-3.5625,0.6875,-0.1875,0.7500,0.0000,102.6875,
2025-03-08 23:14:09.525,-0.0800,0.2100,9.5400,0.3125,0.3125,-0.1250,-0.1875,0.7500,0.0000,102.6875,
2025-03-08 23:14:09.539,-0.0600,0.1400,9.4900,1.5000,0.0000,1.6250,-0.1875,0.6875,0.0000,102.6250,
2025-03-08 23:14:09.545,-0.3100,0.0800,9.6000,2.6875,0.7500,22.4375,-0.2500,0.6875,0.0000,102.4375,
2025-03-08 23:14:09.557,0.0000,-0.5200,9.4800,2.5000,0.3125,63.6875,-0.2500,0.6250,0.0000,101.8125,
2025-03-08 23:14:09.567,-0.2500,-0.8500,9.5600,2.2500,-0.4375,83.5000,-0.2500,0.6250,0.0000,101.8125,
2025-03-08 23:14:09.575,-1.0600,0.2800,9.5100,2.3750,-0.5625,83.8750,-0.2500,0.6250,0.0000,100.5000,
2025-03-08 23:14:09.586,-0.8900,0.4100,9.5800,2.0625,-0.3125,91.9375,-0.2500,0.5625,0.0000,98.8125,
2025-03-08 23:14:09.598,-0.9000,0.6400,9.5100,2.2500,-0.1250,104.8125,-0.2500,0.5625,0.0000,97.8125,
2025-03-08 23:14:09.607,-0.9100,0.6600,9.5800,2.1250,-0.5000,118.8125,-0.3125,0.5000,0.0000,96.6250,
2025-03-08 23:14:09.616,-1.0100,0.8100,9.5000,0.8750,-1.1250,135.3750,-0.3125,0.5000,0.0000,96.6250,
2025-03-08 23:14:09.625,-0.7500,0.7300,9.5300,-0.1250,-2.3125,154.3750,-0.3125,0.5000,0.0000,94.8750,
2025-03-08 23:14:09.636,-1.2100,0.6900,9.5200,-0.0625,-3.1875,175.8125,-0.2500,0.5000,0.0000,91.6875,
2025-03-08 23:14:09.647,-1.2600,0.2200,9.5400,0.5000,-3.6875,205.6250,-0.2500,0.4375,0.0000,89.6875,
2025-03-08 23:14:09.657,-1.1600,0.1400,9.6000,0.7500,-3.8125,236.7500,-0.2500,0.4375,0.0000,87.3750,
2025-03-08 23:14:09.667,-0.7500,0.3300,9.5300,0.0000,-4.6875,264.8125,-0.2500,0.4375,0.0000,87.3750,
2025-03-08 23:14:09.676,-0.5700,0.3400,9.5100,0.1875,-4.6250,288.3125,-0.1875,0.4375,0.0000,84.8125,
2025-03-08 23:14:09.689,0.4400,0.1400,9.5200,-0.6250,-5.6875,305.9375,-0.1250,0.4375,0.0000,79.0625,
2025-03-08 23:14:09.732,0.4100,0.0100,9.5500,0.0000,-5.3750,316.3750,-0.1250,0.4375,0.0000,76.0000,
2025-03-08 23:14:09.732,0.3700,-0.3000,9.4700,0.3750,-5.2500,320.6250,-0.1250,0.4375,0.0000,72.8750,
2025-03-08 23:14:09.732,0.7900,-0.0700,9.5000,0.0000,-5.6875,323.9375,-0.1250,0.4375,0.0000,72.8750,
2025-03-08 23:14:09.732,0.5600,-0.7300,9.5300,-0.3750,-5.8750,318.1250,-0.0625,0.3750,0.0000,69.7500,
2025-03-08 23:14:09.737,0.0900,-0.4000,9.4400,1.1875,-4.9375,305.0000,0.0000,0.3750,0.0000,63.7500,
2025-03-08 23:14:09.747,0.6600,-0.4900,9.4500,-0.3125,-5.3125,293.6875,0.0000,0.3750,0.0000,60.8750,
2025-03-08 23:14:09.759,-0.0100,-0.2900,9.4600,0.6250,-4.8125,282.5625,0.0000,0.3750,0.0000,58.1875,
2025-03-08 23:14:09.769,-0.0100,-0.2900,9.4600,0.2500,-4.4375,276.1250,0.0000,0.3750,0.0000,58.1875,
2025-03-08 23:14:09.776,-0.2600,0.1100,9.5600,0.2500,-4.3125,267.7500,0.0000,0.3750,0.0000,55.5000,
2025-03-08 23:14:09.786,-0.3000,0.3500,9.4900,0.4375,-4.5625,264.3750,0.0625,0.3750,0.0000,50.3125,
2025-03-08 23:14:09.802,-0.4400,0.5300,9.5200,-0.0625,-4.8125,261.6250,0.1250,0.3750,0.0000,47.8125,
2025-03-08 23:14:09.807,-0.3900,0.3700,9.5100,0.0625,-5.0625,262.1875,0.1250,0.3750,0.0000,45.2500,
2025-03-08 23:14:09.816,-0.3900,0.3700,9.5100,-0.1875,-5.6875,274.1875,0.1250,0.3750,0.0000,45.2500,
2025-03-08 23:14:09.830,0.0300,-0.2200,9.4100,-0.8125,-5.6250,295.3125,0.1875,0.3750,0.0000,42.6250,
2025-03-08 23:14:09.837,-0.0100,-0.1800,9.5100,-0.1250,-6.5625,317.6875,0.2500,0.4375,0.0000,36.6875,
2025-03-08 23:14:09.847,-0.0800,-0.4500,9.5400,-0.0625,-5.9375,340.0000,0.2500,0.4375,0.0000,33.3750,
2025-03-08 23:14:09.864,-0.0500,-0.3300,9.5800,1.1250,-6.7500,361.6250,0.3125,0.4375,0.0000,29.8750,
2025-03-08 23:14:09.868,-0.0500,-0.3300,9.5800,1.8750,-6.6875,383.5000,0.3125,0.4375,0.0000,29.8750,
2025-03-08 23:14:09.877,-0.6600,-0.4200,9.5700,0.8750,-7.5625,403.1875,0.3125,0.4375,0.0000,26.1875,
2025-03-08 23:14:09.891,-0.1400,-0.2100,9.3500,-0.5000,-9.9375,416.3750,0.3750,0.5000,0.0000,22.2500,
2025-03-08 23:14:09.901,0.1100,-0.3100,9.4100,-0.3750,-10.9375,417.6875,0.4375,0.5000,0.0000,18.2500,
2025-03-08 23:14:09.908,0.0200,-0.0400,9.4800,1.1875,-7.2500,400.8750,0.5000,0.5625,0.0000,14.1875,
2025-03-08 23:14:09.916,0.0200,-0.0400,9.4800,1.0625,-6.0625,372.0625,0.5000,0.5625,0.0000,10.3125,
2025-03-08 23:14:09.925,0.0300,0.1000,9.6100,0.6250,-5.5625,338.7500,0.5625,0.6250,0.0000,6.7500,
2025-03-08 23:14:09.944,0.1200,-0.0500,9.4400,0.6250,-5.1250,302.1250,0.5625,0.6250,0.0000,3.4375,
2025-03-08 23:14:09.951,0.1100,-0.2300,9.4700,0.3125,-4.8125,266.0625,0.5625,0.6250,0.0000,0.5000,
2025-03-08 23:14:09.958,0.0700,-0.4000,9.4700,0.6875,-4.1875,233.0000,0.6250,0.6875,0.0000,357.9375,
2025-03-08 23:14:09.968,0.0700,-0.4000,9.4700,0.6875,-4.1875,233.0000,0.6250,0.6875,0.0000,355.6875,
2025-03-08 23:14:09.979,0.1800,-0.2500,9.4800,0.5000,-3.8750,203.3750,0.6250,0.7500,0.0000,353.7500,
2025-03-08 23:14:09.990,-0.9100,2.4200,9.4000,0.5000,-2.8125,158.0625,0.6250,0.7500,0.0000,352.0000,
2025-03-08 23:14:10.034,-0.5400,1.6200,9.6700,-0.5000,-4.0625,185.5000,0.6250,0.7500,0.0000,350.5000,
2025-03-08 23:14:10.034,-0.1000,-0.0800,9.5700,0.5625,-4.0000,210.1875,0.6875,0.7500,0.0000,348.6875,
2025-03-08 23:14:10.034,-0.2200,0.1100,9.5400,0.7500,-4.1875,222.4375,0.6875,0.8125,0.0000,344.5000,
2025-03-08 23:14:10.046,-0.6500,0.0900,9.5700,1.3125,-4.8750,268.0625,0.6875,0.8125,0.0000,342.1250,
2025-03-08 23:14:10.047,-0.9000,0.0400,9.5600,1.4375,-4.5625,292.3125,0.6875,0.8750,0.0000,339.5625,
2025-03-08 23:14:10.058,-0.5600,-0.1200,9.4800,1.4375,-5.6250,309.2500,0.6875,0.8750,0.0000,336.7500,
2025-03-08 23:14:10.081,-0.4800,-0.2300,9.5200,1.0625,-5.3750,312.9375,0.6875,0.9375,0.0000,330.6875,
2025-03-08 23:14:10.088,0.0000,-0.2600,9.5000,0.7500,-5.3125,293.5000,0.6875,0.9375,0.0000,327.7500,
2025-03-08 23:14:10.109,0.2200,-0.3200,9.5400,-0.3125,-4.1250,251.0000,0.6875,1.0625,0.0000,322.2500,
2025-03-08 23:14:10.126,0.3300,-0.3600,9.5200,0.1250,-3.6250,224.8750,0.6875,1.0625,0.0000,317.6250,
2025-03-08 23:14:10.143,0.3400,-0.2300,9.4700,-0.0625,-2.8750,166.5000,0.6875,1.1250,0.0000,315.7500,
2025-03-08 23:14:10.161,0.4500,0.2800,9.5200,0.6875,-2.1250,111.7500,0.6875,1.1250,0.0000,312.8125,
2025-03-08 23:14:10.176,0.5400,0.0600,9.5000,0.5625,-1.6875,87.8750,0.6875,1.1875,0.0000,310.6875,
2025-03-08 23:14:10.190,-0.0100,0.9100,9.4600,1.1250,-0.5625,26.0625,0.6875,1.1875,0.0000,310.1250,
2025-03-08 23:14:10.209,-0.0500,0.1400,9.5200,-0.6875,-0.1250,-0.0625,0.6875,1.1875,0.0000,309.8750,
2025-03-08 23:14:10.227,-0.1000,0.1900,9.5200,-0.0625,0.0000,0.0000,0.6875,1.1875,0.0000,309.8125,
2025-03-08 23:14:10.250,-0.0700,0.1800,9.5200,-0.0625,0.0000,0.0000,0.6875,1.1875,0.0000,309.8125,
2025-03-08 23:14:10.266,-0.0800,0.1900,9.5200,0.0625,0.1250,0.0000,0.6250,1.1250,0.0000,309.8125,
2025-03-08 23:14:10.289,-0.0800,0.1700,9.5100,-0.1875,0.1250,0.0000,0.6250,1.1250,0.0000,309.8125,
2025-03-08 23:14:10.306,-0.0800,0.1700,9.5100,0.0000,0.0625,0.0625,0.6250,1.0625,0.0000,309.8125,
2025-03-08 23:14:10.334,-0.0800,0.1700,9.5100,-0.0625,-0.1250,0.0000,0.5625,1.0000,0.0000,309.8125,
2025-03-08 23:14:10.334,-0.0800,0.1900,9.5500,-0.1250,0.0000,0.0000,0.5625,0.9375,0.0000,309.8125,
2025-03-08 23:14:10.353,-0.0600,0.1900,9.4900,-0.1250,0.1250,0.0000,0.5625,0.9375,0.0000,309.8125,
2025-03-08 23:14:10.394,-0.0700,0.1800,9.4900,-0.1250,0.0625,0.0000,0.5000,0.8750,0.0000,309.8125,
2025-03-08 23:14:10.421,-0.0800,0.1900,9.5300,-0.0625,0.0000,0.0625,0.5000,0.8125,0.0000,309.8125,
2025-03-08 23:14:10.421,-0.0900,0.1800,9.5100,-0.0625,0.0625,0.0625,0.5000,0.8125,0.0000,309.8125,
2025-03-08 23:14:10.421,-0.0700,0.1900,9.5100,-0.1250,0.1250,-0.0625,0.4375,0.7500,0.0000,309.8125,
2025-03-08 23:14:10.442,-0.0900,0.2200,9.5200,-0.0625,-0.1250,0.0625,0.4375,0.7500,0.0000,309.8125,
2025-03-08 23:14:10.453,-0.0800,0.1800,9.5000,-0.0625,0.0000,-0.0625,0.4375,0.6875,0.0000,309.8125,
2025-03-08 23:14:10.465,-0.0600,0.1800,9.5000,0.0000,0.0625,0.0000,0.3750,0.6250,0.0000,309.8125,
2025-03-08 23:14:10.483,-0.0600,0.1800,9.4900,0.0625,0.1250,-0.0625,0.3750,0.6250,0.0000,309.8125,
2025-03-08 23:14:10.502,-0.0700,0.1800,9.5100,0.0625,-0.1250,0.0625,0.3750,0.5625,0.0000,309.8125,
2025-03-08 23:14:10.516,-0.0800,0.1800,9.5000,-0.1250,0.0000,-0.0625,0.3750,0.5625,0.0000,309.8125,
2025-03-08 23:14:10.529,-0.0900,0.1900,9.5300,-0.0625,-0.0625,0.0625,0.3125,0.5000,0.0000,309.8125,
2025-03-08 23:14:10.556,-0.0700,0.1900,9.5100,0.1250,-0.0625,-0.1250,0.3125,0.5000,0.0000,309.8125,
2025-03-08 23:14:10.565,-0.0800,0.1600,9.5200,0.0000,-0.0625,0.0625,0.3125,0.4375,0.0000,309.8125,
2025-03-08 23:14:10.581,-0.0700,0.1900,9.5300,0.0000,0.0000,-0.2500,0.3125,0.4375,0.0000,309.8750,
2025-03-08 23:14:10.630,-0.0900,0.1900,9.5000,-0.1250,0.0000,0.0000,0.3125,0.4375,0.0000,309.8750,
2025-03-08 23:14:10.634,-0.0700,0.1900,9.5000,-0.0625,0.2500,-0.0625,0.2500,0.4375,0.0000,309.8750,
2025-03-08 23:14:10.634,-0.0900,0.1900,9.5600,-0.1250,0.0000,0.0625,0.2500,0.3750,0.0000,309.8750,
2025-03-08 23:14:10.651,-0.0700,0.1700,9.5000,-0.1250,-0.0625,-0.1250,0.2500,0.3750,0.0000,309.8750,
2025-03-08 23:14:10.666,-0.0800,0.1800,9.5500,0.0000,-0.1250,0.1875,0.2500,0.3125,0.0000,309.8750,
2025-03-08 23:14:10.683,-0.0600,0.1800,9.5300,-0.1250,0.0000,0.0000,0.2500,0.3125,0.0000,310.0000,
2025-03-08 23:14:10.696,-0.0700,0.1900,9.5200,-0.1875,-0.0625,-0.0625,0.2500,0.3125,0.0000,310.0000,
2025-03-08 23:14:10.708,-0.0600,0.1800,9.5100,-0.0625,0.0000,-0.0625,0.1875,0.2500,0.0000,310.0000,
2025-03-08 23:14:10.731,-0.0700,0.1800,9.5300,-0.0625,-0.0625,-0.0625,0.1875,0.2500,0.0000,310.0000,
2025-03-08 23:14:10.743,-0.0900,0.1800,9.5000,-0.0625,0.0000,-0.0625,0.1875,0.2500,0.0000,310.0000,
2025-03-08 23:14:10.748,-0.0800,0.1900,9.5000,0.0625,0.1250,0.0000,0.1875,0.2500,0.0000,310.0000,
2025-03-08 23:14:10.761,-0.0600,0.1800,9.5100,0.0000,0.0625,0.0000,0.1875,0.1875,0.0000,310.0000,
2025-03-08 23:14:10.765,-0.1000,0.1900,9.5200,-0.1250,-0.1250,0.0625,0.1875,0.1875,0.0000,310.0000,
2025-03-08 23:14:10.776,-0.0700,0.2000,9.5300,0.0000,-0.0625,0.0000,0.1875,0.1875,0.0000,310.1250,
2025-03-08 23:14:10.790,-0.0600,0.1800,9.5800,0.1250,-0.1250,0.0625,0.1875,0.1875,0.0000,310.1250,
2025-03-08 23:14:10.798,-0.0700,0.1900,9.5200,0.0000,-0.0625,-0.0625,0.1875,0.1875,0.0000,310.1250,
2025-03-08 23:14:10.807,-0.0600,0.1800,9.5300,0.0625,0.1250,-0.0625,0.1250,0.1875,0.0000,310.1250,
2025-03-08 23:14:10.815,-0.0700,0.1900,9.4800,0.0000,0.0000,-0.1250,0.1250,0.1250,0.0000,310.1250,
2025-03-08 23:14:10.828,-0.0700,0.2200,9.4600,0.0000,0.0000,-0.0625,0.1250,0.1250,0.0000,310.3125,
2025-03-08 23:14:10.839,-0.0800,0.2000,9.4900,0.0000,0.0000,-0.0625,0.1250,0.1250,0.0000,310.3125,
2025-03-08 23:14:10.849,-0.0800,0.1800,9.5200,0.1875,-0.0625,0.0625,0.1250,0.1250,0.0000,310.3125,
2025-03-08 23:14:10.859,-0.0600,0.1900,9.5800,-0.0625,0.1875,0.1875,0.1250,0.1250,0.0000,310.3125,
2025-03-08 23:14:10.865,-0.0600,0.1900,9.5200,0.0000,-0.1250,0.0000,0.1250,0.1250,0.0000,310.3125,
2025-03-08 23:14:10.876,-0.0700,0.1900,9.4700,0.0625,-0.0625,0.0000,0.1250,0.0625,0.0000,310.3750,
2025-03-08 23:14:10.886,-0.0700,0.1800,9.4700,0.0625,0.0000,0.1250,0.1250,0.0625,0.0000,310.3750,
2025-03-08 23:14:10.934,-0.0700,0.1800,9.4800,-0.1250,0.0000,0.0625,0.1250,0.0625,0.0000,310.3750,
2025-03-08 23:14:10.935,-0.0600,0.1800,9.5100,0.0000,0.1875,-0.0625,0.1250,0.0625,0.0000,310.3750,
2025-03-08 23:14:10.935,-0.0800,0.1900,9.5500,-0.1250,0.0625,-0.0625,0.1250,0.0625,0.0000,310.3750,
2025-03-08 23:14:10.935,-0.0700,0.1800,9.5500,-0.0625,0.1250,0.0625,0.1250,0.0625,0.0000,310.3125,
2025-03-08 23:14:10.936,-0.0700,0.1900,9.4700,0.0000,-0.0625,0.0625,0.0625,0.0625,0.0000,310.3125,
2025-03-08 23:14:10.947,-0.0700,0.1800,9.4800,0.0625,-0.0625,0.0625,0.0625,0.0000,0.0000,310.3125,
2025-03-08 23:14:10.955,-0.0900,0.1700,9.5600,0.0000,0.1250,-0.0625,0.0625,0.0000,0.0000,310.3125,
2025-03-08 23:14:10.978,-0.0700,0.1900,9.5500,-0.1250,0.1250,-0.1250,0.0625,0.0000,0.0000,310.3125,
2025-03-08 23:14:10.978,-0.0900,0.1700,9.5700,0.0000,-0.0625,0.0000,0.0625,0.0000,0.0000,310.3125,
2025-03-08 23:14:10.986,-0.0600,0.1800,9.5000,0.1875,0.0000,0.1250,0.0625,0.0000,0.0000,310.3125,
2025-03-08 23:14:11.003,-0.0900,0.1900,9.4400,0.0000,0.1875,0.0625,0.0625,0.0000,0.0000,310.3125,
2025-03-08 23:14:11.019,-0.0800,0.2000,9.4900,-0.0625,0.0625,0.0625,0.0625,0.0000,0.0000,310.3125,
2025-03-08 23:14:11.019,-0.0700,0.2000,9.5400,-0.0625,0.0625,-0.0625,0.0625,0.0000,0.0000,310.3125,
2025-03-08 23:14:11.026,-0.0700,0.2000,9.5800,-0.1875,-0.0625,0.0000,0.0625,0.0000,0.0000,310.3750,
2025-03-08 23:14:11.040,-0.0800,0.1900,9.5500,-0.1250,0.2500,-0.1250,0.0625,0.0000,0.0000,310.3750,
2025-03-08 23:14:11.045,-0.0900,0.1700,9.5000,0.0625,0.0000,0.0625,0.0625,0.0000,0.0000,310.3750,
2025-03-08 23:14:11.062,-0.0700,0.1900,9.4800,0.0000,0.0625,-0.0625,0.0625,0.0000,0.0000,310.3750,
2025-03-08 23:14:11.070,-0.0700,0.1800,9.4900,0.0000,0.0000,0.0000,0.0625,0.0000,0.0000,310.3750,
2025-03-08 23:14:11.075,-0.0600,0.1900,9.5100,-0.1250,0.0000,0.0000,0.0625,0.0000,0.0000,310.4375,
2025-03-08 23:14:11.124,-0.0800,0.1900,9.5500,-0.1875,0.0000,0.0000,0.0625,0.0000,0.0000,310.4375,
2025-03-08 23:14:11.124,-0.0800,0.2200,9.5200,0.0000,-0.0625,-0.1250,0.0625,0.0000,0.0000,310.4375,
2025-03-08 23:14:11.124,-0.0900,0.1700,9.5100,-0.1250,-0.0625,0.0625,0.0000,-0.0625,0.0000,310.4375,
2025-03-08 23:14:11.124,-0.0900,0.2000,9.4900,-0.0625,0.0000,-0.0625,0.0000,-0.0625,0.0000,310.4375,
2025-03-08 23:14:11.128,-0.0900,0.1800,9.5200,-0.1250,0.0625,-0.1875,0.0000,-0.0625,0.0000,310.6250,
2025-03-08 23:14:11.135,-0.0700,0.1800,9.5000,0.0000,0.0000,-0.0625,0.0000,-0.0625,0.0000,310.6250,
2025-03-08 23:14:11.148,-0.0700,0.1800,9.5200,-0.1875,0.0000,0.0000,0.0000,-0.0625,0.0000,310.6250,
2025-03-08 23:14:11.156,-0.0800,0.1900,9.5100,-0.1250,0.0000,0.1250,0.0000,-0.0625,0.0000,310.6250,
2025-03-08 23:14:11.167,-0.0800,0.1800,9.5200,0.0000,-0.0625,0.0625,0.0000,-0.0625,0.0000,310.6250,
2025-03-08 23:14:11.175,-0.0900,0.2100,9.5200,0.0625,0.0000,-0.0625,0.0000,-0.0625,0.0000,310.6875,
2025-03-08 23:14:11.189,-0.0700,0.1700,9.5000,0.0000,0.1875,-0.0625,0.0000,-0.0625,0.0000,310.6875,
2025-03-08 23:14:11.231,-0.0700,0.1900,9.5000,-0.1250,-0.0625,0.0000,0.0000,-0.1250,0.0000,310.6875,
2025-03-08 23:14:11.235,-0.0600,0.1700,9.5000,0.0000,0.0000,0.0625,0.0000,-0.1250,0.0000,310.6875,
2025-03-08 23:14:11.235,-0.0600,0.1700,9.4900,0.0625,0.1250,0.0000,0.0000,-0.1250,0.0000,310.6875,
2025-03-08 23:14:11.235,-0.0900,0.1900,9.5200,-0.0625,0.1250,-0.0625,0.0000,-0.1250,0.0000,310.6250,
2025-03-08 23:14:11.235,-0.0700,0.1900,9.5200,-0.0625,-0.1250,0.0000,0.0000,-0.1250,0.0000,310.6250,
2025-03-08 23:14:11.245,-0.0600,0.1800,9.5200,0.0625,-0.1250,0.0625,0.0000,-0.1250,0.0000,310.6250,
2025-03-08 23:14:11.263,-0.0700,0.1600,9.5200,0.0000,-0.0625,0.0625,0.0000,-0.1250,0.0000,310.6250,
2025-03-08 23:14:11.272,-0.0800,0.1900,9.5300,-0.0625,-0.0625,0.0000,0.0000,-0.1250,0.0000,310.6250,
2025-03-08 23:14:11.279,-0.0800,0.2000,9.5000,-0.0625,0.1875,-0.0625,0.0000,-0.1250,0.0000,310.6875,
2025-03-08 23:14:11.285,-0.0700,0.1900,9.5400,0.0625,0.0625,0.0000,0.0000,-0.1250,0.0000,310.6875,
2025-03-08 23:14:11.296,-0.0800,0.1800,9.5300,-0.0625,0.0000,-0.0625,0.0000,-0.1250,0.0000,310.6875,
2025-03-08 23:14:11.308,-0.0500,0.1800,9.5100,-0.1250,0.1875,0.0000,0.0000,-0.1875,0.0000,310.6875,
2025-03-08 23:14:11.316,-0.1000,0.1800,9.5100,-0.1250,0.1875,-0.0625,0.0000,-0.1875,0.0000,310.6875,
2025-03-08 23:14:11.327,-0.0700,0.1800,9.5400,-0.0625,-0.1250,-0.0625,0.0000,-0.1875,0.0000,310.7500,
2025-03-08 23:14:11.338,-0.0900,0.2000,9.5100,0.0625,0.0000,0.0000,0.0000,-0.1875,0.0000,310.7500,
2025-03-08 23:14:11.347,-0.0600,0.1800,9.5300,0.0000,0.0625,-0.0625,0.0000,-0.1875,0.0000,310.7500,
2025-03-08 23:14:11.357,-0.0700,0.1800,9.5000,-0.1250,-0.0625,-0.0625,0.0000,-0.1875,0.0000,310.7500,
2025-03-08 23:14:11.366,-0.0800,0.2000,9.5200,-0.0625,0.0625,-0.0625,0.0000,-0.1875,0.0000,310.7500,
2025-03-08 23:14:11.385,-0.0700,0.1900,9.5100,0.0000,0.2500,-0.0625,0.0000,-0.1875,0.0000,310.8125,
2025-03-08 23:14:11.386,-0.0600,0.1800,9.5400,0.0000,0.2500,-0.0625,0.0000,-0.1875,0.0000,310.8125,
2025-03-08 23:14:11.396,-0.0700,0.1900,9.5100,0.0625,0.0000,0.0000,0.0000,-0.1875,0.0000,310.8125,
2025-03-08 23:14:11.407,-0.0700,0.1900,9.5100,0.0625,-0.0625,-0.0625,0.0000,-0.1875,0.0000,310.8125,
2025-03-08 23:14:11.423,-0.0700,0.1800,9.5000,-0.1250,0.1250,0.0000,0.0000,-0.1875,0.0000,310.8125,
2025-03-08 23:14:11.429,-0.0800,0.1900,9.4900,-0.1250,0.0625,0.1250,0.0000,-0.2500,0.0000,310.8125,
2025-03-08 23:14:11.451,-0.0600,0.1800,9.5000,-0.0625,0.2500,0.0625,0.0000,-0.2500,0.0000,310.8125,
2025-03-08 23:14:11.452,-0.0800,0.2100,9.5000,0.0000,0.0000,0.0000,0.0000,-0.2500,0.0000,310.8125,
2025-03-08 23:14:11.456,-0.0900,0.1800,9.4900,0.0000,0.0000,0.0000,0.0000,-0.2500,0.0000,310.8125,
2025-03-08 23:14:11.468,-0.0700,0.1800,9.4900,0.0000,0.0000,0.0625,0.0000,-0.2500,0.0000,310.8125,
2025-03-08 23:14:11.481,-0.0700,0.1800,9.5100,-0.0625,-0.0625,0.0000,0.0000,-0.2500,0.0000,310.8125,
2025-03-08 23:14:11.489,-0.0700,0.1900,9.5000,0.0000,0.0000,0.0000,0.0000,-0.2500,0.0000,310.8750,
2025-03-08 23:14:11.537,-0.0800,0.1900,9.4900,-0.0625,0.0625,-0.0625,0.0000,-0.2500,0.0000,310.8750,
2025-03-08 23:14:11.537,-0.0700,0.1700,9.5100,0.1250,-0.0625,0.0625,0.0000,-0.2500,0.0000,310.8750,
2025-03-08 23:14:11.537,-0.0600,0.1800,9.5400,0.0000,0.0000,0.0625,0.0000,-0.2500,0.0000,310.8750,
2025-03-08 23:14:11.537,-0.0600,0.2100,9.5000,-0.1250,0.0625,0.0625,0.0000,-0.2500,0.0000,310.8750,
2025-03-08 23:14:11.537,-0.0800,0.1900,9.5400,0.0000,0.0000,0.0000,0.0000,-0.2500,0.0000,310.9375,
2025-03-08 23:14:11.552,-0.0800,0.1800,9.5000,0.0625,-0.1250,-0.0625,0.0000,-0.2500,0.0000,310.9375,
2025-03-08 23:14:11.559,-0.0600,0.1900,9.5100,-0.0625,0.0000,-0.0625,0.0000,-0.2500,0.0000,310.9375,
2025-03-08 23:14:11.580,-0.0800,0.1800,9.5000,0.0000,-0.0625,-0.0625,0.0000,-0.3125,0.0000,310.9375,
2025-03-08 23:14:11.580,-0.0800,0.1700,9.5200,-0.0625,-0.0625,-0.0625,0.0000,-0.3125,0.0000,310.9375,
2025-03-08 23:14:11.589,-0.0700,0.1900,9.5000,0.0000,0.0000,0.1250,-0.0625,-0.3125,0.0000,310.9375,
2025-03-08 23:14:11.596,-0.0800,0.1900,9.5100,0.0000,-0.0625,0.1250,-0.0625,-0.3125,0.0000,310.9375,
2025-03-08 23:14:11.609,-0.0900,0.1900,9.5300,0.1250,-0.0625,0.0000,-0.0625,-0.3125,0.0000,310.9375,
2025-03-08 23:14:11.617,-0.0900,0.1900,9.5200,0.0000,-0.1250,-0.0625,-0.0625,-0.3125,0.0000,310.9375,
2025-03-08 23:14:11.627,-0.0600,0.2000,9.5200,0.0625,0.0000,-0.0625,-0.0625,-0.3125,0.0000,310.9375,
2025-03-08 23:14:11.638,-0.0800,0.1700,9.5400,0.0000,0.0625,0.0000,-0.0625,-0.3125,0.0000,310.9375,
2025-03-08 23:14:11.653,-0.0900,0.1800,9.5000,0.0000,-0.2500,0.0000,-0.0625,-0.3125,0.0000,310.9375,
2025-03-08 23:14:11.657,-0.0700,0.1900,9.5300,-0.0625,0.0625,-0.1250,-0.0625,-0.3125,0.0000,310.9375,
2025-03-08 23:14:11.668,-0.0900,0.2000,9.5100,0.0000,0.0625,0.0000,-0.0625,-0.3125,0.0000,310.9375,
2025-03-08 23:14:11.685,-0.0800,0.1900,9.5200,0.0000,0.0000,0.0000,-0.0625,-0.3125,0.0000,310.9375,
2025-03-08 23:14:11.691,-0.0900,0.1900,9.5100,0.0000,0.0000,0.0000,-0.0625,-0.3125,0.0000,310.9375,
2025-03-08 23:14:11.699,-0.0800,0.1900,9.5000,0.0625,0.0625,0.0000,-0.0625,-0.3125,0.0000,310.9375,
2025-03-08 23:14:11.707,-0.0800,0.1800,9.5000,0.1250,0.1250,-0.0625,-0.0625,-0.3125,0.0000,310.9375,
2025-03-08 23:14:11.723,-0.0600,0.2200,9.5000,0.0625,0.0000,0.0000,-0.0625,-0.3125,0.0000,310.9375,
2025-03-08 23:14:11.731,-0.0700,0.1900,9.5300,0.0625,0.0000,0.0000,-0.0625,-0.3125,0.0000,310.9375,
2025-03-08 23:14:11.746,-0.0900,0.1700,9.5300,-0.0625,-0.0625,0.0000,-0.0625,-0.3750,0.0000,310.9375,
2025-03-08 23:14:11.751,-0.0900,0.1700,9.5100,-0.0625,-0.0625,-0.0625,-0.0625,-0.3750,0.0000,310.9375,
2025-03-08 23:14:11.757,-0.0900,0.1900,9.5200,0.0625,-0.1875,0.0625,-0.0625,-0.3750,0.0000,310.9375,
2025-03-08 23:14:11.767,-0.0600,0.1800,9.5100,0.1875,0.0000,0.0625,-0.0625,-0.3750,0.0000,310.9375,
2025-03-08 23:14:11.777,-0.0500,0.1500,9.5300,0.0000,-0.0625,0.1250,-0.0625,-0.3750,0.0000,310.9375,
2025-03-08 23:14:11.788,-0.0700,0.2000,9.5100,-0.0625,-0.0625,-0.0625,-0.0625,-0.3750,0.0000,310.9375,
2025-03-08 23:14:11.816,-0.0900,0.2000,9.4700,0.0000,0.0000,0.0625,-0.0625,-0.3750,0.0000,310.9375,
2025-03-08 23:14:11.833,-0.0800,0.1800,9.5000,0.0000,-0.1250,0.0625,-0.0625,-0.3750,0.0000,310.9375,
2025-03-08 23:14:11.833,-0.0800,0.2100,9.5200,0.1250,-0.1875,0.0625,-0.0625,-0.3750,0.0000,310.9375,
2025-03-08 23:14:11.842,-0.0900,0.1700,9.5400,0.1250,0.0625,0.0000,-0.0625,-0.3750,0.0000,310.9375,
2025-03-08 23:14:11.847,-0.0800,0.1900,9.5000,-0.0625,0.0625,-0.0625,-0.0625,-0.3750,0.0000,310.9375,
2025-03-08 23:14:11.857,-0.0900,0.1900,9.5100,0.0000,-0.0625,0.0000,-0.0625,-0.3750,0.0000,310.9375,
2025-03-08 23:14:11.886,-0.0800,0.1800,9.5400,0.1250,0.1250,-0.0625,-0.0625,-0.3750,0.0000,310.9375,
2025-03-08 23:14:11.894,-0.0800,0.1800,9.5100,-0.0625,0.0625,-0.1250,-0.0625,-0.3750,0.0000,310.9375,
2025-03-08 23:14:11.912,-0.0600,0.1700,9.5000,0.0625,-0.2500,0.1250,-0.0625,-0.3750,0.0000,310.9375,
2025-03-08 23:14:11.926,-0.0900,0.1800,9.5300,-0.0625,-0.1250,0.0000,-0.0625,-0.3750,0.0000,310.9375,
